"rt","key_press","trial_type","trial_index","trial_index_global","time_elapsed","internal_chunk_id","responses","experimental_goal_height","experimental_start_height","experimental_weeks_total","experimental_crop_type","experimental_crop_side","fixed_goal_height","fixed_start_height","fixed_weeks_total","fixed_crop_type","trial_kind","trial_number","stage","left_current_height","left_weeks_remaining","left_crop_type","right_current_height","right_weeks_remaining","right_crop_type","mean_left_growth_given_left","sd_left_growth_given_left","mean_left_growth_given_middle","sd_left_growth_given_middle","mean_left_growth_given_right","sd_left_growth_given_right","mean_right_growth_given_left","sd_right_growth_given_left","mean_right_growth_given_middle","sd_right_growth_given_middle","mean_right_growth_given_right","sd_right_growth_given_right","response","response_time","left_growth","right_growth","other_key_pressed","mouse_clicked"
"12913081","77","text","0","0","12913191","0-0","","","","","","","","","","","","","","","","","","","","","","","","","","","","","","","","","","","","",""
"4755","","survey-text","0","1","12918964","0-0","{""Q0"":""19""}","","","","","","","","","","","","","","","","","","","","","","","","","","","","","","","","","","","",""
"5092","86","text","0","2","5233","0-0","","","","","","","","","","","","","","","","","","","","","","","","","","","","","","","","","","","","",""
"","","plant-game","0","3","99771","0-0","","200","120","8","CORN CROP","Right","200","120","8","THISTLE WEED","practice","1","1,2,3,4,5,6,7,8","120,100.78470663690261,95.58573745080045,84.32276344294691,85.89425053391889,106.14687789724749,125.56578187856368,119.69752468160424","8,7,6,5,4,3,2,1","THISTLE WEED,THISTLE WEED,THISTLE WEED,THISTLE WEED,THISTLE WEED,THISTLE WEED,THISTLE WEED,THISTLE WEED","120,134.25620320454055,140.35053725353052,179.09001607604972,194.25857012622302,211.8889577029536,221.1410266295731,204.07293670184464","8,7,6,5,4,3,2,1","CORN CROP,CORN CROP,CORN CROP,CORN CROP,CORN CROP,CORN CROP,CORN CROP,CORN CROP","0,0,0,0,0,0,0,0","20,20,20,20,20,20,20,20","10,10,10,10,10,10,10,10","20,20,20,20,20,20,20,20","20,20,20,20,20,20,20,20","20,20,20,20,20,20,20,20","0,0,0,0,0,0,0,0","20,20,20,20,20,20,20,20","10,10,10,10,10,10,10,10","20,20,20,20,20,20,20,20","20,20,20,20,20,20,20,20","20,20,20,20,20,20,20,20","0,0,1,0,1,1,0,1","26662,5891,6063,4162,3866,7451,2886,2321","-19.21529336309739,-5.198969186102168,-11.26297400785354,1.5714870909719858,20.252627363328603,19.418903981316195,-5.868257196959442,34.4622026677279","14.256203204540544,6.094334048989976,38.7394788225192,15.16855405017331,17.630387576730588,9.252068926619504,-17.068089927728455,45.10245750130788","0","0"
"1010","86","text","0","4","100874","0-0","","","","","","","","","","","","","","","","","","","","","","","","","","","","","","","","","","","","",""
"","","plant-game","0","5","134560","0-0","","200","160","4","WHEAT CROP","Right","200","160","4","NETTLE WEED","practice","2","1,2,3,4","160,155.5487507919382,197.75364286982864,183.33873810057167","4,3,2,1","NETTLE WEED,NETTLE WEED,NETTLE WEED,NETTLE WEED","160,154.9779312972001,174.6632239480042,135.56554667167762","4,3,2,1","WHEAT CROP,WHEAT CROP,WHEAT CROP,WHEAT CROP","0,0,0,0","20,20,20,20","10,10,10,10","20,20,20,20","20,20,20,20","20,20,20,20","0,0,0,0","20,20,20,20","10,10,10,10","20,20,20,20","20,20,20,20","20,20,20,20","1,1,0,0","4738,2441,2347,2606","-4.4512492080617925,42.20489207789045,-14.414904769256978,1.606550003176407","-5.0220687027999205,19.68529265080412,-39.09767727632657,31.609884657696643","0","0"
"948","86","text","0","6","135618","0-0","","","","","","","","","","","","","","","","","","","","","","","","","","","","","","","","","","","","",""
"","","plant-game","0","7","158608","0-0","","200","180","2","CORN CROP","Left","200","180","2","NETTLE WEED","practice","3","1,2","180,211.79348576303062","2,1","CORN CROP,CORN CROP","180,188.690359237796","2,1","NETTLE WEED,NETTLE WEED","20,20","20,20","10,10","20,20","0,0","20,20","20,20","20,20","10,10","20,20","0,0","20,20","0,1","1623,5027","31.793485763030613,-7.872408327689227","8.690359237796004,1.9762696522628163","0","0"
"1097","86","text","0","8","159815","0-0","","","","","","","","","","","","","","","","","","","","","","","","","","","","","","","","","","","","",""
"","","plant-game","0","9","182221","0-0","","200","190","1","CORN CROP","Right","200","190","1","THISTLE WEED","practice","4","1","190","1","THISTLE WEED","190","1","CORN CROP","0","20","10","20","20","20","0","20","10","20","20","20","0","5548","-22.085510670793997","20.583178075198223","0","0"
"503","86","text","0","10","182821","0-0","","","","","","","","","","","","","","","","","","","","","","","","","","","","","","","","","","","","",""
"","","plant-game","0","11","218075","0-0","","200","120","8","WHEAT CROP","Right","200","160","8","NETTLE WEED","practice","5","1,2,3,4,5,6,7,8","160,162.68447666849278,157.0917243902843,139.5177627941622,151.54264118702557,182.00486010552368,164.90481303703785,154.21253241892688","8,7,6,5,4,3,2,1","NETTLE WEED,NETTLE WEED,NETTLE WEED,NETTLE WEED,NETTLE WEED,NETTLE WEED,NETTLE WEED,NETTLE WEED","120,131.2753635114691,148.85743999219824,109.5748494127333,114.8521299085523,122.75749603793705,111.47685544866611,129.53597449918044","8,7,6,5,4,3,2,1","WHEAT CROP,WHEAT CROP,WHEAT CROP,WHEAT CROP,WHEAT CROP,WHEAT CROP,WHEAT CROP,WHEAT CROP","0,0,0,0,0,0,0,0","20,20,20,20,20,20,20,20","10,10,10,10,10,10,10,10","20,20,20,20,20,20,20,20","20,20,20,20,20,20,20,20","20,20,20,20,20,20,20,20","0,0,0,0,0,0,0,0","20,20,20,20,20,20,20,20","10,10,10,10,10,10,10,10","20,20,20,20,20,20,20,20","20,20,20,20,20,20,20,20","20,20,20,20,20,20,20,20","0,0,0,1,1,0,0,1","7802,2440,1301,1963,1211,2301,4009,2359","2.684476668492784,-5.592752278208489,-17.57396159612209,12.024878392863368,30.46221891849811,-17.100047068485836,-10.69228061811097,-18.075641496462175","11.2753635114691,17.582076480729132,-39.28259057946494,5.277280495819001,7.905366129384738,-11.280640589270927,18.059119050514333,68.54344452481656","0","0"
"583","86","text","0","12","218767","0-0","","","","","","","","","","","","","","","","","","","","","","","","","","","","","","","","","","","","",""
"","","plant-game","0","13","317684","0-0","","200","180","4","WHEAT CROP","Left","200","160","4","NETTLE WEED","practice","6","1,2,3,4","180,199.47294109426394,173.24088036015712,164.2708208360339","4,3,2,1","WHEAT CROP,WHEAT CROP,WHEAT CROP,WHEAT CROP","160,207.531180531795,192.47470631991453,194.56140737505754","4,3,2,1","NETTLE WEED,NETTLE WEED,NETTLE WEED,NETTLE WEED","20,20,20,20","20,20,20,20","10,10,10,10","20,20,20,20","0,0,0,0","20,20,20,20","20,20,20,20","20,20,20,20","10,10,10,10","20,20,20,20","0,0,0,0","20,20,20,20","0,1,1,0","2914,4683,1013,1804","19.472941094263952,-26.23206073410682,-8.970059524123222,-11.839839000642133","47.53118053179501,-15.05647421188048,2.086701055143,29.172706154885105","0","0"
"599","86","text","0","14","318385","0-0","","","","","","","","","","","","","","","","","","","","","","","","","","","","","","","","","","","","",""
"","","plant-game","0","15","335129","0-0","","200","180","2","WHEAT CROP","Left","200","190","2","NETTLE WEED","practice","7","1,2","180,233.83380673395675","2,1","WHEAT CROP,WHEAT CROP","190,203.43733168151755","2,1","NETTLE WEED,NETTLE WEED","20,20","20,20","10,10","20,20","0,0","20,20","20,20","20,20","10,10","20,20","0,0","20,20","0,0","4666,4338","53.833806733956756,23.79955879311639","13.437331681517552,17.24452448815388","0","0"
"572","86","text","0","16","335801","0-0","","","","","","","","","","","","","","","","","","","","","","","","","","","","","","","","","","","","",""
"","","plant-game","0","17","394075","0-0","","200","120","4","WHEAT CROP","Right","200","120","8","NETTLE WEED","practice","8","1,2,3,4,5,6,7,8","120,136.41104385185943,103.19871601741711,140.05986907406697,142.54605025769612,128.26203217859745,161.687752001088,192.37802522536123","8,7,6,5,4,3,2,1","NETTLE WEED,NETTLE WEED,NETTLE WEED,NETTLE WEED,NETTLE WEED,NETTLE WEED,NETTLE WEED,NETTLE WEED","120,122.48028805645956,82.25195166905293,79.43680351814032,160,150.76008903473678,180.8046909193484,209.9405313500789","4,3,2,1,4,3,2,1","WHEAT CROP,WHEAT CROP,WHEAT CROP,WHEAT CROP,CORN CROP,CORN CROP,CORN CROP,CORN CROP","0,0,0,0,0,0,0,0","20,20,20,20,20,20,20,20","10,10,10,10,10,10,10,10","20,20,20,20,20,20,20,20","20,20,20,20,20,20,20,20","20,20,20,20,20,20,20,20","0,0,0,0,0,0,0,0","20,20,20,20,20,20,20,20","10,10,10,10,10,10,10,10","20,20,20,20,20,20,20,20","20,20,20,20,20,20,20,20","20,20,20,20,20,20,20,20","1,0,1,1,0,0,1,0","3122,2690,4750,1292,12353,1768,3502,4119","16.411043851859425,-33.21232783444232,36.86115305664986,2.486181183629167,-14.284018079098686,33.42571982249056,30.69027322427322,-13.231954220757567","2.480288056459557,-40.22833638740663,-2.815148150912602,24.486589104076458,-9.23991096526322,30.04460188461161,29.135840430730532,-5.8482177890015805","0","0"
"844","86","text","0","18","394999","0-0","","","","","","","","","","","","","","","","","","","","","","","","","","","","","","","","","","","","",""
"","","plant-game","0","19","435435","0-0","","200","160","4","WHEAT CROP","Left","200","160","2","THISTLE WEED","practice","9","1,2,3,4","160,216.9044424022197,189.330684797688,216.93952565482192","4,3,2,1","WHEAT CROP,WHEAT CROP,WHEAT CROP,WHEAT CROP","160,198.23978724643672,180,203.5133100661124","2,1,2,1","THISTLE WEED,THISTLE WEED,NETTLE WEED,NETTLE WEED","20,20,20,20","20,20,20,20","10,10,10,10","20,20,20,20","0,0,0,0","20,20,20,20","20,20,20,20","20,20,20,20","10,10,10,10","20,20,20,20","0,0,0,0","20,20,20,20","0,1,0,1","4552,5952,2346,7683","56.9044424022197,-27.573757604531693,27.608840857133913,-12.761934146471063","38.239787246436734,-5.897844236910117,23.513310066112396,-17.8983410728759","0","0"
"1619","86","text","0","20","437124","0-0","","","","","","","","","","","","","","","","","","","","","","","","","","","","","","","","","","","","",""
"","","plant-game","0","21","461606","0-0","","200","180","2","WHEAT CROP","Left","200","180","1","NETTLE WEED","practice","10","1,2","180,176.53238065554586","2,1","WHEAT CROP,WHEAT CROP","180,190","1,1","NETTLE WEED,THISTLE WEED","20,20","20,20","10,10","20,20","0,0","20,20","20,20","20,20","10,10","20,20","0,0","20,20","1,0","2856,3634","-3.467619344454146,44.990007683347415","20.901484202276666,11.551245312320367","0","0"
"572","86","text","0","22","462278","0-0","","","","","","","","","","","","","","","","","","","","","","","","","","","","","","","","","","","","",""
"","","plant-game","0","23","514426","0-0","","200","120","8","CORN CROP","Left","200","160","4","THISTLE WEED","practice","11","1,2,3,4,5,6,7,8","120,158.9708981351753,130.7845154166105,118.30395648618732,126.39403579767442,117.34181751570713,107.41996759832783,118.69030803637693","8,7,6,5,4,3,2,1","CORN CROP,CORN CROP,CORN CROP,CORN CROP,CORN CROP,CORN CROP,CORN CROP,CORN CROP","160,195.01644920263345,232.52262844419886,238.45571239269367,160,183.0548597438694,169.6221927072659,173.46399911156382","4,3,2,1,4,3,2,1","THISTLE WEED,THISTLE WEED,THISTLE WEED,THISTLE WEED,NETTLE WEED,NETTLE WEED,NETTLE WEED,NETTLE WEED","20,20,20,20,20,20,20,20","20,20,20,20,20,20,20,20","10,10,10,10,10,10,10,10","20,20,20,20,20,20,20,20","0,0,0,0,0,0,0,0","20,20,20,20,20,20,20,20","20,20,20,20,20,20,20,20","20,20,20,20,20,20,20,20","10,10,10,10,10,10,10,10","20,20,20,20,20,20,20,20","0,0,0,0,0,0,0,0","20,20,20,20,20,20,20,20","0,1,1,0,0,1,1,1","7074,1573,5480,5464,3000,3840,916,1473","38.970898135175304,-28.18638271856479,-12.480558930423191,8.090079311487099,-9.052218281967285,-9.921849917379307,11.270340438049097,14.310680963697273","35.01644920263347,37.50617924156539,5.933083948494805,18.851149380248604,23.05485974386939,-13.432667036603515,3.8418064042979276,-27.26790232713684","1","0"
"552","86","text","0","24","515134","0-0","","","","","","","","","","","","","","","","","","","","","","","","","","","","","","","","","","","","",""
"","","plant-game","0","25","563668","0-0","","200","180","2","CORN CROP","Left","200","160","4","NETTLE WEED","practice","12","1,2,3,4","180,212.2531659597009,180,222.78069550407562","2,1,2,1","CORN CROP,CORN CROP,WHEAT CROP,WHEAT CROP","160,158.56796152220122,147.19320248762335,146.2737790621241","4,3,2,1","NETTLE WEED,NETTLE WEED,NETTLE WEED,NETTLE WEED","20,20,20,20","20,20,20,20","10,10,10,10","20,20,20,20","0,0,0,0","20,20,20,20","20,20,20,20","20,20,20,20","10,10,10,10","20,20,20,20","0,0,0,0","20,20,20,20","1,1,0,0","13021,3151,6913,3057","32.253165959700915,-11.391199603095455,42.780695504075624,-7.397381266262997","-1.4320384777987825,-11.374759034577869,-0.919423425499243,24.001882621637492","0","0"
"2368","86","text","0","26","566146","0-0","","","","","","","","","","","","","","","","","","","","","","","","","","","","","","","","","","","","",""
"15870","86","text","0","27","583171","0-0","","","","","","","","","","","","","","","","","","","","","","","","","","","","","","","","","","","","",""
"","","plant-game","0","28","627329","0-0","","200","190","1","WHEAT CROP","Right","200","160","4","THISTLE WEED","experimental","1","1,2,3,4","160,128.5794943467312,102.3986604401974,118.73139930771988","4,3,2,1","THISTLE WEED,THISTLE WEED,THISTLE WEED,THISTLE WEED","190,170,142.19553475860437,176.89821814466762","1,3,2,1","WHEAT CROP,CORN CROP,CORN CROP,CORN CROP","0,0,0,0","20,20,20,20","10,10,10,10","20,20,20,20","20,20,20,20","20,20,20,20","0,0,0,0","20,20,20,20","10,10,10,10","20,20,20,20","20,20,20,20","20,20,20,20","0,0,1,1","19397,8647,2662,994","-31.420505653268794,-26.180833906533785,16.33273886752248,19.177310569335397","14.020970188557776,-27.804465241395633,34.70268338606325,37.41671383148788","0","0"
"776","86","text","0","29","628315","0-0","","","","","","","","","","","","","","","","","","","","","","","","","","","","","","","","","","","","",""
"","","plant-game","0","30","645862","0-0","","200","120","1","WHEAT CROP","Right","200","120","1","THISTLE WEED","experimental","2","1","120","1","THISTLE WEED","120","1","WHEAT CROP","0","20","10","20","20","20","0","20","10","20","20","20","1","11318","36.62998234368901","43.672639821299114","0","0"
"731","86","text","0","31","646765","0-0","","","","","","","","","","","","","","","","","","","","","","","","","","","","","","","","","","","","",""
"","","plant-game","0","32","691050","0-0","","200","190","8","CORN CROP","Right","200","160","1","THISTLE WEED","experimental","3","1,2,3,4,5,6,7,8","160,130,176.57326979512152,203.58694934624825,210.44306240669425,212.53826981877035,269.37272794369085,311.75717005262396","1,7,6,5,4,3,2,1","THISTLE WEED,NETTLE WEED,NETTLE WEED,NETTLE WEED,NETTLE WEED,NETTLE WEED,NETTLE WEED,NETTLE WEED","190,186.75563790783303,219.11067114671104,245.34676091389525,240.67587535355497,249.4893250635874,302.8245193577025,322.3410137820373","8,7,6,5,4,3,2,1","CORN CROP,CORN CROP,CORN CROP,CORN CROP,CORN CROP,CORN CROP,CORN CROP,CORN CROP","0,0,0,0,0,0,0,0","20,20,20,20,20,20,20,20","10,10,10,10,10,10,10,10","20,20,20,20,20,20,20,20","20,20,20,20,20,20,20,20","20,20,20,20,20,20,20,20","0,0,0,0,0,0,0,0","20,20,20,20,20,20,20,20","10,10,10,10,10,10,10,10","20,20,20,20,20,20,20,20","20,20,20,20,20,20,20,20","20,20,20,20,20,20,20,20","0,1,1,0,0,1,0,1","8759,5311,2145,2536,2438,2374,2891,2451","-40.28842779425739,46.57326979512152,27.01367955112674,6.856113060445996,2.095207412076087,56.834458124920474,42.384442108933136,4.38265427908086","-3.244362092166977,32.355033238878015,26.236089767184204,-4.670885560340286,8.813449710032423,53.33519429411515,19.51649442433476,35.1271444133602","0","0"
"574","86","text","0","33","691780","0-0","","","","","","","","","","","","","","","","","","","","","","","","","","","","","","","","","","","","",""
"","","plant-game","0","34","730517","0-0","","200","120","2","WHEAT CROP","Right","200","190","2","NETTLE WEED","experimental","4","1,2","190,162.4954643821241","2,1","NETTLE WEED,NETTLE WEED","120,103.6714723095448","2,1","WHEAT CROP,WHEAT CROP","0,0","20,20","10,10","20,20","20,20","20,20","0,0","20,20","10,10","20,20","20,20","20,20","0,0","27249,4309","-27.50453561787588,-21.473113842617344","-16.328527690455203,-1.031326580448969","0","0"
"567","86","text","0","35","731178","0-0","","","","","","","","","","","","","","","","","","","","","","","","","","","","","","","","","","","","",""
"","","plant-game","0","36","742936","0-0","","200","160","1","CORN CROP","Left","200","160","1","THISTLE WEED","experimental","5","1","160","1","CORN CROP","160","1","THISTLE WEED","20","20","10","20","0","20","20","20","10","20","0","20","1","6886","-0.14909759130033162","-8.53652751395116","0","0"
"1466","86","text","0","37","744495","0-0","","","","","","","","","","","","","","","","","","","","","","","","","","","","","","","","","","","","",""
"","","plant-game","0","38","772392","0-0","","200","190","1","WHEAT CROP","Left","200","190","4","THISTLE WEED","experimental","6","1,2,3,4","190,170,148.4402759660489,177.39842933839108","1,3,2,1","WHEAT CROP,CORN CROP,CORN CROP,CORN CROP","190,230.0012465085502,222.15902735940648,208.28676887705436","4,3,2,1","THISTLE WEED,THISTLE WEED,THISTLE WEED,THISTLE WEED","20,20,20,20","20,20,20,20","10,10,10,10","20,20,20,20","0,0,0,0","20,20,20,20","20,20,20,20","20,20,20,20","10,10,10,10","20,20,20,20","0,0,0,0","20,20,20,20","0,0,0,1","5449,5034,1334,4457","19.897246273348827,-21.559724033951127,28.958153372342203,20.629791050640055","40.00124650855021,-7.84221914914372,-13.872258482352116,-26.625079093634998","0","0"
"655","86","text","0","39","773125","0-0","","","","","","","","","","","","","","","","","","","","","","","","","","","","","","","","","","","","",""
"","","plant-game","0","40","798503","0-0","","200","120","4","CORN CROP","Right","200","180","1","THISTLE WEED","experimental","7","1,2,3,4","180,170,209.58710941391456,220.72449643883496","1,3,2,1","THISTLE WEED,NETTLE WEED,NETTLE WEED,NETTLE WEED","120,93.45165398601743,98.51282076187029,106.21492538166474","4,3,2,1","CORN CROP,CORN CROP,CORN CROP,CORN CROP","0,0,0,0","20,20,20,20","10,10,10,10","20,20,20,20","20,20,20,20","20,20,20,20","0,0,0,0","20,20,20,20","10,10,10,10","20,20,20,20","20,20,20,20","20,20,20,20","0,1,0,1","6918,3621,2554,1719","-15.150844930003958,39.587109413914554,11.137387024920391,-2.3848931174399084","-26.548346013982567,5.0611667758528505,7.702104619794459,20.424660743799965","0","0"
"607","86","text","0","41","799240","0-0","","","","","","","","","","","","","","","","","","","","","","","","","","","","","","","","","","","","",""
"","","plant-game","0","42","822086","0-0","","200","180","4","CORN CROP","Right","200","180","4","NETTLE WEED","experimental","8","1,2,3,4","180,195.9711742819597,201.58499834303547,200.68870836791257","4,3,2,1","NETTLE WEED,NETTLE WEED,NETTLE WEED,NETTLE WEED","180,174.43758094366,220.41498240577965,271.21590620177363","4,3,2,1","CORN CROP,CORN CROP,CORN CROP,CORN CROP","0,0,0,0","20,20,20,20","10,10,10,10","20,20,20,20","20,20,20,20","20,20,20,20","0,0,0,0","20,20,20,20","10,10,10,10","20,20,20,20","20,20,20,20","20,20,20,20","1,1,1,0","4780,4039,2793,5388","15.97117428195969,5.6138240610757695,-0.8962899751229116,-19.853680328802948","-5.562419056339998,45.97740146211966,50.80092379599398,-15.455947739068282","0","0"
"538","86","text","0","43","822704","0-0","","","","","","","","","","","","","","","","","","","","","","","","","","","","","","","","","","","","",""
"","","plant-game","0","44","907471","0-0","","200","180","4","WHEAT CROP","Left","200","190","8","THISTLE WEED","experimental","9","1,2,3,4,5,6,7,8","180,243.8912037753126,255.90570975932107,259.50521464728126,160,165.7419976512094,190.30019878534972,144.94460285680515","4,3,2,1,4,3,2,1","WHEAT CROP,WHEAT CROP,WHEAT CROP,WHEAT CROP,CORN CROP,CORN CROP,CORN CROP,CORN CROP","190,242.25605352173963,230.32336884077313,237.85116563048928,242.72020453434368,267.2700332312294,246.51108844335812,276.22066170205625","8,7,6,5,4,3,2,1","THISTLE WEED,THISTLE WEED,THISTLE WEED,THISTLE WEED,THISTLE WEED,THISTLE WEED,THISTLE WEED,THISTLE WEED","20,20,20,20,20,20,20,20","20,20,20,20,20,20,20,20","10,10,10,10,10,10,10,10","20,20,20,20,20,20,20,20","0,0,0,0,0,0,0,0","20,20,20,20,20,20,20,20","20,20,20,20,20,20,20,20","20,20,20,20,20,20,20,20","10,10,10,10,10,10,10,10","20,20,20,20,20,20,20,20","0,0,0,0,0,0,0,0","20,20,20,20,20,20,20,20","0,1,1,0,0,1,1,0","56495,2545,1866,1755,6152,2236,1167,2175","63.891203775312576,12.01450598400848,3.5995048879601814,26.150305842023077,5.741997651209401,24.558201134140333,-45.35559592854456,41.221456724292224","52.256053521739624,-11.932684680966492,7.5277967897161435,4.869038903854413,24.549828696885726,-20.758944787871258,29.709573258698136,11.556820364258122","0","0"
"716","86","text","0","45","908312","0-0","","","","","","","","","","","","","","","","","","","","","","","","","","","","","","","","","","","","",""
"","","plant-game","0","46","931275","0-0","","200","120","2","WHEAT CROP","Left","200","120","4","NETTLE WEED","experimental","10","1,2,3,4","120,153.04010636750075,180,130.66924175677093","2,1,2,1","WHEAT CROP,WHEAT CROP,CORN CROP,CORN CROP","120,140.18379475412087,160.03546297852512,159.36785546936198","4,3,2,1","NETTLE WEED,NETTLE WEED,NETTLE WEED,NETTLE WEED","20,20,20,20","20,20,20,20","10,10,10,10","20,20,20,20","0,0,0,0","20,20,20,20","20,20,20,20","20,20,20,20","10,10,10,10","20,20,20,20","0,0,0,0","20,20,20,20","0,1,1,1","5605,1824,3641,2893","33.04010636750074,19.465661375520664,-49.33075824322906,26.137391779043803","20.183794754120857,19.85166822440425,-0.6676075091631396,-22.671051812427862","0","0"
"683","86","text","0","47","932036","0-0","","","","","","","","","","","","","","","","","","","","","","","","","","","","","","","","","","","","",""
"","","plant-game","0","48","943428","0-0","","200","190","1","WHEAT CROP","Right","200","160","1","THISTLE WEED","experimental","11","1","160","1","THISTLE WEED","190","1","WHEAT CROP","0","20","10","20","20","20","0","20","10","20","20","20","1","5230","-8.118616266785349","9.936428342120085","0","0"
"755","86","text","0","49","944308","0-0","","","","","","","","","","","","","","","","","","","","","","","","","","","","","","","","","","","","",""
"","","plant-game","0","50","989576","0-0","","200","120","2","WHEAT CROP","Left","200","190","4","NETTLE WEED","experimental","12","1,2,3,4","120,130.56314510110306,180,209.97166766815073","2,1,2,1","WHEAT CROP,WHEAT CROP,CORN CROP,CORN CROP","190,203.95445760480243,231.55655723938926,241.29989847237974","4,3,2,1","NETTLE WEED,NETTLE WEED,NETTLE WEED,NETTLE WEED","20,20,20,20","20,20,20,20","10,10,10,10","20,20,20,20","0,0,0,0","20,20,20,20","20,20,20,20","20,20,20,20","10,10,10,10","20,20,20,20","0,0,0,0","20,20,20,20","1,0,0,0","28492,2541,3154,2506","10.563145101103053,-12.762487397977338,29.971667668150733,29.65997514561861","13.954457604802414,27.602099634586825,9.743341232990481,-20.809867646589133","0","0"
"630","86","text","0","51","990356","0-0","","","","","","","","","","","","","","","","","","","","","","","","","","","","","","","","","","","","",""
"","","plant-game","0","52","1014017","0-0","","200","120","2","WHEAT CROP","Left","200","160","1","NETTLE WEED","experimental","13","1,2","120,115.88880023052174","2,1","WHEAT CROP,WHEAT CROP","160,190","1,1","NETTLE WEED,THISTLE WEED","20,20","20,20","10,10","20,20","0,0","20,20","20,20","20,20","10,10","20,20","0,0","20,20","1,1","9895,4971","-4.111199769478264,38.88713602929365","-9.680635542125877,4.880039610208581","0","0"
"760","86","text","0","53","1014886","0-0","","","","","","","","","","","","","","","","","","","","","","","","","","","","","","","","","","","","",""
"","","plant-game","0","54","1037630","0-0","","200","180","1","WHEAT CROP","Right","200","120","2","NETTLE WEED","experimental","14","1,2","120,149.75739931998487","2,1","NETTLE WEED,NETTLE WEED","180,190","1,1","WHEAT CROP,CORN CROP","0,0","20,20","10,10","20,20","20,20","20,20","0,0","20,20","10,10","20,20","20,20","20,20","1,1","10302,2911","29.75739931998486,13.753665581165833","19.864479166971858,31.31535208648748","0","0"
"580","86","text","0","55","1038340","0-0","","","","","","","","","","","","","","","","","","","","","","","","","","","","","","","","","","","","",""
"","","plant-game","0","56","1057530","0-0","","200","190","4","WHEAT CROP","Right","200","160","2","THISTLE WEED","experimental","15","1,2,3,4","160,159.5387573776052,180,182.00788001097058","2,1,2,1","THISTLE WEED,THISTLE WEED,NETTLE WEED,NETTLE WEED","190,151.04145770791243,168.0838654724687,191.46146541267547","4,3,2,1","WHEAT CROP,WHEAT CROP,WHEAT CROP,WHEAT CROP","0,0,0,0","20,20,20,20","10,10,10,10","20,20,20,20","20,20,20,20","20,20,20,20","0,0,0,0","20,20,20,20","10,10,10,10","20,20,20,20","20,20,20,20","20,20,20,20","0,0,1,0","4239,1566,3381,1928","-0.4612426223947979,-1.1611227812829539,2.0078800109705703,-0.5831133103096587","-38.95854229208758,17.042407764556273,23.377599940206768,-12.635157521113694","0","0"
"703","86","text","0","57","1058373","0-0","","","","","","","","","","","","","","","","","","","","","","","","","","","","","","","","","","","","",""
"","","plant-game","0","58","1086752","0-0","","200","120","8","WHEAT CROP","Left","200","160","1","NETTLE WEED","experimental","16","1,2,3,4,5,6,7,8","120,168.87593041533648,170.32800233729984,159.97627798081032,189.93247961943763,202.76070789727638,193.32897233228806,223.17892431527608","8,7,6,5,4,3,2,1","WHEAT CROP,WHEAT CROP,WHEAT CROP,WHEAT CROP,WHEAT CROP,WHEAT CROP,WHEAT CROP,WHEAT CROP","160,130,184.5894226249902,187.261982369514,178.77989055461617,218.26927577490284,284.05073350579926,237.48825532669645","1,7,6,5,4,3,2,1","NETTLE WEED,THISTLE WEED,THISTLE WEED,THISTLE WEED,THISTLE WEED,THISTLE WEED,THISTLE WEED,THISTLE WEED","20,20,20,20,20,20,20,20","20,20,20,20,20,20,20,20","10,10,10,10,10,10,10,10","20,20,20,20,20,20,20,20","0,0,0,0,0,0,0,0","20,20,20,20,20,20,20,20","20,20,20,20,20,20,20,20","20,20,20,20,20,20,20,20","10,10,10,10,10,10,10,10","20,20,20,20,20,20,20,20","0,0,0,0,0,0,0,0","20,20,20,20,20,20,20,20","0,0,1,0,1,0,1,0","3312,1817,770,1051,1281,902,1258,6276","48.875930415336484,1.452071921963345,-10.351724356489518,29.956201638627316,12.828228277838758,-9.43173556498833,29.84995198298801,2.9555204169536893","18.2765347863282,54.589422624990185,2.6725597445237903,-8.482091814897814,39.48938522028668,65.78145773089642,-46.5624781791028,49.24455401353238","0","0"
"9509","86","text","0","59","1096464","0-0","","","","","","","","","","","","","","","","","","","","","","","","","","","","","","","","","","","","",""
"","","plant-game","0","60","1117716","0-0","","200","180","8","CORN CROP","Right","200","160","8","THISTLE WEED","experimental","17","1,2,3,4,5,6,7,8","160,148.39859606673704,134.53491644569098,134.7052382562336,148.37821903186048,99.53359622062382,103.90053252041207,107.92500664917006","8,7,6,5,4,3,2,1","THISTLE WEED,THISTLE WEED,THISTLE WEED,THISTLE WEED,THISTLE WEED,THISTLE WEED,THISTLE WEED,THISTLE WEED","180,220.93045916514416,224.98854098957852,260.3275461392059,257.79032468703804,252.60793473319896,285.99847475575405,279.9947053641476","8,7,6,5,4,3,2,1","CORN CROP,CORN CROP,CORN CROP,CORN CROP,CORN CROP,CORN CROP,CORN CROP,CORN CROP","0,0,0,0,0,0,0,0","20,20,20,20,20,20,20,20","10,10,10,10,10,10,10,10","20,20,20,20,20,20,20,20","20,20,20,20,20,20,20,20","20,20,20,20,20,20,20,20","0,0,0,0,0,0,0,0","20,20,20,20,20,20,20,20","10,10,10,10,10,10,10,10","20,20,20,20,20,20,20,20","20,20,20,20,20,20,20,20","20,20,20,20,20,20,20,20","0,0,0,1,0,1,0,1","7602,1676,777,1479,613,1908,1193,1033","-11.601403933262969,-13.863679621046057,0.17032181054262063,13.672980775626883,-48.84462281123667,4.3669362997882555,4.024474128757985,3.6523663878705435","40.93045916514417,4.058081824434376,35.339005149627326,-2.5372214521678558,-5.182389953839074,33.39054002255506,-6.003769391606473,23.73565827046764","0","0"
"576","86","text","0","61","1118422","0-0","","","","","","","","","","","","","","","","","","","","","","","","","","","","","","","","","","","","",""
"","","plant-game","0","62","1142659","0-0","","200","180","8","CORN CROP","Left","200","160","2","NETTLE WEED","experimental","18","1,2,3,4,5,6,7,8","180,197.90022380882883,222.2522014127452,230.11249919810416,245.68144647870088,239.88885197415172,291.4831106373772,301.95286958720544","8,7,6,5,4,3,2,1","CORN CROP,CORN CROP,CORN CROP,CORN CROP,CORN CROP,CORN CROP,CORN CROP,CORN CROP","160,195.75297606985936,140,179.98270393919145,200.06780188056365,211.99933519571405,232.64290560839873,221.84726984025735","2,1,6,5,4,3,2,1","NETTLE WEED,NETTLE WEED,THISTLE WEED,THISTLE WEED,THISTLE WEED,THISTLE WEED,THISTLE WEED,THISTLE WEED","20,20,20,20,20,20,20,20","20,20,20,20,20,20,20,20","10,10,10,10,10,10,10,10","20,20,20,20,20,20,20,20","0,0,0,0,0,0,0,0","20,20,20,20,20,20,20,20","20,20,20,20,20,20,20,20","20,20,20,20,20,20,20,20","10,10,10,10,10,10,10,10","20,20,20,20,20,20,20,20","0,0,0,0,0,0,0,0","20,20,20,20,20,20,20,20","0,1,0,1,1,0,1,1","4133,798,1733,1983,1536,1737,855,1707","17.90022380882883,24.351977603916353,7.860297785358961,15.56894728059671,-5.792594504549152,51.59425866322546,10.469758949828229,-30.245747946225848","35.75297606985934,-3.306044760748304,39.98270393919146,20.085097941372197,11.93153331515041,20.64357041268468,-10.795635768141384,-11.9208377774669","0","0"
"614","86","text","0","63","1143413","0-0","","","","","","","","","","","","","","","","","","","","","","","","","","","","","","","","","","","","",""
"","","plant-game","0","64","1161345","0-0","","200","190","8","CORN CROP","Left","200","180","4","THISTLE WEED","experimental","19","1,2,3,4,5,6,7,8","190,234.76360972751266,206.47796042883172,235.94859408745262,222.26921971058488,251.25435222739304,248.95528735302588,275.338455658226","8,7,6,5,4,3,2,1","CORN CROP,CORN CROP,CORN CROP,CORN CROP,CORN CROP,CORN CROP,CORN CROP,CORN CROP","180,237.11938747910546,236.03954223573712,255.3244916696326,160,201.5463665827275,158.12541854113337,184.25965962776294","4,3,2,1,4,3,2,1","THISTLE WEED,THISTLE WEED,THISTLE WEED,THISTLE WEED,NETTLE WEED,NETTLE WEED,NETTLE WEED,NETTLE WEED","20,20,20,20,20,20,20,20","20,20,20,20,20,20,20,20","10,10,10,10,10,10,10,10","20,20,20,20,20,20,20,20","0,0,0,0,0,0,0,0","20,20,20,20,20,20,20,20","20,20,20,20,20,20,20,20","20,20,20,20,20,20,20,20","10,10,10,10,10,10,10,10","20,20,20,20,20,20,20,20","0,0,0,0,0,0,0,0","20,20,20,20,20,20,20,20","0,1,0,1,0,1,0,1","1926,615,1520,1186,1514,584,1801,1102","44.76360972751266,-28.28564929868094,29.47063365862089,-13.679374376867754,28.985132516808157,-2.29906487436717,26.38316830520009,-22.241997948547848","57.119387479105455,-1.0798452433683474,19.284949433895505,10.468245452822648,41.54636658272751,-43.42094804159412,26.13424108662956,-31.194044947960705","0","0"
"1331","86","text","0","65","1162776","0-0","","","","","","","","","","","","","","","","","","","","","","","","","","","","","","","","","","","","",""
"","","plant-game","0","66","1184534","0-0","","200","120","8","CORN CROP","Left","200","120","1","NETTLE WEED","experimental","20","1,2,3,4,5,6,7,8","120,166.36609881534287,189.28440970216954,237.86966554102253,259.04655301436736,252.33675031960246,217.9464189839851,242.43482159705275","8,7,6,5,4,3,2,1","CORN CROP,CORN CROP,CORN CROP,CORN CROP,CORN CROP,CORN CROP,CORN CROP,CORN CROP","120,130,124.96234089202764,153.85202493162603,158.34563851524035,198.1597973794115,198.99865134231587,216.44739611752493","1,7,6,5,4,3,2,1","NETTLE WEED,THISTLE WEED,THISTLE WEED,THISTLE WEED,THISTLE WEED,THISTLE WEED,THISTLE WEED,THISTLE WEED","20,20,20,20,20,20,20,20","20,20,20,20,20,20,20,20","10,10,10,10,10,10,10,10","20,20,20,20,20,20,20,20","0,0,0,0,0,0,0,0","20,20,20,20,20,20,20,20","20,20,20,20,20,20,20,20","20,20,20,20,20,20,20,20","10,10,10,10,10,10,10,10","20,20,20,20,20,20,20,20","0,0,0,0,0,0,0,0","20,20,20,20,20,20,20,20","0,0,0,1,0,1,0,1","3193,2376,904,1115,1411,1072,1528,705","46.366098815342866,22.918310886826667,48.585255838852994,21.176887473344852,-6.709802694764917,-34.39033133561737,24.488402613067663,-7.5497008152461085","22.423637729627096,-5.03765910797236,28.889684039598386,4.493613583614327,39.81415886417115,0.8388539629043691,17.448744775209068,23.015427849691314","0","0"
"727","86","text","0","67","1185401","0-0","","","","","","","","","","","","","","","","","","","","","","","","","","","","","","","","","","","","",""
"","","plant-game","0","68","1200694","0-0","","200","160","2","CORN CROP","Left","200","190","1","THISTLE WEED","experimental","21","1,2","160,189.32423785093815","2,1","CORN CROP,CORN CROP","190,190","1,1","THISTLE WEED,NETTLE WEED","20,20","20,20","10,10","20,20","0,0","20,20","20,20","20,20","10,10","20,20","0,0","20,20","0,0","2133,2530","29.324237850938143,23.207353375924512","-3.9907350752910915,38.55594919397539","0","0"
"571","86","text","0","69","1201381","0-0","","","","","","","","","","","","","","","","","","","","","","","","","","","","","","","","","","","","",""
"","","plant-game","0","70","1217414","0-0","","200","160","4","CORN CROP","Right","200","180","2","THISTLE WEED","experimental","22","1,2,3,4","180,200.32272314216362,180,169.99924306705051","2,1,2,1","THISTLE WEED,THISTLE WEED,NETTLE WEED,NETTLE WEED","160,173.3767126132011,195.95657544321327,196.09313160389434","4,3,2,1","CORN CROP,CORN CROP,CORN CROP,CORN CROP","0,0,0,0","20,20,20,20","10,10,10,10","20,20,20,20","20,20,20,20","20,20,20,20","0,0,0,0","20,20,20,20","10,10,10,10","20,20,20,20","20,20,20,20","20,20,20,20","1,1,0,1","2346,1317,1803,1677","20.322723142163625,10.844595068274769,-10.000756932949475,21.35122441353556","13.376712613201107,22.579862830012157,0.1365561606810803,33.12172892740413","0","0"
"531","86","text","0","71","1218085","0-0","","","","","","","","","","","","","","","","","","","","","","","","","","","","","","","","","","","","",""
"","","plant-game","0","72","1232796","0-0","","200","160","1","CORN CROP","Right","200","160","4","THISTLE WEED","experimental","23","1,2,3,4","160,161.07804214445562,177.2510908831356,160.09443601433983","4,3,2,1","THISTLE WEED,THISTLE WEED,THISTLE WEED,THISTLE WEED","160,170,180.83736037170118,214.31801691661775","1,3,2,1","CORN CROP,WHEAT CROP,WHEAT CROP,WHEAT CROP","0,0,0,0","20,20,20,20","10,10,10,10","20,20,20,20","20,20,20,20","20,20,20,20","0,0,0,0","20,20,20,20","10,10,10,10","20,20,20,20","20,20,20,20","20,20,20,20","1,1,0,0","2697,1814,752,1520","1.0780421444556119,16.173048738679977,-17.156654868795766,12.275565846002351","11.26313474085656,10.837360371701193,33.480656544916584,-6.238400929403913","0","0"
"541","86","text","0","73","1233507","0-0","","","","","","","","","","","","","","","","","","","","","","","","","","","","","","","","","","","","",""
"","","plant-game","0","74","1284809","0-0","","200","160","8","CORN CROP","Left","200","180","1","NETTLE WEED","experimental","24","1,2,3,4,5,6,7,8","160,175.38556428410757,124.32090633719275,174.2539472958753,151.88686967917494,147.83138445215403,158.3796094937238,173.1205432965884","8,7,6,5,4,3,2,1","CORN CROP,CORN CROP,CORN CROP,CORN CROP,CORN CROP,CORN CROP,CORN CROP,CORN CROP","180,130,139.90082544252436,132.8352855225819,143.20638198516784,137.32882269561898,173.11288987957735,175.2869864874463","1,7,6,5,4,3,2,1","NETTLE WEED,THISTLE WEED,THISTLE WEED,THISTLE WEED,THISTLE WEED,THISTLE WEED,THISTLE WEED,THISTLE WEED","20,20,20,20,20,20,20,20","20,20,20,20,20,20,20,20","10,10,10,10,10,10,10,10","20,20,20,20,20,20,20,20","0,0,0,0,0,0,0,0","20,20,20,20,20,20,20,20","20,20,20,20,20,20,20,20","20,20,20,20,20,20,20,20","10,10,10,10,10,10,10,10","20,20,20,20,20,20,20,20","0,0,0,0,0,0,0,0","20,20,20,20,20,20,20,20","0,1,1,1,1,0,1,0","37677,2015,371,447,728,1010,707,744","15.385564284107579,-51.06465794691482,49.93304095868253,-22.36707761670037,-4.055485227020908,10.54822504156976,14.740933802864625,6.515238334204156","33.883934374570146,9.900825442524365,-7.065539919942462,10.371096462585946,-5.877559289548858,35.78406718395836,2.174096607868972,7.708232904530481","0","0"
"61","86","text","0","75","1284990","0-0","","","","","","","","","","","","","","","","","","","","","","","","","","","","","","","","","","","","",""
"","","plant-game","0","76","1290952","0-0","","200","160","2","WHEAT CROP","Right","200","120","2","NETTLE WEED","experimental","25","1,2","120,152.75387580149354","2,1","NETTLE WEED,NETTLE WEED","160,154.67038614979853","2,1","WHEAT CROP,WHEAT CROP","0,0","20,20","10,10","20,20","20,20","20,20","0,0","20,20","10,10","20,20","20,20","20,20","1,0","1436,525","32.753875801493535,4.170935250063353","-5.329613850201458,5.923005430759979","0","0"
"827","86","text","0","77","1291904","0-0","","","","","","","","","","","","","","","","","","","","","","","","","","","","","","","","","","","","",""
"","","plant-game","0","78","1305590","0-0","","200","160","1","WHEAT CROP","Left","200","180","4","NETTLE WEED","experimental","26","1,2,3,4","160,170,125.48731696734295,162.26154681495882","1,3,2,1","WHEAT CROP,CORN CROP,CORN CROP,CORN CROP","180,196.27289490077757,203.55477366462108,181.92332006137036","4,3,2,1","NETTLE WEED,NETTLE WEED,NETTLE WEED,NETTLE WEED","20,20,20,20","20,20,20,20","10,10,10,10","20,20,20,20","0,0,0,0","20,20,20,20","20,20,20,20","20,20,20,20","10,10,10,10","20,20,20,20","0,0,0,0","20,20,20,20","1,1,0,0","968,1709,586,632","-11.03045646398874,-44.51268303265705,36.77422984761586,-12.322304337099254","16.27289490077758,7.281878763843497,-21.631453603250733,22.339210194927848","0","0"
"527","86","text","0","79","1306277","0-0","","","","","","","","","","","","","","","","","","","","","","","","","","","","","","","","","","","","",""
"","","plant-game","0","80","1326389","0-0","","200","160","8","CORN CROP","Left","200","120","2","THISTLE WEED","experimental","27","1,2,3,4,5,6,7,8","160,203.37191203213962,230.81236814981514,249.3065276535582,263.590472268007,273.59105370022127,254.57470980146613,197.46918593078723","8,7,6,5,4,3,2,1","CORN CROP,CORN CROP,CORN CROP,CORN CROP,CORN CROP,CORN CROP,CORN CROP,CORN CROP","120,136.29547809692386,140,138.4906652499969,168.85375369319365,180.85791831092612,182.67165498432922,164.7232704053101","2,1,6,5,4,3,2,1","THISTLE WEED,THISTLE WEED,NETTLE WEED,NETTLE WEED,NETTLE WEED,NETTLE WEED,NETTLE WEED,NETTLE WEED","20,20,20,20,20,20,20,20","20,20,20,20,20,20,20,20","10,10,10,10,10,10,10,10","20,20,20,20,20,20,20,20","0,0,0,0,0,0,0,0","20,20,20,20,20,20,20,20","20,20,20,20,20,20,20,20","20,20,20,20,20,20,20,20","10,10,10,10,10,10,10,10","20,20,20,20,20,20,20,20","0,0,0,0,0,0,0,0","20,20,20,20,20,20,20,20","0,0,0,0,0,1,1,0","2298,819,1892,824,871,588,3324,2169","43.37191203213963,27.440456117675524,18.49415950374306,14.283944614448782,10.000581432214304,-19.016343898755146,-57.105523870678894,4.1515802869271425","16.295478096923862,-11.931698136418355,-1.5093347500030845,30.36308844319676,12.004164617732476,1.8137366734031062,-17.948384579019113,-19.572828680332023","0","0"
"524","86","text","0","81","1327035","0-0","","","","","","","","","","","","","","","","","","","","","","","","","","","","","","","","","","","","",""
"","","plant-game","0","82","1340853","0-0","","200","190","1","WHEAT CROP","Right","200","180","2","THISTLE WEED","experimental","28","1,2","180,203.19761571882026","2,1","THISTLE WEED,THISTLE WEED","190,190","1,1","WHEAT CROP,CORN CROP","0,0","20,20","10,10","20,20","20,20","20,20","0,0","20,20","10,10","20,20","20,20","20,20","1,0","2984,1061","23.197615718820263,10.575009517993955","34.38426008481169,15.290544040817425","0","0"
"567","86","text","0","83","1341540","0-0","","","","","","","","","","","","","","","","","","","","","","","","","","","","","","","","","","","","",""
"","","plant-game","0","84","1348856","0-0","","200","190","1","WHEAT CROP","Left","200","120","1","NETTLE WEED","experimental","29","1","190","1","WHEAT CROP","120","1","NETTLE WEED","20","20","10","20","0","20","20","20","10","20","0","20","1","1508","14.360180280691143","-14.286407683124986","0","0"
"670","86","text","0","85","1349656","0-0","","","","","","","","","","","","","","","","","","","","","","","","","","","","","","","","","","","","",""
"","","plant-game","0","86","1368551","0-0","","200","180","4","CORN CROP","Left","200","190","2","NETTLE WEED","experimental","30","1,2,3,4","180,206.66679922498855,183.56589120977398,174.80951072693458","4,3,2,1","CORN CROP,CORN CROP,CORN CROP,CORN CROP","190,182.27392426115392,180,148.41618805118088","2,1,2,1","NETTLE WEED,NETTLE WEED,THISTLE WEED,THISTLE WEED","20,20,20,20","20,20,20,20","10,10,10,10","20,20,20,20","0,0,0,0","20,20,20,20","20,20,20,20","20,20,20,20","10,10,10,10","20,20,20,20","0,0,0,0","20,20,20,20","0,1,1,1","6844,1156,1068,1600","26.666799224988537,-23.100908015214582,-8.756380482839402,-0.18786812308929624","-7.726075738846081,24.432173682664097,-31.583811948819115,-27.697070752296007","0","0"
"498","86","text","0","87","1369199","0-0","","","","","","","","","","","","","","","","","","","","","","","","","","","","","","","","","","","","",""
"","","plant-game","0","88","1395481","0-0","","200","160","8","WHEAT CROP","Right","200","190","4","NETTLE WEED","experimental","31","1,2,3,4,5,6,7,8","190,169.93631452149492,150.8283090782696,150.90104658675932,160,159.62183236857348,144.40078736301533,157.14917079930763","4,3,2,1,4,3,2,1","NETTLE WEED,NETTLE WEED,NETTLE WEED,NETTLE WEED,THISTLE WEED,THISTLE WEED,THISTLE WEED,THISTLE WEED","160,149.315472163355,184.74626920420516,180.24888271443282,172.37817811213148,176.28119828878053,205.64847704632365,198.62728734418428","8,7,6,5,4,3,2,1","WHEAT CROP,WHEAT CROP,WHEAT CROP,WHEAT CROP,WHEAT CROP,WHEAT CROP,WHEAT CROP,WHEAT CROP","0,0,0,0,0,0,0,0","20,20,20,20,20,20,20,20","10,10,10,10,10,10,10,10","20,20,20,20,20,20,20,20","20,20,20,20,20,20,20,20","20,20,20,20,20,20,20,20","0,0,0,0,0,0,0,0","20,20,20,20,20,20,20,20","10,10,10,10,10,10,10,10","20,20,20,20,20,20,20,20","20,20,20,20,20,20,20,20","20,20,20,20,20,20,20,20","0,0,0,1,0,0,0,1","2866,1253,3470,1489,1638,1003,1353,1744","-20.06368547850507,-19.10800544322532,0.07273750848973481,52.29524241888656,-0.3781676314265223,-15.221045005558151,12.748383436292311,40.99865746107827","-10.684527836645001,35.43079704085016,-4.497386489772342,-7.870704602301345,3.90302017664905,29.36727875754311,-7.021189702139373,10.531273770238665","0","0"
"586","86","text","0","89","1396187","0-0","","","","","","","","","","","","","","","","","","","","","","","","","","","","","","","","","","","","",""
"","","plant-game","0","90","1418585","0-0","","200","190","8","CORN CROP","Right","200","120","2","NETTLE WEED","experimental","32","1,2,3,4,5,6,7,8","120,115.46885652613234,140,122.74038973335068,185.8141010189408,197.50371749579637,214.40716778479617,216.86553595622695","2,1,6,5,4,3,2,1","NETTLE WEED,NETTLE WEED,THISTLE WEED,THISTLE WEED,THISTLE WEED,THISTLE WEED,THISTLE WEED,THISTLE WEED","190,207.421961460929,214.34577580653456,237.81765961164805,240.51386639331588,248.20389735188644,286.2050665861484,263.54786526746045","8,7,6,5,4,3,2,1","CORN CROP,CORN CROP,CORN CROP,CORN CROP,CORN CROP,CORN CROP,CORN CROP,CORN CROP","0,0,0,0,0,0,0,0","20,20,20,20,20,20,20,20","10,10,10,10,10,10,10,10","20,20,20,20,20,20,20,20","20,20,20,20,20,20,20,20","20,20,20,20,20,20,20,20","0,0,0,0,0,0,0,0","20,20,20,20,20,20,20,20","10,10,10,10,10,10,10,10","20,20,20,20,20,20,20,20","20,20,20,20,20,20,20,20","20,20,20,20,20,20,20,20","1,1,1,1,0,1,0,1","2541,613,2619,558,725,1157,1431,4754","-4.531143473867662,-0.7093109076174358,-17.259610266649318,63.073711285590115,11.689616476855583,16.90345028899981,2.458368171430771,21.747124065378905","17.421961460929005,6.923814345605571,23.471883805113503,2.69620678166784,7.690030958570554,38.00116923426194,-22.657201318687935,-5.250080282733638","0","0"
"2618","86","text","0","91","1421363","0-0","","","","","","","","","","","","","","","","","","","","","","","","","","","","","","","","","","","","",""
"","","plant-game","0","92","1438113","0-0","","200","190","8","CORN CROP","Left","200","160","2","THISTLE WEED","experimental","33","1,2,3,4,5,6,7,8","190,159.43600412883052,187.03300059091646,174.1968371833584,177.12083377525067,169.9340276870936,156.82914297816788,155.9163270682136","8,7,6,5,4,3,2,1","CORN CROP,CORN CROP,CORN CROP,CORN CROP,CORN CROP,CORN CROP,CORN CROP,CORN CROP","160,179.53203173830718,140,151.2842390170725,161.8103782956228,137.7692296087729,146.6951687396202,173.0485816419456","2,1,6,5,4,3,2,1","THISTLE WEED,THISTLE WEED,NETTLE WEED,NETTLE WEED,NETTLE WEED,NETTLE WEED,NETTLE WEED,NETTLE WEED","20,20,20,20,20,20,20,20","20,20,20,20,20,20,20,20","10,10,10,10,10,10,10,10","20,20,20,20,20,20,20,20","0,0,0,0,0,0,0,0","20,20,20,20,20,20,20,20","20,20,20,20,20,20,20,20","20,20,20,20,20,20,20,20","10,10,10,10,10,10,10,10","20,20,20,20,20,20,20,20","0,0,0,0,0,0,0,0","20,20,20,20,20,20,20,20","1,0,1,1,1,1,0,1","2054,496,2415,757,1209,808,806,1109","-30.563995871169478,27.596996462085926,-12.836163407558052,2.9239965918922497,-7.186806088157077,-13.104884708925715,-0.9128159099542827,-31.03524593594517","19.532031738307175,-10.497050624127873,11.284239017072498,10.526139278550279,-24.041148686849915,8.925939130847308,26.353412902325417,27.02775766837188","0","0"
"435","86","text","0","93","1438698","0-0","","","","","","","","","","","","","","","","","","","","","","","","","","","","","","","","","","","","",""
"","","plant-game","0","94","1498060","0-0","","200","190","8","CORN CROP","Left","200","160","4","THISTLE WEED","experimental","34","1,2,3,4,5,6,7,8","190,146.60180962451867,116.8661116242002,136.05873541585802,160.67780640311707,225.244924377725,185.08236837374974,205.77942839539264","8,7,6,5,4,3,2,1","CORN CROP,CORN CROP,CORN CROP,CORN CROP,CORN CROP,CORN CROP,CORN CROP,CORN CROP","160,181.65583833212958,189.682148098401,191.0423849458375,160,187.19639801744123,200.66367984689592,236.49264719103746","4,3,2,1,4,3,2,1","THISTLE WEED,THISTLE WEED,THISTLE WEED,THISTLE WEED,NETTLE WEED,NETTLE WEED,NETTLE WEED,NETTLE WEED","20,20,20,20,20,20,20,20","20,20,20,20,20,20,20,20","10,10,10,10,10,10,10,10","20,20,20,20,20,20,20,20","0,0,0,0,0,0,0,0","20,20,20,20,20,20,20,20","20,20,20,20,20,20,20,20","20,20,20,20,20,20,20,20","10,10,10,10,10,10,10,10","20,20,20,20,20,20,20,20","0,0,0,0,0,0,0,0","20,20,20,20,20,20,20,20","1,1,0,0,0,1,0,0","24560,1161,1860,6334,5373,2685,1564,3376","-43.39819037548133,-29.735698000318465,19.192623791657834,24.619070987259057,64.56711797460792,-40.16255600397525,20.697060021642883,29.451875887493756","21.655838332129584,8.026309766271412,1.360236847436525,-12.42699243026928,27.19639801744122,13.467281829454693,35.82896734414156,34.59942283938283","0","0"
"117","86","text","0","95","1498277","0-0","","","","","","","","","","","","","","","","","","","","","","","","","","","","","","","","","","","","",""
"","","plant-game","0","96","1516937","0-0","","200","120","4","CORN CROP","Right","200","180","8","THISTLE WEED","experimental","35","1,2,3,4,5,6,7,8","180,214.8485921449632,182.09817303298578,189.6789556176073,240.14915587131816,247.93189411310487,255.8259180396743,279.12631902280583","8,7,6,5,4,3,2,1","THISTLE WEED,THISTLE WEED,THISTLE WEED,THISTLE WEED,THISTLE WEED,THISTLE WEED,THISTLE WEED,THISTLE WEED","120,130.47259950682425,165.2982585817927,186.93249366037364,160,181.1996542136658,216.47252150072893,254.0412053968533","4,3,2,1,4,3,2,1","CORN CROP,CORN CROP,CORN CROP,CORN CROP,WHEAT CROP,WHEAT CROP,WHEAT CROP,WHEAT CROP","0,0,0,0,0,0,0,0","20,20,20,20,20,20,20,20","10,10,10,10,10,10,10,10","20,20,20,20,20,20,20,20","20,20,20,20,20,20,20,20","20,20,20,20,20,20,20,20","0,0,0,0,0,0,0,0","20,20,20,20,20,20,20,20","10,10,10,10,10,10,10,10","20,20,20,20,20,20,20,20","20,20,20,20,20,20,20,20","20,20,20,20,20,20,20,20","0,1,1,1,1,1,1,1","2309,862,792,1816,1071,2019,744,641","34.84859214496319,-32.7504191119774,7.580782584621531,50.47020025371084,7.782738241786705,7.89402392656941,23.300400983131546,57.77241696233935","10.472599506824253,34.825659074968456,21.634235078580936,19.236777251375948,21.199654213665806,35.272867287063114,37.568683896124355,8.857385625054533","0","0"
"538","86","text","0","97","1517635","0-0","","","","","","","","","","","","","","","","","","","","","","","","","","","","","","","","","","","","",""
"","","plant-game","0","98","1531186","0-0","","200","190","2","CORN CROP","Left","200","160","1","NETTLE WEED","experimental","36","1,2","190,187.84558220784226","2,1","CORN CROP,CORN CROP","160,190","1,1","NETTLE WEED,THISTLE WEED","20,20","20,20","10,10","20,20","0,0","20,20","20,20","20,20","10,10","20,20","0,0","20,20","1,0","2579,1386","-2.154417792157737,17.84406561496903","8.148882500694715,26.949101051114955","0","0"
"607","86","text","0","99","1531953","0-0","","","","","","","","","","","","","","","","","","","","","","","","","","","","","","","","","","","","",""
"","","plant-game","0","100","1544454","0-0","","200","190","2","CORN CROP","Right","200","190","2","NETTLE WEED","experimental","37","1,2","190,194.55534202039757","2,1","NETTLE WEED,NETTLE WEED","190,211.3910213269922","2,1","CORN CROP,CORN CROP","0,0","20,20","10,10","20,20","20,20","20,20","0,0","20,20","10,10","20,20","20,20","20,20","1,1","2706,4454","4.555342020397568,45.338168718539606","21.39102132699218,36.534575565449686","0","0"
"530","86","text","0","101","1545114","0-0","","","","","","","","","","","","","","","","","","","","","","","","","","","","","","","","","","","","",""
"","","plant-game","0","102","1562481","0-0","","200","190","4","WHEAT CROP","Right","200","120","2","NETTLE WEED","experimental","38","1,2,3,4","120,121.0569082093503,180,177.43599818353908","2,1,2,1","NETTLE WEED,NETTLE WEED,THISTLE WEED,THISTLE WEED","190,223.60386391317374,272.04675255928083,270.4809410898879","4,3,2,1","WHEAT CROP,WHEAT CROP,WHEAT CROP,WHEAT CROP","0,0,0,0","20,20,20,20","10,10,10,10","20,20,20,20","20,20,20,20","20,20,20,20","0,0,0,0","20,20,20,20","10,10,10,10","20,20,20,20","20,20,20,20","20,20,20,20","1,1,0,0","1965,1742,4449,1242","1.05690820935029,50.23018800603366,-2.564001816460922,29.05370029598707","33.60386391317374,48.442888646107086,-1.5658114693929395,1.4412258104688325","0","0"
"673","86","text","0","103","1563319","0-0","","","","","","","","","","","","","","","","","","","","","","","","","","","","","","","","","","","","",""
"","","plant-game","0","104","1593473","0-0","","200","120","4","WHEAT CROP","Left","200","190","2","THISTLE WEED","experimental","39","1,2,3,4","120,140.86144868580658,160.8843613066415,141.42429153831395","4,3,2,1","WHEAT CROP,WHEAT CROP,WHEAT CROP,WHEAT CROP","190,150.2147580119677,180,216.68650669413705","2,1,2,1","THISTLE WEED,THISTLE WEED,NETTLE WEED,NETTLE WEED","20,20,20,20","20,20,20,20","10,10,10,10","20,20,20,20","0,0,0,0","20,20,20,20","20,20,20,20","20,20,20,20","10,10,10,10","20,20,20,20","0,0,0,0","20,20,20,20","1,0,0,1","12180,3592,3473,2963","20.861448685806586,20.022912620834926,-19.460069768327536,26.15795497901918","-39.78524198803231,1.7563513740572496,36.686506694137044,-15.353258800821568","1","0"
"196","86","text","0","105","1593849","0-0","","","","","","","","","","","","","","","","","","","","","","","","","","","","","","","","","","","","",""
"","","plant-game","0","106","1608307","0-0","","200","180","2","WHEAT CROP","Left","200","120","8","THISTLE WEED","experimental","40","1,2,3,4,5,6,7,8","180,196.20444286163612,140,168.46346108197483,188.4466255104822,197.99556087530678,184.5426856772517,186.82398444218325","2,1,6,5,4,3,2,1","WHEAT CROP,WHEAT CROP,CORN CROP,CORN CROP,CORN CROP,CORN CROP,CORN CROP,CORN CROP","120,159.99485953487869,199.88116749769267,215.93131888196694,213.04815586535065,227.6071994610473,224.27392596086153,249.32485749321984","8,7,6,5,4,3,2,1","THISTLE WEED,THISTLE WEED,THISTLE WEED,THISTLE WEED,THISTLE WEED,THISTLE WEED,THISTLE WEED,THISTLE WEED","20,20,20,20,20,20,20,20","20,20,20,20,20,20,20,20","10,10,10,10,10,10,10,10","20,20,20,20,20,20,20,20","0,0,0,0,0,0,0,0","20,20,20,20,20,20,20,20","20,20,20,20,20,20,20,20","20,20,20,20,20,20,20,20","10,10,10,10,10,10,10,10","20,20,20,20,20,20,20,20","0,0,0,0,0,0,0,0","20,20,20,20,20,20,20,20","0,0,1,0,0,1,0,1","1200,156,1855,491,647,599,695,964","16.204442861636135,30.173134178657932,28.46346108197483,19.983164428507365,9.548935364824583,-13.452875198055072,2.2812987649315204,24.55442836542236","39.9948595348787,39.88630796281399,16.05015138427428,-2.8831630166162867,14.559043595696643,-3.333273500185751,25.05093153235832,-16.611230089129805","0","0"
"505","86","text","0","107","1608927","0-0","","","","","","","","","","","","","","","","","","","","","","","","","","","","","","","","","","","","",""
"","","plant-game","0","108","1614282","0-0","","200","180","1","WHEAT CROP","Left","200","120","1","THISTLE WEED","experimental","41","1","180","1","WHEAT CROP","120","1","THISTLE WEED","20","20","10","20","0","20","20","20","10","20","0","20","0","1535","30.803607047313122","35.51610496339721","0","0"
"765","86","text","0","109","1615175","0-0","","","","","","","","","","","","","","","","","","","","","","","","","","","","","","","","","","","","",""
"","","plant-game","0","110","1632778","0-0","","200","160","2","WHEAT CROP","Right","200","190","8","THISTLE WEED","experimental","42","1,2,3,4,5,6,7,8","190,178.0124677162258,173.6100309180738,189.55249242335813,205.12497993175916,209.99323246716006,200.32107061940707,303.7973706316732","8,7,6,5,4,3,2,1","THISTLE WEED,THISTLE WEED,THISTLE WEED,THISTLE WEED,THISTLE WEED,THISTLE WEED,THISTLE WEED,THISTLE WEED","160,182.6571681672745,140,148.45431786315032,110.0485570517208,135.28412070817737,178.67677486302526,184.9434392582842","2,1,6,5,4,3,2,1","WHEAT CROP,WHEAT CROP,CORN CROP,CORN CROP,CORN CROP,CORN CROP,CORN CROP,CORN CROP","0,0,0,0,0,0,0,0","20,20,20,20,20,20,20,20","10,10,10,10,10,10,10,10","20,20,20,20,20,20,20,20","20,20,20,20,20,20,20,20","20,20,20,20,20,20,20,20","0,0,0,0,0,0,0,0","20,20,20,20,20,20,20,20","10,10,10,10,10,10,10,10","20,20,20,20,20,20,20,20","20,20,20,20,20,20,20,20","20,20,20,20,20,20,20,20","1,0,1,0,1,1,1,1","1611,1275,923,664,575,775,1094,2739","-11.987532283774193,-4.402436798152037,15.942461505284331,15.572487508401034,4.868252535400902,-9.672161847752996,103.47630001226608,10.143512137924152","22.6571681672745,-11.31376440340949,8.454317863150319,-38.405760811429516,25.235563656456552,43.3926541548479,6.266664395258935,16.37580042022483","0","0"
"502","86","text","0","111","1633399","0-0","","","","","","","","","","","","","","","","","","","","","","","","","","","","","","","","","","","","",""
"","","plant-game","0","112","1681932","0-0","","200","120","1","WHEAT CROP","Right","200","180","4","THISTLE WEED","experimental","43","1,2,3,4","180,183.2034343435912,182.33185820339816,190.46683966935447","4,3,2,1","THISTLE WEED,THISTLE WEED,THISTLE WEED,THISTLE WEED","120,170,162.04216472137432,202.32344756715366","1,3,2,1","WHEAT CROP,CORN CROP,CORN CROP,CORN CROP","0,0,0,0","20,20,20,20","10,10,10,10","20,20,20,20","20,20,20,20","20,20,20,20","0,0,0,0","20,20,20,20","10,10,10,10","20,20,20,20","20,20,20,20","20,20,20,20","0,1,1,0","38053,727,771,2490","3.2034343435912027,-0.8715761401930493,8.134981465956304,4.714510683538974","-5.034274575413827,-7.957835278625666,40.28128284577933,7.1060044677527126","0","0"
"534","86","text","0","113","1682596","0-0","","","","","","","","","","","","","","","","","","","","","","","","","","","","","","","","","","","","",""
"","","plant-game","0","114","1701417","0-0","","200","160","4","CORN CROP","Right","200","120","8","THISTLE WEED","experimental","44","1,2,3,4,5,6,7,8","120,131.6744359299306,160.8447417235951,153.22746356720216,175.3295705419721,184.32412251252094,178.65862792816296,201.7681242301424","8,7,6,5,4,3,2,1","THISTLE WEED,THISTLE WEED,THISTLE WEED,THISTLE WEED,THISTLE WEED,THISTLE WEED,THISTLE WEED,THISTLE WEED","160,196.1458412897896,213.900797627537,193.4165100730886,160,151.40744437726818,186.41460167100763,236.7834597711885","4,3,2,1,4,3,2,1","CORN CROP,CORN CROP,CORN CROP,CORN CROP,WHEAT CROP,WHEAT CROP,WHEAT CROP,WHEAT CROP","0,0,0,0,0,0,0,0","20,20,20,20,20,20,20,20","10,10,10,10,10,10,10,10","20,20,20,20,20,20,20,20","20,20,20,20,20,20,20,20","20,20,20,20,20,20,20,20","0,0,0,0,0,0,0,0","20,20,20,20,20,20,20,20","10,10,10,10,10,10,10,10","20,20,20,20,20,20,20,20","20,20,20,20,20,20,20,20","20,20,20,20,20,20,20,20","1,1,0,1,1,1,1,0","1333,698,803,1339,1395,1142,2312,2346","11.674435929930606,29.170305793664475,-7.617278156392942,22.10210697476994,8.994551970548862,-5.665494584357987,23.109496301979433,-7.593048960890133","36.14584128978959,17.75495633774742,-20.484287554448407,2.993970738467688,-8.592555622731808,35.00715729373947,50.368858100180866,29.812055207356817","0","0"
"94","86","text","0","115","1701611","0-0","","","","","","","","","","","","","","","","","","","","","","","","","","","","","","","","","","","","",""
"","","plant-game","0","116","1712480","0-0","","200","120","1","CORN CROP","Right","200","160","4","THISTLE WEED","experimental","45","1,2,3,4","160,160.79099541038812,237.3271837225738,231.93681462769882","4,3,2,1","THISTLE WEED,THISTLE WEED,THISTLE WEED,THISTLE WEED","120,170,185.9680532638282,162.50875205204244","1,3,2,1","CORN CROP,WHEAT CROP,WHEAT CROP,WHEAT CROP","0,0,0,0","20,20,20,20","10,10,10,10","20,20,20,20","20,20,20,20","20,20,20,20","0,0,0,0","20,20,20,20","10,10,10,10","20,20,20,20","20,20,20,20","20,20,20,20","1,1,0,0","1119,1484,738,411","0.7909954103881098,76.53618831218569,-5.390369094874993,8.041947194681736","8.995555952290054,15.968053263828212,-23.459301211785764,-4.987129099553064","0","0"
"10","86","text","0","117","1712697","0-0","","","","","","","","","","","","","","","","","","","","","","","","","","","","","","","","","","","","",""
"","","plant-game","0","118","1723241","0-0","","200","120","2","WHEAT CROP","Left","200","190","8","THISTLE WEED","experimental","46","1,2,3,4,5,6,7,8","120,113.38355683517806,140,151.52855072413658,164.92831353073166,151.4966155806409,165.95440586834727,192.07966809011924","2,1,6,5,4,3,2,1","WHEAT CROP,WHEAT CROP,CORN CROP,CORN CROP,CORN CROP,CORN CROP,CORN CROP,CORN CROP","190,176.8094653778815,218.84505875210115,219.09434935190112,237.11180789898702,263.3489320492763,291.7327329476913,248.64160883030578","8,7,6,5,4,3,2,1","THISTLE WEED,THISTLE WEED,THISTLE WEED,THISTLE WEED,THISTLE WEED,THISTLE WEED,THISTLE WEED,THISTLE WEED","20,20,20,20,20,20,20,20","20,20,20,20,20,20,20,20","10,10,10,10,10,10,10,10","20,20,20,20,20,20,20,20","0,0,0,0,0,0,0,0","20,20,20,20,20,20,20,20","20,20,20,20,20,20,20,20","20,20,20,20,20,20,20,20","10,10,10,10,10,10,10,10","20,20,20,20,20,20,20,20","0,0,0,0,0,0,0,0","20,20,20,20,20,20,20,20","1,1,0,0,0,0,0,0","514,1635,950,394,305,348,120,54","-6.616443164821949,0.9846480253158607,11.52855072413657,13.399762806595088,-13.431697950090744,14.45779028770637,26.12526222177199,20.4564984439518","-13.190534622118495,42.03559337421964,0.24929059979996282,18.017458547085916,26.23712415028929,28.38380089841501,-43.09112411738554,30.612251477910288","0","0"
"265","86","text","0","119","1723616","0-0","","","","","","","","","","","","","","","","","","","","","","","","","","","","","","","","","","","","",""
"","","plant-game","0","120","1733461","0-0","","200","160","8","WHEAT CROP","Right","200","120","8","NETTLE WEED","experimental","47","1,2,3,4,5,6,7,8","120,131.71559281750132,168.8981810655638,182.52246752360907,199.18813352982497,216.79947346583128,234.2406805903196,253.41659533586466","8,7,6,5,4,3,2,1","NETTLE WEED,NETTLE WEED,NETTLE WEED,NETTLE WEED,NETTLE WEED,NETTLE WEED,NETTLE WEED,NETTLE WEED","160,179.99334307925074,186.1651408756132,172.37196522792183,160.69455879008342,168.0311821469206,156.2790319123635,153.93810556178974","8,7,6,5,4,3,2,1","WHEAT CROP,WHEAT CROP,WHEAT CROP,WHEAT CROP,WHEAT CROP,WHEAT CROP,WHEAT CROP,WHEAT CROP","0,0,0,0,0,0,0,0","20,20,20,20,20,20,20,20","10,10,10,10,10,10,10,10","20,20,20,20,20,20,20,20","20,20,20,20,20,20,20,20","20,20,20,20,20,20,20,20","0,0,0,0,0,0,0,0","20,20,20,20,20,20,20,20","10,10,10,10,10,10,10,10","20,20,20,20,20,20,20,20","20,20,20,20,20,20,20,20","20,20,20,20,20,20,20,20","1,1,0,1,0,0,1,0","601,67,70,10,455,3025,489,1172","11.715592817501323,37.18258824806246,13.624286458045265,16.66566600621591,17.61133993600633,17.44120712448833,19.17591474554505,-9.105322541631589","19.993343079250742,6.171797796362446,-13.793175647691346,-11.677406437838414,7.336623356837167,-11.752150234557082,-2.34092635057376,-5.191847918441528","0","0"
"379","86","text","0","121","1733990","0-0","","","","","","","","","","","","","","","","","","","","","","","","","","","","","","","","","","","","",""
"","","plant-game","0","122","1750847","0-0","","200","160","4","WHEAT CROP","Left","200","120","1","NETTLE WEED","experimental","48","1,2,3,4","160,149.30614484959744,198.1087999278024,217.63932195186948","4,3,2,1","WHEAT CROP,WHEAT CROP,WHEAT CROP,WHEAT CROP","120,170,179.06461285243475,209.7038365733312","1,3,2,1","NETTLE WEED,THISTLE WEED,THISTLE WEED,THISTLE WEED","20,20,20,20","20,20,20,20","10,10,10,10","20,20,20,20","0,0,0,0","20,20,20,20","20,20,20,20","20,20,20,20","10,10,10,10","20,20,20,20","0,0,0,0","20,20,20,20","0,0,0,1","568,4968,1206,2201","-10.693855150402555,48.80265507820496,19.530522024067082,-22.459864382351583","-6.19878951019124,9.064612852434742,30.63922372089643,0.6630207307380965","0","0"
"14902","86","text","0","123","1765858","0-0","","","","","","","","","","","","","","","","","","","","","","","","","","","","","","","","","","","","",""
"","","plant-game","0","124","1776967","0-0","","200","160","1","CORN CROP","Left","200","190","2","THISTLE WEED","experimental","49","1,2","160,190","1,1","CORN CROP,WHEAT CROP","190,182.43717704665087","2,1","THISTLE WEED,THISTLE WEED","20,20","20,20","10,10","20,20","0,0","20,20","20,20","20,20","10,10","20,20","0,0","20,20","1,0","1582,3349","9.984588607675505,-12.830695232126736","-7.562822953349135,35.092249595916655","0","0"
"1150","86","text","0","125","1778212","0-0","","","","","","","","","","","","","","","","","","","","","","","","","","","","","","","","","","","","",""
"","","plant-game","0","126","1798829","0-0","","200","160","4","WHEAT CROP","Left","200","120","4","NETTLE WEED","experimental","50","1,2,3,4","160,185.28545274299887,181.69255607899058,219.5027441129001","4,3,2,1","WHEAT CROP,WHEAT CROP,WHEAT CROP,WHEAT CROP","120,111.04469570777222,124.23133995400482,116.15857173272572","4,3,2,1","NETTLE WEED,NETTLE WEED,NETTLE WEED,NETTLE WEED","20,20,20,20","20,20,20,20","10,10,10,10","20,20,20,20","0,0,0,0","20,20,20,20","20,20,20,20","20,20,20,20","10,10,10,10","20,20,20,20","0,0,0,0","20,20,20,20","1,1,0,0","1004,565,1263,11625","25.285452742998864,-3.592896664008282,37.810188033909526,23.935229763514485","-8.955304292227774,13.186644246232596,-8.072768221279109,52.01882710116092","0","0"
"539","86","text","0","127","1799508","0-0","","","","","","","","","","","","","","","","","","","","","","","","","","","","","","","","","","","","",""
"","","plant-game","0","128","1814103","0-0","","200","180","1","WHEAT CROP","Right","200","160","2","NETTLE WEED","experimental","51","1,2","160,165.37831089982808","2,1","NETTLE WEED,NETTLE WEED","180,190","1,1","WHEAT CROP,CORN CROP","0,0","20,20","10,10","20,20","20,20","20,20","0,0","20,20","10,10","20,20","20,20","20,20","1,1","2813,1639","5.378310899828067,19.230843940623412","16.38283070933251,22.218680881600555","0","0"
"414","86","text","0","129","1814680","0-0","","","","","","","","","","","","","","","","","","","","","","","","","","","","","","","","","","","","",""
"","","plant-game","0","130","1836287","0-0","","200","190","2","WHEAT CROP","Right","200","120","8","THISTLE WEED","experimental","52","1,2,3,4,5,6,7,8","120,144.98827719611643,176.37565072821127,183.95545638097371,186.069498913872,217.57703103975032,221.10175952823994,217.23708905461737","8,7,6,5,4,3,2,1","THISTLE WEED,THISTLE WEED,THISTLE WEED,THISTLE WEED,THISTLE WEED,THISTLE WEED,THISTLE WEED,THISTLE WEED","190,212.99785883439924,140,133.87807776897557,105.1419931526803,97.61913753357632,73.47344777120719,109.33754112663493","2,1,6,5,4,3,2,1","WHEAT CROP,WHEAT CROP,CORN CROP,CORN CROP,CORN CROP,CORN CROP,CORN CROP,CORN CROP","0,0,0,0,0,0,0,0","20,20,20,20,20,20,20,20","10,10,10,10,10,10,10,10","20,20,20,20,20,20,20,20","20,20,20,20,20,20,20,20","20,20,20,20,20,20,20,20","0,0,0,0,0,0,0,0","20,20,20,20,20,20,20,20","10,10,10,10,10,10,10,10","20,20,20,20,20,20,20,20","20,20,20,20,20,20,20,20","20,20,20,20,20,20,20,20","1,1,1,0,0,0,1,1","1278,1805,1767,1355,1359,2010,2076,2050","24.98827719611642,31.387373532094852,7.579805652762452,2.1140425328982886,31.50753212587833,3.524728488489614,-3.864670473622578,15.390872035579338","22.99785883439925,21.336327397613122,-6.121922231024442,-28.73608461629528,-7.5228556191039795,-24.145689762369127,35.86409335542774,-14.140320406388376","0","0"
"508","86","text","0","131","1836935","0-0","","","","","","","","","","","","","","","","","","","","","","","","","","","","","","","","","","","","",""
"","","plant-game","0","132","1848288","0-0","","200","120","1","CORN CROP","Left","200","190","2","NETTLE WEED","experimental","53","1,2","120,190","1,1","CORN CROP,WHEAT CROP","190,180.71362300725457","2,1","NETTLE WEED,NETTLE WEED","20,20","20,20","10,10","20,20","0,0","20,20","20,20","20,20","10,10","20,20","0,0","20,20","1,1","1841,1160","0.2938972168209247,1.0727834300127672","-9.286376992745431,15.911580869122401","0","0"
"1335","86","text","0","133","1849748","0-0","","","","","","","","","","","","","","","","","","","","","","","","","","","","","","","","","","","","",""
"","","plant-game","0","134","1865314","0-0","","200","120","4","CORN CROP","Right","200","120","1","NETTLE WEED","experimental","54","1,2,3,4","120,170,173.27659233611573,178.80376857355085","1,3,2,1","NETTLE WEED,THISTLE WEED,THISTLE WEED,THISTLE WEED","120,151.79279146129082,150.05708718489146,154.47599896429406","4,3,2,1","CORN CROP,CORN CROP,CORN CROP,CORN CROP","0,0,0,0","20,20,20,20","10,10,10,10","20,20,20,20","20,20,20,20","20,20,20,20","0,0,0,0","20,20,20,20","10,10,10,10","20,20,20,20","20,20,20,20","20,20,20,20","0,1,0,1","2955,3020,691,1084","14.565550877982732,3.27659233611573,5.527176237435121,-0.9502168277347778","31.79279146129083,-1.7357042763993675,4.418911779402604,16.433720778491665","0","0"
"106","86","text","0","135","1865545","0-0","","","","","","","","","","","","","","","","","","","","","","","","","","","","","","","","","","","","",""
"","","plant-game","0","136","1876908","0-0","","200","190","4","CORN CROP","Right","200","120","4","NETTLE WEED","experimental","55","1,2,3,4","120,148.45409435771433,128.61049919037808,125.475511072872","4,3,2,1","NETTLE WEED,NETTLE WEED,NETTLE WEED,NETTLE WEED","190,230.19448410060488,206.7361658580939,205.56047581637017","4,3,2,1","CORN CROP,CORN CROP,CORN CROP,CORN CROP","0,0,0,0","20,20,20,20","10,10,10,10","20,20,20,20","20,20,20,20","20,20,20,20","0,0,0,0","20,20,20,20","10,10,10,10","20,20,20,20","20,20,20,20","20,20,20,20","1,0,1,0","440,2457,2075,2836","28.45409435771432,-19.84359516733624,-3.13498811750609,16.025528931516334","40.194484100604896,-23.458318242510984,-1.1756900417237226,20.378080154992375","0","0"
"551","86","text","0","137","1877589","0-0","","","","","","","","","","","","","","","","","","","","","","","","","","","","","","","","","","","","",""
"","","plant-game","0","138","1898796","0-0","","200","160","2","WHEAT CROP","Left","200","180","4","THISTLE WEED","experimental","56","1,2,3,4","160,172.4005444653233,180,161.4947366705106","2,1,2,1","WHEAT CROP,WHEAT CROP,CORN CROP,CORN CROP","180,171.44753007259777,196.20917575208,187.3866015138071","4,3,2,1","THISTLE WEED,THISTLE WEED,THISTLE WEED,THISTLE WEED","20,20,20,20","20,20,20,20","10,10,10,10","20,20,20,20","0,0,0,0","20,20,20,20","20,20,20,20","20,20,20,20","10,10,10,10","20,20,20,20","0,0,0,0","20,20,20,20","1,0,1,0","2111,1396,2015,5745","12.400544465323291,-11.349229414895802,-18.505263329489395,9.286233447342344","-8.552469927402225,24.761645679482235,-8.822574238272901,38.79510412820742","0","0"
"626","86","text","0","139","1899572","0-0","","","","","","","","","","","","","","","","","","","","","","","","","","","","","","","","","","","","",""
"","","plant-game","0","140","1928158","0-0","","200","120","8","WHEAT CROP","Left","200","120","2","THISTLE WEED","experimental","57","1,2,3,4,5,6,7,8","120,129.59591820124714,130.3706102084844,142.56589195288302,148.83140933813235,146.91931356132932,150.88010916865912,164.46134926603978","8,7,6,5,4,3,2,1","WHEAT CROP,WHEAT CROP,WHEAT CROP,WHEAT CROP,WHEAT CROP,WHEAT CROP,WHEAT CROP,WHEAT CROP","120,120.80121935797534,140,175.46880260193123,185.7645180275846,196.15205625694517,167.68130193665706,213.01991743758103","2,1,6,5,4,3,2,1","THISTLE WEED,THISTLE WEED,NETTLE WEED,NETTLE WEED,NETTLE WEED,NETTLE WEED,NETTLE WEED,NETTLE WEED","20,20,20,20,20,20,20,20","20,20,20,20,20,20,20,20","10,10,10,10,10,10,10,10","20,20,20,20,20,20,20,20","0,0,0,0,0,0,0,0","20,20,20,20,20,20,20,20","20,20,20,20,20,20,20,20","20,20,20,20,20,20,20,20","10,10,10,10,10,10,10,10","20,20,20,20,20,20,20,20","0,0,0,0,0,0,0,0","20,20,20,20,20,20,20,20","0,0,0,1,1,1,0,0","3401,1252,4821,1557,2685,1183,3384,1571","9.595918201247148,0.7746920072372596,12.195281744398626,6.265517385249337,-1.9120957768030291,3.9607956073297883,13.581240097380658,47.44596440077573","0.8012193579753415,-5.669133011106208,35.46880260193122,10.295715425653345,10.387538229360576,-28.470754320288115,45.33861550092396,18.365311198751183","0","0"
"605","86","text","0","141","1928893","0-0","","","","","","","","","","","","","","","","","","","","","","","","","","","","","","","","","","","","",""
"","","plant-game","0","142","1985481","0-0","","200","120","1","CORN CROP","Right","200","120","2","THISTLE WEED","experimental","58","1,2","120,144.80782993940971","2,1","THISTLE WEED,THISTLE WEED","120,190","1,1","CORN CROP,WHEAT CROP","0,0","20,20","10,10","20,20","20,20","20,20","0,0","20,20","10,10","20,20","20,20","20,20","1,1","47069,1140","24.8078299394097,21.24681630208601","60.7758899452939,28.112928862917343","0","0"
"757","86","text","0","143","1986388","0-0","","","","","","","","","","","","","","","","","","","","","","","","","","","","","","","","","","","","",""
"","","plant-game","0","144","1998821","0-0","","200","190","4","CORN CROP","Right","200","180","2","NETTLE WEED","experimental","59","1,2,3,4","180,207.39484426223558,180,187.33304965338007","2,1,2,1","NETTLE WEED,NETTLE WEED,THISTLE WEED,THISTLE WEED","190,223.23800447446814,231.26434776735135,234.62951580172643","4,3,2,1","CORN CROP,CORN CROP,CORN CROP,CORN CROP","0,0,0,0","20,20,20,20","10,10,10,10","20,20,20,20","20,20,20,20","20,20,20,20","0,0,0,0","20,20,20,20","10,10,10,10","20,20,20,20","20,20,20,20","20,20,20,20","1,0,0,0","1317,1916,1294,1405","27.39484426223557,2.6594950181022154,7.333049653380065,20.43236635455738","33.23800447446814,8.026343292883215,3.365168034375066,11.760927564023731","0","0"
"452","86","text","0","145","1999403","0-0","","","","","","","","","","","","","","","","","","","","","","","","","","","","","","","","","","","","",""
"","","plant-game","0","146","2012368","0-0","","200","160","8","CORN CROP","Left","200","120","4","NETTLE WEED","experimental","60","1,2,3,4,5,6,7,8","160,182.97591585466756,207.7722154070354,206.3319081290073,254.52418692570612,269.0991384634241,282.5978418820524,260.6486085874129","8,7,6,5,4,3,2,1","CORN CROP,CORN CROP,CORN CROP,CORN CROP,CORN CROP,CORN CROP,CORN CROP,CORN CROP","120,130.0281091966215,145.8940781483975,162.49683719195383,160,133.83398875298033,142.04543086743297,149.3631357901872","4,3,2,1,4,3,2,1","NETTLE WEED,NETTLE WEED,NETTLE WEED,NETTLE WEED,THISTLE WEED,THISTLE WEED,THISTLE WEED,THISTLE WEED","20,20,20,20,20,20,20,20","20,20,20,20,20,20,20,20","10,10,10,10,10,10,10,10","20,20,20,20,20,20,20,20","0,0,0,0,0,0,0,0","20,20,20,20,20,20,20,20","20,20,20,20,20,20,20,20","20,20,20,20,20,20,20,20","10,10,10,10,10,10,10,10","20,20,20,20,20,20,20,20","0,0,0,0,0,0,0,0","20,20,20,20,20,20,20,20","1,0,1,0,1,1,1,1","787,347,448,360,1234,491,1843,699","22.97591585466755,24.79629955236783,-1.4403072780280743,48.192278796698815,14.574951537717958,13.498703418628333,-21.949233294639512,3.2557104256928975","10.028109196621493,15.865968951775999,16.60275904355631,7.058448552737586,-26.166011247019657,8.211442114452645,7.317704922754208,16.901570102310675","0","0"
"491","86","text","0","147","2012979","0-0","","","","","","","","","","","","","","","","","","","","","","","","","","","","","","","","","","","","",""
"","","plant-game","0","148","2036169","0-0","","200","180","8","WHEAT CROP","Right","200","120","4","NETTLE WEED","experimental","61","1,2,3,4,5,6,7,8","120,135.62477102555627,203.54213159804007,230.20150923759974,160,186.30456727108134,161.427428859927,173.09839406849736","4,3,2,1,4,3,2,1","NETTLE WEED,NETTLE WEED,NETTLE WEED,NETTLE WEED,THISTLE WEED,THISTLE WEED,THISTLE WEED,THISTLE WEED","180,181.41999846267117,230.77480943105942,245.64792454868754,240.5060811039233,272.73680754390347,284.40299953833113,299.29512788103733","8,7,6,5,4,3,2,1","WHEAT CROP,WHEAT CROP,WHEAT CROP,WHEAT CROP,WHEAT CROP,WHEAT CROP,WHEAT CROP,WHEAT CROP","0,0,0,0,0,0,0,0","20,20,20,20,20,20,20,20","10,10,10,10,10,10,10,10","20,20,20,20,20,20,20,20","20,20,20,20,20,20,20,20","20,20,20,20,20,20,20,20","0,0,0,0,0,0,0,0","20,20,20,20,20,20,20,20","10,10,10,10,10,10,10,10","20,20,20,20,20,20,20,20","20,20,20,20,20,20,20,20","20,20,20,20,20,20,20,20","0,1,0,1,1,0,0,0","2111,732,1045,467,3356,921,2542,1226","15.624771025556266,67.9173605724838,26.65937763955968,-1.5924540620766265,26.304567271081332,-24.87713841115433,11.67096520857034,1.522673838452171","1.419998462671185,49.35481096838825,14.873115117628128,-5.141843444764259,32.23072643998016,11.666191994427686,14.892128342706181,-28.716495786094196","0","0"
"121","86","text","0","149","2036415","0-0","","","","","","","","","","","","","","","","","","","","","","","","","","","","","","","","","","","","",""
"","","plant-game","0","150","2051413","0-0","","200","160","4","WHEAT CROP","Right","200","190","2","THISTLE WEED","experimental","62","1,2,3,4","190,221.07383257434736,180,197.48759082634666","2,1,2,1","THISTLE WEED,THISTLE WEED,NETTLE WEED,NETTLE WEED","160,188.70386307035406,192.15995834530494,228.1481217969519","4,3,2,1","WHEAT CROP,WHEAT CROP,WHEAT CROP,WHEAT CROP","0,0,0,0","20,20,20,20","10,10,10,10","20,20,20,20","20,20,20,20","20,20,20,20","0,0,0,0","20,20,20,20","10,10,10,10","20,20,20,20","20,20,20,20","20,20,20,20","1,1,1,1","754,609,1959,1908","31.073832574347364,-3.643341968698497,17.48759082634665,35.68615393179924","28.70386307035407,3.4560952749508758,35.98816345164694,29.2305351904902","0","0"
"537","86","text","0","151","2052064","0-0","","","","","","","","","","","","","","","","","","","","","","","","","","","","","","","","","","","","",""
"","","plant-game","0","152","2063496","0-0","","200","120","2","CORN CROP","Right","200","180","8","NETTLE WEED","experimental","63","1,2,3,4,5,6,7,8","180,201.67311189781088,203.02956635679035,263.9406289399765,257.72997349425043,275.7484946458097,280.59311886843733,331.2720014864952","8,7,6,5,4,3,2,1","NETTLE WEED,NETTLE WEED,NETTLE WEED,NETTLE WEED,NETTLE WEED,NETTLE WEED,NETTLE WEED,NETTLE WEED","120,140.0758444356042,140,154.6481361307115,168.60125404878096,191.81609034362995,245.27948527853243,290.8663486407088","2,1,6,5,4,3,2,1","CORN CROP,CORN CROP,WHEAT CROP,WHEAT CROP,WHEAT CROP,WHEAT CROP,WHEAT CROP,WHEAT CROP","0,0,0,0,0,0,0,0","20,20,20,20,20,20,20,20","10,10,10,10,10,10,10,10","20,20,20,20,20,20,20,20","20,20,20,20,20,20,20,20","20,20,20,20,20,20,20,20","0,0,0,0,0,0,0,0","20,20,20,20,20,20,20,20","10,10,10,10,10,10,10,10","20,20,20,20,20,20,20,20","20,20,20,20,20,20,20,20","20,20,20,20,20,20,20,20","1,1,1,1,1,1,1,1","925,623,810,379,58,61,150,172","21.673111897810873,1.3564544589794707,60.911062583186094,-6.210655445726019,18.018521151559312,4.844624222627576,50.67888261805787,14.756630282543636","20.0758444356042,-1.647624600252584,14.648136130711498,13.953117918069479,23.214836294849,53.463394934902475,45.58686336217633,14.081802842030704","0","0"
"489","86","text","0","153","2064111","0-0","","","","","","","","","","","","","","","","","","","","","","","","","","","","","","","","","","","","",""
"","","plant-game","0","154","2075416","0-0","","200","190","1","WHEAT CROP","Right","200","120","2","THISTLE WEED","experimental","64","1,2","120,137.5199275291103","2,1","THISTLE WEED,THISTLE WEED","190,190","1,1","WHEAT CROP,CORN CROP","0,0","20,20","10,10","20,20","20,20","20,20","0,0","20,20","10,10","20,20","20,20","20,20","1,1","1461,1194","17.519927529110294,18.080628718327972","32.490868145792405,5.339458893716467","0","0"
"2362","86","text","0","155","2077968","0-0","","","","","","","","","","","","","","","","","","","","","","","","","","","","","","","","","","","","",""
"","","plant-game","0","156","2109984","0-0","","200","190","2","WHEAT CROP","Left","200","120","2","NETTLE WEED","experimental","65","1,2","190,201.64867464924362","2,1","WHEAT CROP,WHEAT CROP","120,154.37587539590754","2,1","NETTLE WEED,NETTLE WEED","20,20","20,20","10,10","20,20","0,0","20,20","20,20","20,20","10,10","20,20","0,0","20,20","0,0","26847,1898","11.648674649243608,51.26665331673094","34.375875395907535,31.623016282609495","0","0"
"567","86","text","0","157","2110641","0-0","","","","","","","","","","","","","","","","","","","","","","","","","","","","","","","","","","","","",""
"","","plant-game","0","158","2127303","0-0","","200","120","4","WHEAT CROP","Right","200","190","1","THISTLE WEED","experimental","66","1,2,3,4","190,170,174.69460941336337,216.9956146457232","1,3,2,1","THISTLE WEED,NETTLE WEED,NETTLE WEED,NETTLE WEED","120,113.37599048750192,154.29268327790837,190.80068661751997","4,3,2,1","WHEAT CROP,WHEAT CROP,WHEAT CROP,WHEAT CROP","0,0,0,0","20,20,20,20","10,10,10,10","20,20,20,20","20,20,20,20","20,20,20,20","0,0,0,0","20,20,20,20","10,10,10,10","20,20,20,20","20,20,20,20","20,20,20,20","0,1,1,0","3567,1723,2501,1405","2.3381813704526038,4.694609413363365,42.301005232359856,17.913805961416614","-6.62400951249807,40.91669279040644,36.508003339611605,22.665921271177965","0","0"
"40","86","text","0","159","2127423","0-0","","","","","","","","","","","","","","","","","","","","","","","","","","","","","","","","","","","","",""
"","","plant-game","0","160","2137517","0-0","","200","120","8","WHEAT CROP","Left","200","180","4","NETTLE WEED","experimental","67","1,2,3,4,5,6,7,8","120,120.1093877770424,121.19105814705962,120.55106826655503,118.20417584980163,118.45390771330828,124.99566552481375,116.1830375798089","8,7,6,5,4,3,2,1","WHEAT CROP,WHEAT CROP,WHEAT CROP,WHEAT CROP,WHEAT CROP,WHEAT CROP,WHEAT CROP,WHEAT CROP","180,199.00094699912717,243.32872965458637,268.3055301374945,160,171.0746179131166,207.65405034327728,199.4555178521275","4,3,2,1,4,3,2,1","NETTLE WEED,NETTLE WEED,NETTLE WEED,NETTLE WEED,THISTLE WEED,THISTLE WEED,THISTLE WEED,THISTLE WEED","20,20,20,20,20,20,20,20","20,20,20,20,20,20,20,20","10,10,10,10,10,10,10,10","20,20,20,20,20,20,20,20","0,0,0,0,0,0,0,0","20,20,20,20,20,20,20,20","20,20,20,20,20,20,20,20","20,20,20,20,20,20,20,20","10,10,10,10,10,10,10,10","20,20,20,20,20,20,20,20","0,0,0,0,0,0,0,0","20,20,20,20,20,20,20,20","1,0,1,0,1,0,1,0","381,441,461,266,1126,94,135,237","0.10938777704240185,1.0816703700172248,-0.6399898805045827,-2.3468924167534126,0.24973186350665416,6.541757811505457,-8.812627945004845,26.254078217559478","19.000946999127166,44.327782655459195,24.976800482908097,61.65554665606177,11.074617913116601,36.57943243016066,-8.198532491149761,-1.2001965860764052","0","0"
"1114","86","text","0","161","2138712","0-0","","","","","","","","","","","","","","","","","","","","","","","","","","","","","","","","","","","","",""
"","","plant-game","0","162","2155869","0-0","","200","160","1","WHEAT CROP","Right","200","190","8","NETTLE WEED","experimental","68","1,2,3,4,5,6,7,8","190,189.34290697495038,195.3652639960866,169.16112750726,153.3490314201379,138.86706411579118,140.3632281508784,115.88939674619078","8,7,6,5,4,3,2,1","NETTLE WEED,NETTLE WEED,NETTLE WEED,NETTLE WEED,NETTLE WEED,NETTLE WEED,NETTLE WEED,NETTLE WEED","160,130,155.1807144571509,163.7580653475634,210.94172917374803,241.74822859416585,282.41277975299954,281.5440491962713","1,7,6,5,4,3,2,1","WHEAT CROP,CORN CROP,CORN CROP,CORN CROP,CORN CROP,CORN CROP,CORN CROP,CORN CROP","0,0,0,0,0,0,0,0","20,20,20,20,20,20,20,20","10,10,10,10,10,10,10,10","20,20,20,20,20,20,20,20","20,20,20,20,20,20,20,20","20,20,20,20,20,20,20,20","0,0,0,0,0,0,0,0","20,20,20,20,20,20,20,20","10,10,10,10,10,10,10,10","20,20,20,20,20,20,20,20","20,20,20,20,20,20,20,20","20,20,20,20,20,20,20,20","1,1,0,0,0,0,0,0","624,800,769,1721,730,1555,1632,1123","-0.6570930250496261,6.022357021136228,-26.204136488826602,-15.812096087122116,-14.481967304346723,1.4961640350872227,-24.473831404687616,-17.70152513635396","3.060052573652065,25.180714457150916,8.577350890412465,47.18366382618464,30.806499420417826,40.66455115883366,-0.8687305567282421,-0.2816525505151509","0","0"
"648","86","text","0","163","2156647","0-0","","","","","","","","","","","","","","","","","","","","","","","","","","","","","","","","","","","","",""
"","","plant-game","0","164","2183236","0-0","","200","120","8","WHEAT CROP","Left","200","190","4","NETTLE WEED","experimental","69","1,2,3,4,5,6,7,8","120,134.23376872369283,149.6234294956707,147.47034620030072,152.1958529339766,154.27502841129586,121.81047199887053,99.95873440080535","8,7,6,5,4,3,2,1","WHEAT CROP,WHEAT CROP,WHEAT CROP,WHEAT CROP,WHEAT CROP,WHEAT CROP,WHEAT CROP,WHEAT CROP","190,190.29522416597297,153.5619751510814,144.63875283100677,160,190.2327632498291,201.40780820358617,220.1622518363127","4,3,2,1,4,3,2,1","NETTLE WEED,NETTLE WEED,NETTLE WEED,NETTLE WEED,THISTLE WEED,THISTLE WEED,THISTLE WEED,THISTLE WEED","20,20,20,20,20,20,20,20","20,20,20,20,20,20,20,20","10,10,10,10,10,10,10,10","20,20,20,20,20,20,20,20","0,0,0,0,0,0,0,0","20,20,20,20,20,20,20,20","20,20,20,20,20,20,20,20","20,20,20,20,20,20,20,20","10,10,10,10,10,10,10,10","20,20,20,20,20,20,20,20","0,0,0,0,0,0,0,0","20,20,20,20,20,20,20,20","1,1,1,0,0,1,0,1","2395,2269,1943,4147,3719,1880,956,1657","14.233768723692828,15.389660771977884,-2.1530832953699908,4.725506733675868,2.0791754773192537,-32.46455641242533,-21.851737598065178,24.303757207855842","0.2952241659729687,-36.73324901489154,-8.923222320074649,1.2222628547626648,30.232763249829105,11.17504495375706,18.754443632726534,-23.68831034459767","1","0"
"83","86","text","0","165","2183399","0-0","","","","","","","","","","","","","","","","","","","","","","","","","","","","","","","","","","","","",""
"","","plant-game","0","166","2196616","0-0","","200","120","4","WHEAT CROP","Right","200","160","2","NETTLE WEED","experimental","70","1,2,3,4","160,160.0242556448651,180,217.28368475369507","2,1,2,1","NETTLE WEED,NETTLE WEED,THISTLE WEED,THISTLE WEED","120,107.62903000160559,116.59130781569836,152.32893030947608","4,3,2,1","WHEAT CROP,WHEAT CROP,WHEAT CROP,WHEAT CROP","0,0,0,0","20,20,20,20","10,10,10,10","20,20,20,20","20,20,20,20","20,20,20,20","0,0,0,0","20,20,20,20","10,10,10,10","20,20,20,20","20,20,20,20","20,20,20,20","0,0,1,0","1790,506,846,3576","0.02425564486508314,-7.909415956518582,37.283684753695084,22.150818643730794","-12.370969998394411,8.962277814092774,35.73762249377772,0.3841533389494633","1","0"
"261","86","text","0","167","2196927","0-0","","","","","","","","","","","","","","","","","","","","","","","","","","","","","","","","","","","","",""
"","","plant-game","0","168","2204056","0-0","","200","180","2","WHEAT CROP","Left","200","190","2","NETTLE WEED","experimental","71","1,2","180,197.08608755845836","2,1","WHEAT CROP,WHEAT CROP","190,183.28936217985236","2,1","NETTLE WEED,NETTLE WEED","20,20","20,20","10,10","20,20","0,0","20,20","20,20","20,20","10,10","20,20","0,0","20,20","1,1","2079,1992","17.086087558458363,6.340601271727305","-6.710637820147633,10.783020026740125","0","0"
"270","86","text","0","169","2204396","0-0","","","","","","","","","","","","","","","","","","","","","","","","","","","","","","","","","","","","",""
"","","plant-game","0","170","2212022","0-0","","200","120","4","CORN CROP","Left","200","160","8","THISTLE WEED","experimental","72","1,2,3,4,5,6,7,8","120,136.31641501229018,149.94119717084283,161.92875593325212,160,131.9061903453247,146.92946050334334,132.58450746556395","4,3,2,1,4,3,2,1","CORN CROP,CORN CROP,CORN CROP,CORN CROP,WHEAT CROP,WHEAT CROP,WHEAT CROP,WHEAT CROP","160,168.63562015188603,204.41279469408343,201.7875867465158,227.3747113479432,253.37468075714338,285.8522211413795,284.98294120448446","8,7,6,5,4,3,2,1","THISTLE WEED,THISTLE WEED,THISTLE WEED,THISTLE WEED,THISTLE WEED,THISTLE WEED,THISTLE WEED,THISTLE WEED","20,20,20,20,20,20,20,20","20,20,20,20,20,20,20,20","10,10,10,10,10,10,10,10","20,20,20,20,20,20,20,20","0,0,0,0,0,0,0,0","20,20,20,20,20,20,20,20","20,20,20,20,20,20,20,20","20,20,20,20,20,20,20,20","10,10,10,10,10,10,10,10","20,20,20,20,20,20,20,20","0,0,0,0,0,0,0,0","20,20,20,20,20,20,20,20","1,0,1,0,1,0,1,1","406,225,450,188,875,207,246,94","16.316415012290186,13.624782158552634,11.987558762409293,12.742633439171296,-28.093809654675304,15.023270158018642,-14.344953037779396,-4.8299521673105374","8.635620151886032,35.7771745421974,-2.6252079475676156,25.58712460142737,25.999969409200197,32.47754038423614,-0.8692799368950623,-7.7164549074652395","2","0"
"90","86","text","0","171","2212262","0-0","","","","","","","","","","","","","","","","","","","","","","","","","","","","","","","","","","","","",""
"","","plant-game","0","172","2228961","0-0","","200","120","8","WHEAT CROP","Right","200","180","1","NETTLE WEED","experimental","73","1,2,3,4,5,6,7,8","180,130,126.39132034102644,132.8528270669216,139.33003587933763,187.0990609912594,181.6194445466159,142.3318270734208","1,7,6,5,4,3,2,1","NETTLE WEED,THISTLE WEED,THISTLE WEED,THISTLE WEED,THISTLE WEED,THISTLE WEED,THISTLE WEED,THISTLE WEED","120,146.91672149381787,155.0113465610414,158.32121064980709,200.11205101179382,221.0318555721465,239.78523669360237,221.61619877952145","8,7,6,5,4,3,2,1","WHEAT CROP,WHEAT CROP,WHEAT CROP,WHEAT CROP,WHEAT CROP,WHEAT CROP,WHEAT CROP,WHEAT CROP","0,0,0,0,0,0,0,0","20,20,20,20,20,20,20,20","10,10,10,10,10,10,10,10","20,20,20,20,20,20,20,20","20,20,20,20,20,20,20,20","20,20,20,20,20,20,20,20","0,0,0,0,0,0,0,0","20,20,20,20,20,20,20,20","10,10,10,10,10,10,10,10","20,20,20,20,20,20,20,20","20,20,20,20,20,20,20,20","20,20,20,20,20,20,20,20","1,1,1,0,1,0,0,0","503,1599,608,911,1260,1327,1322,1219","0.39155525793108836,-3.6086796589735535,6.461506725895152,6.47720881241603,47.76902511192176,-5.479616444643494,-39.287617473195105,-2.0063360317002283","26.91672149381787,8.094625067223518,3.3098640887656927,41.79084036198674,20.919804560352684,18.753381121455874,-18.169037914080914,-27.245480743763753","0","0"
"435","86","text","0","173","2229456","0-0","","","","","","","","","","","","","","","","","","","","","","","","","","","","","","","","","","","","",""
"","","plant-game","0","174","2234596","0-0","","200","160","1","CORN CROP","Right","200","180","1","THISTLE WEED","experimental","74","1","180","1","THISTLE WEED","160","1","CORN CROP","0","20","10","20","20","20","0","20","10","20","20","20","1","1040","-1.1926990487964062","-2.422220982219393","0","0"
"3148","86","text","0","175","2237800","0-0","","","","","","","","","","","","","","","","","","","","","","","","","","","","","","","","","","","","",""
"","","plant-game","0","176","2244591","0-0","","200","120","2","CORN CROP","Left","200","180","2","NETTLE WEED","experimental","75","1,2","120,117.86657697507604","2,1","CORN CROP,CORN CROP","180,163.66457068768116","2,1","NETTLE WEED,NETTLE WEED","20,20","20,20","10,10","20,20","0,0","20,20","20,20","20,20","10,10","20,20","0,0","20,20","1,0","965,1371","-2.1334230249239505,5.788331604477097","-16.33542931231884,31.72469205993744","0","0"
"575","86","text","0","177","2245275","0-0","","","","","","","","","","","","","","","","","","","","","","","","","","","","","","","","","","","","",""
"","","plant-game","0","178","2306081","0-0","","200","180","8","WHEAT CROP","Right","200","180","2","NETTLE WEED","experimental","76","1,2,3,4,5,6,7,8","180,180.29519019911027,140,146.93899809137213,172.35959548823757,186.89425037091857,181.99613365651265,159.001954100494","2,1,6,5,4,3,2,1","NETTLE WEED,NETTLE WEED,THISTLE WEED,THISTLE WEED,THISTLE WEED,THISTLE WEED,THISTLE WEED,THISTLE WEED","180,182.29282627340245,194.08814788471136,232.9582895489899,235.9860689589079,233.71465641934375,225.81796418183058,188.60419136290227","8,7,6,5,4,3,2,1","WHEAT CROP,WHEAT CROP,WHEAT CROP,WHEAT CROP,WHEAT CROP,WHEAT CROP,WHEAT CROP,WHEAT CROP","0,0,0,0,0,0,0,0","20,20,20,20,20,20,20,20","10,10,10,10,10,10,10,10","20,20,20,20,20,20,20,20","20,20,20,20,20,20,20,20","20,20,20,20,20,20,20,20","0,0,0,0,0,0,0,0","20,20,20,20,20,20,20,20","10,10,10,10,10,10,10,10","20,20,20,20,20,20,20,20","20,20,20,20,20,20,20,20","20,20,20,20,20,20,20,20","0,1,1,1,0,0,0,1","28367,1082,1906,626,866,1419,13935,1747","0.29519019911025196,62.84729625334428,6.93899809137214,25.420597396865432,14.534654882680984,-4.898116714405906,-22.99417955601864,12.001646682424994","2.292826273402446,11.795321611308893,38.87014166427854,3.027779409918004,-2.2714125395641442,-7.896692237513179,-37.213772818928305,24.60896698904466","0","0"
"796","86","text","0","179","2307047","0-0","","","","","","","","","","","","","","","","","","","","","","","","","","","","","","","","","","","","",""
"","","plant-game","0","180","2333346","0-0","","200","160","8","WHEAT CROP","Right","200","190","8","NETTLE WEED","experimental","77","1,2,3,4,5,6,7,8","190,234.11998439587194,236.4119958971155,253.83451699579274,264.50514810587447,244.27226083407376,251.57390750252333,285.2960465462428","8,7,6,5,4,3,2,1","NETTLE WEED,NETTLE WEED,NETTLE WEED,NETTLE WEED,NETTLE WEED,NETTLE WEED,NETTLE WEED,NETTLE WEED","160,180.88320487954834,173.39130491298417,202.90075625023127,236.2444952468751,204.31672828452852,206.82775873255048,231.3343289883906","8,7,6,5,4,3,2,1","WHEAT CROP,WHEAT CROP,WHEAT CROP,WHEAT CROP,WHEAT CROP,WHEAT CROP,WHEAT CROP,WHEAT CROP","0,0,0,0,0,0,0,0","20,20,20,20,20,20,20,20","10,10,10,10,10,10,10,10","20,20,20,20,20,20,20,20","20,20,20,20,20,20,20,20","20,20,20,20,20,20,20,20","0,0,0,0,0,0,0,0","20,20,20,20,20,20,20,20","10,10,10,10,10,10,10,10","20,20,20,20,20,20,20,20","20,20,20,20,20,20,20,20","20,20,20,20,20,20,20,20","1,0,1,1,0,1,1,1","6962,1406,6380,828,601,758,1127,533","44.119984395871924,2.292011501243577,17.422521098677226,10.670631110081718,-20.232887271800706,7.301646668449562,33.722139043719466,41.537986234167334","20.883204879548348,-7.491899966564165,29.5094513372471,33.34373899664381,-31.927766962346556,2.511030448021966,24.506570255840124,50.475455230865414","0","0"
"3056","86","text","0","181","2336522","0-0","","","","","","","","","","","","","","","","","","","","","","","","","","","","","","","","","","","","",""
"","","plant-game","0","182","2405577","0-0","","200","180","8","WHEAT CROP","Left","200","180","1","THISTLE WEED","experimental","78","1,2,3,4,5,6,7,8","180,171.0375590865309,184.85388245104215,188.97767876689971,195.4671769724578,210.96789567121215,239.724444702818,271.93087067869476","8,7,6,5,4,3,2,1","WHEAT CROP,WHEAT CROP,WHEAT CROP,WHEAT CROP,WHEAT CROP,WHEAT CROP,WHEAT CROP,WHEAT CROP","180,130,134.5775624534078,155.33651667548457,163.7527140942737,162.40078316106195,158.61462181424758,204.56075457863494","1,7,6,5,4,3,2,1","THISTLE WEED,NETTLE WEED,NETTLE WEED,NETTLE WEED,NETTLE WEED,NETTLE WEED,NETTLE WEED,NETTLE WEED","20,20,20,20,20,20,20,20","20,20,20,20,20,20,20,20","10,10,10,10,10,10,10,10","20,20,20,20,20,20,20,20","0,0,0,0,0,0,0,0","20,20,20,20,20,20,20,20","20,20,20,20,20,20,20,20","20,20,20,20,20,20,20,20","10,10,10,10,10,10,10,10","20,20,20,20,20,20,20,20","0,0,0,0,0,0,0,0","20,20,20,20,20,20,20,20","1,0,0,1,0,0,0,1","12715,4031,495,677,731,1324,694,1072","-8.962440913469097,13.816323364511241,4.1237963158575575,6.489498205558074,15.500718698754351,28.75654903160587,32.206425975876726,2.0339904749599342","22.962906284441548,4.577562453407797,20.758954222076753,8.416197418789128,-1.351930933211733,-3.7861613468143744,45.94613276438734,-13.277600234436115","0","0"
"695","86","text","0","183","2406365","0-0","","","","","","","","","","","","","","","","","","","","","","","","","","","","","","","","","","","","",""
"","","plant-game","0","184","2439009","0-0","","200","160","8","CORN CROP","Left","200","160","4","NETTLE WEED","experimental","79","1,2,3,4,5,6,7,8","160,165.57673678002004,164.72182955641694,147.41214467009465,141.6536335188897,103.49546214320777,121.89514982461564,145.27296142429418","8,7,6,5,4,3,2,1","CORN CROP,CORN CROP,CORN CROP,CORN CROP,CORN CROP,CORN CROP,CORN CROP,CORN CROP","160,138.3205748212666,115.75403880055308,112.27631547150017,160,178.30356679089925,172.21297554053817,161.42702022227286","4,3,2,1,4,3,2,1","NETTLE WEED,NETTLE WEED,NETTLE WEED,NETTLE WEED,THISTLE WEED,THISTLE WEED,THISTLE WEED,THISTLE WEED","20,20,20,20,20,20,20,20","20,20,20,20,20,20,20,20","10,10,10,10,10,10,10,10","20,20,20,20,20,20,20,20","0,0,0,0,0,0,0,0","20,20,20,20,20,20,20,20","20,20,20,20,20,20,20,20","20,20,20,20,20,20,20,20","10,10,10,10,10,10,10,10","20,20,20,20,20,20,20,20","0,0,0,0,0,0,0,0","20,20,20,20,20,20,20,20","0,1,1,1,1,0,0,1","4903,7662,879,2840,2220,2180,1955,1593","5.57673678002004,-0.8549072236031102,-17.309684886322295,-5.758511151204947,-38.15817137568193,18.39968768140787,23.377811599678544,29.643410841562115","-21.67942517873339,-22.566536020713528,-3.4777233290529024,7.036526661723389,18.303566790899247,-6.090591250361076,-10.785955318265295,-6.805269659870081","0","0"
"1030","86","text","0","185","2440164","0-0","","","","","","","","","","","","","","","","","","","","","","","","","","","","","","","","","","","","",""
"","","plant-game","0","186","2470031","0-0","","200","190","1","WHEAT CROP","Left","200","120","4","THISTLE WEED","experimental","80","1,2,3,4","190,170,172.94939311261294,184.24570629787834","1,3,2,1","WHEAT CROP,CORN CROP,CORN CROP,CORN CROP","120,122.8251767128836,136.89876017295128,184.29158237598028","4,3,2,1","THISTLE WEED,THISTLE WEED,THISTLE WEED,THISTLE WEED","20,20,20,20","20,20,20,20","10,10,10,10","20,20,20,20","0,0,0,0","20,20,20,20","20,20,20,20","20,20,20,20","10,10,10,10","20,20,20,20","0,0,0,0","20,20,20,20","0,1,0,0","1737,3546,848,16727","-14.282180504455667,2.949393112612928,11.296313185265403,31.599918241210077","2.8251767128835965,14.073583460067683,47.39282220302901,-6.2186487903060765","0","0"
"9385","86","text","0","187","2479756","0-0","","","","","","","","","","","","","","","","","","","","","","","","","","","","","","","","","","","","",""
"","","plant-game","0","188","2500170","0-0","","200","190","1","CORN CROP","Right","200","180","8","THISTLE WEED","experimental","81","1,2,3,4,5,6,7,8","180,205.7517376521287,204.61304766402174,236.36531245944613,272.1612593839015,265.1200630426832,274.55939290552556,278.3644257737042","8,7,6,5,4,3,2,1","THISTLE WEED,THISTLE WEED,THISTLE WEED,THISTLE WEED,THISTLE WEED,THISTLE WEED,THISTLE WEED,THISTLE WEED","190,130,121.14273156010807,106.42471494654312,99.18502709388035,105.42786370008379,94.85869323846052,85.02512851993532","1,7,6,5,4,3,2,1","CORN CROP,WHEAT CROP,WHEAT CROP,WHEAT CROP,WHEAT CROP,WHEAT CROP,WHEAT CROP,WHEAT CROP","0,0,0,0,0,0,0,0","20,20,20,20,20,20,20,20","10,10,10,10,10,10,10,10","20,20,20,20,20,20,20,20","20,20,20,20,20,20,20,20","20,20,20,20,20,20,20,20","0,0,0,0,0,0,0,0","20,20,20,20,20,20,20,20","10,10,10,10,10,10,10,10","20,20,20,20,20,20,20,20","20,20,20,20,20,20,20,20","20,20,20,20,20,20,20,20","1,0,0,1,0,1,0,1","5175,2723,777,608,785,268,463,363","25.751737652128686,-1.1386899881069596,31.752264795424395,35.795946924455386,-7.041196341218257,9.439329862842339,3.805032868178668,17.313203169584753","8.455141268990241,-8.85726843989193,-14.718016613564952,-7.239687852662765,6.242836606203434,-10.569170461623273,-9.833564718525196,33.29761176182096","0","0"
"129","86","text","0","189","2500459","0-0","","","","","","","","","","","","","","","","","","","","","","","","","","","","","","","","","","","","",""
"","","plant-game","0","190","2532114","0-0","","200","180","8","CORN CROP","Left","200","160","4","NETTLE WEED","experimental","82","1,2,3,4,5,6,7,8","180,185.64406576261024,163.4757107444064,182.2113103389677,162.5621951424572,191.22283281358645,182.89613720697022,206.8099728040276","8,7,6,5,4,3,2,1","CORN CROP,CORN CROP,CORN CROP,CORN CROP,CORN CROP,CORN CROP,CORN CROP,CORN CROP","160,176.95291438385718,174.11193470123104,180.84202642591862,160,189.93937697692837,212.13010091651384,219.99082451154652","4,3,2,1,4,3,2,1","NETTLE WEED,NETTLE WEED,NETTLE WEED,NETTLE WEED,THISTLE WEED,THISTLE WEED,THISTLE WEED,THISTLE WEED","20,20,20,20,20,20,20,20","20,20,20,20,20,20,20,20","10,10,10,10,10,10,10,10","20,20,20,20,20,20,20,20","0,0,0,0,0,0,0,0","20,20,20,20,20,20,20,20","20,20,20,20,20,20,20,20","20,20,20,20,20,20,20,20","10,10,10,10,10,10,10,10","20,20,20,20,20,20,20,20","0,0,0,0,0,0,0,0","20,20,20,20,20,20,20,20","0,0,1,1,0,0,1,1","3415,1005,852,736,3103,977,1412,2496","5.6440657626102535,-22.168355018203854,18.735599594561315,-19.649115196510515,28.660637671129244,-8.326695606616216,23.913835597057393,17.691899331457154","16.95291438385718,-2.8409796826261484,6.730091724687577,11.956212806428741,29.939376976928386,22.190723939585478,7.860723595032689,-5.997986857544363","1","0"
"623","86","text","0","191","2532917","0-0","","","","","","","","","","","","","","","","","","","","","","","","","","","","","","","","","","","","",""
"","","plant-game","0","192","2555789","0-0","","200","160","8","WHEAT CROP","Right","200","180","4","NETTLE WEED","experimental","83","1,2,3,4,5,6,7,8","180,161.17846006168966,174.14196277180366,201.23946445324276,160,172.86510510833602,203.04949247913396,200.17552504225074","4,3,2,1,4,3,2,1","NETTLE WEED,NETTLE WEED,NETTLE WEED,NETTLE WEED,THISTLE WEED,THISTLE WEED,THISTLE WEED,THISTLE WEED","160,183.6097754261421,246.41349582455732,247.99757359638028,288.8262850946342,291.42510719703165,312.77781734267444,322.08435711478796","8,7,6,5,4,3,2,1","WHEAT CROP,WHEAT CROP,WHEAT CROP,WHEAT CROP,WHEAT CROP,WHEAT CROP,WHEAT CROP,WHEAT CROP","0,0,0,0,0,0,0,0","20,20,20,20,20,20,20,20","10,10,10,10,10,10,10,10","20,20,20,20,20,20,20,20","20,20,20,20,20,20,20,20","20,20,20,20,20,20,20,20","0,0,0,0,0,0,0,0","20,20,20,20,20,20,20,20","10,10,10,10,10,10,10,10","20,20,20,20,20,20,20,20","20,20,20,20,20,20,20,20","20,20,20,20,20,20,20,20","0,1,0,1,1,0,0,0","2314,3310,1707,2869,1032,764,2027,843","-18.821539938310337,12.963502710114003,27.097501681439113,36.62666523687747,12.865105108336037,30.184387370797925,-2.8739674368832224,-17.13982043765106","23.609775426142107,62.80372039841521,1.5840777718229755,40.82871149825394,2.598822102397442,21.35271014564281,9.306539772113535,33.170459107373446","1","0"
