"rt","key_press","trial_type","trial_index","trial_index_global","time_elapsed","internal_chunk_id","responses","experimental_goal_height","experimental_start_height","experimental_weeks_total","experimental_crop_type","experimental_crop_side","fixed_goal_height","fixed_start_height","fixed_weeks_total","fixed_crop_type","trial_kind","trial_number","stage","left_current_height","left_weeks_remaining","left_crop_type","right_current_height","right_weeks_remaining","right_crop_type","mean_left_growth_given_left","sd_left_growth_given_left","mean_left_growth_given_middle","sd_left_growth_given_middle","mean_left_growth_given_right","sd_left_growth_given_right","mean_right_growth_given_left","sd_right_growth_given_left","mean_right_growth_given_middle","sd_right_growth_given_middle","mean_right_growth_given_right","sd_right_growth_given_right","response","response_time","left_growth","right_growth","other_key_pressed","mouse_clicked"
"798551","77","text","0","0","798678","0-0","","","","","","","","","","","","","","","","","","","","","","","","","","","","","","","","","","","","",""
"3626","","survey-text","0","1","803321","0-0","{""Q0"":""17""}","","","","","","","","","","","","","","","","","","","","","","","","","","","","","","","","","","","",""
"2174","86","text","0","2","2314","0-0","","","","","","","","","","","","","","","","","","","","","","","","","","","","","","","","","","","","",""
"","","plant-game","0","3","64540","0-0","","200","120","8","CORN CROP","Left","200","120","8","THISTLE WEED","practice","1","1,2,3,4,5,6,7,8","120,153.99881471751,174.07700367148098,213.34064852628802,296.66957610950783,323.82513923091074,335.36172420992494,331.0672706045415","8,7,6,5,4,3,2,1","CORN CROP,CORN CROP,CORN CROP,CORN CROP,CORN CROP,CORN CROP,CORN CROP,CORN CROP","120,123.4444324731593,164.30389352524264,149.88572667647333,187.90784045044632,220.13052890219484,222.7674730316635,196.76655720724344","8,7,6,5,4,3,2,1","THISTLE WEED,THISTLE WEED,THISTLE WEED,THISTLE WEED,THISTLE WEED,THISTLE WEED,THISTLE WEED,THISTLE WEED","20,20,20,20,20,20,20,20","20,20,20,20,20,20,20,20","10,10,10,10,10,10,10,10","20,20,20,20,20,20,20,20","0,0,0,0,0,0,0,0","20,20,20,20,20,20,20,20","20,20,20,20,20,20,20,20","20,20,20,20,20,20,20,20","10,10,10,10,10,10,10,10","20,20,20,20,20,20,20,20","0,0,0,0,0,0,0,0","20,20,20,20,20,20,20,20","0,0,1,0,1,1,1,1","6387,10480,2166,7020,1393,3015,9853,1484","33.99881471750998,20.078188953970983,39.26364485480704,83.32892758321984,27.155563121402896,11.536584979014231,-4.294453605383482,-41.12274517262727","3.444432473159292,40.85946105208336,-14.418166848769328,38.02211377397298,32.22268845174852,2.6369441294686844,-26.00091582442008,5.047901643098865","1","11"
"627","86","text","0","4","65337","0-0","","","","","","","","","","","","","","","","","","","","","","","","","","","","","","","","","","","","",""
"","","plant-game","0","5","87215","0-0","","200","160","4","CORN CROP","Left","200","160","4","THISTLE WEED","practice","2","1,2,3,4","160,166.9959382820844,177.87269526417757,173.07502687299132","4,3,2,1","CORN CROP,CORN CROP,CORN CROP,CORN CROP","160,149.83480375293476,150.59215406741646,137.80588455635905","4,3,2,1","THISTLE WEED,THISTLE WEED,THISTLE WEED,THISTLE WEED","20,20,20,20","20,20,20,20","10,10,10,10","20,20,20,20","0,0,0,0","20,20,20,20","20,20,20,20","20,20,20,20","10,10,10,10","20,20,20,20","0,0,0,0","20,20,20,20","1,0,0,0","1227,587,901,1098","6.995938282084414,10.876756982093145,-4.7976683911862565,36.50007959061648","-10.16519624706524,0.7573503144816911,-12.78626951105742,42.43722124796824","0","0"
"559","86","text","0","6","87903","0-0","","","","","","","","","","","","","","","","","","","","","","","","","","","","","","","","","","","","",""
"","","plant-game","0","7","104447","0-0","","200","180","2","WHEAT CROP","Right","200","180","2","THISTLE WEED","practice","3","1,2","180,179.63541280212337","2,1","THISTLE WEED,THISTLE WEED","180,228.64727514780137","2,1","WHEAT CROP,WHEAT CROP","0,0","20,20","10,10","20,20","20,20","20,20","0,0","20,20","10,10","20,20","20,20","20,20","0,0","516,2693","-0.3645871978766231,3.223283106474235","48.647275147801366,13.313878099801963","0","0"
"396","86","text","0","8","104973","0-0","","","","","","","","","","","","","","","","","","","","","","","","","","","","","","","","","","","","",""
"","","plant-game","0","9","121160","0-0","","200","190","1","WHEAT CROP","Left","200","190","1","THISTLE WEED","practice","4","1","190","1","WHEAT CROP","190","1","THISTLE WEED","20","20","10","20","0","20","20","20","10","20","0","20","1","579","9.663371096930852","25.629734258746613","0","0"
"536","86","text","0","10","121826","0-0","","","","","","","","","","","","","","","","","","","","","","","","","","","","","","","","","","","","",""
"","","plant-game","0","11","140466","0-0","","200","120","8","WHEAT CROP","Left","200","160","8","NETTLE WEED","practice","5","1,2,3,4,5,6,7,8","120,158.87551468877365,137.54262366951085,179.25676652328113,187.78474086054976,182.30029784204683,195.74909122858963,200.53564147143425","8,7,6,5,4,3,2,1","WHEAT CROP,WHEAT CROP,WHEAT CROP,WHEAT CROP,WHEAT CROP,WHEAT CROP,WHEAT CROP,WHEAT CROP","160,167.21928677738836,150.10503060526491,185.73612300583625,156.99620308492644,173.42939050899616,172.36231167301997,167.04153724556792","8,7,6,5,4,3,2,1","NETTLE WEED,NETTLE WEED,NETTLE WEED,NETTLE WEED,NETTLE WEED,NETTLE WEED,NETTLE WEED,NETTLE WEED","20,20,20,20,20,20,20,20","20,20,20,20,20,20,20,20","10,10,10,10,10,10,10,10","20,20,20,20,20,20,20,20","0,0,0,0,0,0,0,0","20,20,20,20,20,20,20,20","20,20,20,20,20,20,20,20","20,20,20,20,20,20,20,20","10,10,10,10,10,10,10,10","20,20,20,20,20,20,20,20","0,0,0,0,0,0,0,0","20,20,20,20,20,20,20,20","1,1,0,1,0,0,0,1","759,997,1119,580,640,1423,1364,895","38.87551468877366,-21.33289101926281,41.71414285377028,8.527974337268628,-5.48444301850294,13.4487933865428,4.786550242844603,8.230018807470048","7.219286777388353,-17.11425617212344,35.63109240057132,-28.73991992090982,16.43318742406973,-1.067078835976183,-5.320774427452058,8.643313585558287","0","0"
"167","86","text","0","12","140813","0-0","","","","","","","","","","","","","","","","","","","","","","","","","","","","","","","","","","","","",""
"","","plant-game","0","13","155772","0-0","","200","180","4","CORN CROP","Right","200","160","4","THISTLE WEED","practice","6","1,2,3,4","160,201.8210939038565,204.01789172908437,179.72961926212488","4,3,2,1","THISTLE WEED,THISTLE WEED,THISTLE WEED,THISTLE WEED","180,178.56186310832257,180.89253540964373,179.96039565145756","4,3,2,1","CORN CROP,CORN CROP,CORN CROP,CORN CROP","0,0,0,0","20,20,20,20","10,10,10,10","20,20,20,20","20,20,20,20","20,20,20,20","0,0,0,0","20,20,20,20","10,10,10,10","20,20,20,20","20,20,20,20","20,20,20,20","1,0,0,1","370,3437,683,1427","41.821093903856514,2.1967978252278724,-24.288272466959484,30.745642873603046","-1.438136891677427,2.33067230132117,-0.9321397581861789,6.460831737080142","0","0"
"140","86","text","0","14","156082","0-0","","","","","","","","","","","","","","","","","","","","","","","","","","","","","","","","","","","","",""
"","","plant-game","0","15","165276","0-0","","200","180","2","WHEAT CROP","Left","200","190","2","NETTLE WEED","practice","7","1,2","180,178.14640171138484","2,1","WHEAT CROP,WHEAT CROP","190,191.9916198569501","2,1","NETTLE WEED,NETTLE WEED","20,20","20,20","10,10","20,20","0,0","20,20","20,20","20,20","10,10","20,20","0,0","20,20","1,1","416,627","-1.8535982886151516,26.398679736452525","1.9916198569501185,-28.69274200652983","0","0"
"146","86","text","0","16","165602","0-0","","","","","","","","","","","","","","","","","","","","","","","","","","","","","","","","","","","","",""
"","","plant-game","0","17","194246","0-0","","200","120","4","WHEAT CROP","Right","200","120","8","THISTLE WEED","practice","8","1,2,3,4,5,6,7,8","120,146.17833610048305,152.16378803770007,185.0215345004887,225.53442935726295,224.7678733489049,252.2124347066582,286.69269878502496","8,7,6,5,4,3,2,1","THISTLE WEED,THISTLE WEED,THISTLE WEED,THISTLE WEED,THISTLE WEED,THISTLE WEED,THISTLE WEED,THISTLE WEED","120,96.31805168620997,103.4633436776811,104.75174156342138,160,171.44681571129863,191.0385734366845,185.47664179589242","4,3,2,1,4,3,2,1","WHEAT CROP,WHEAT CROP,WHEAT CROP,WHEAT CROP,CORN CROP,CORN CROP,CORN CROP,CORN CROP","0,0,0,0,0,0,0,0","20,20,20,20,20,20,20,20","10,10,10,10,10,10,10,10","20,20,20,20,20,20,20,20","20,20,20,20,20,20,20,20","20,20,20,20,20,20,20,20","0,0,0,0,0,0,0,0","20,20,20,20,20,20,20,20","10,10,10,10,10,10,10,10","20,20,20,20,20,20,20,20","20,20,20,20,20,20,20,20","20,20,20,20,20,20,20,20","1,1,1,1,0,0,1,1","846,417,410,2931,4706,1324,430,216","26.178336100483047,5.9854519372170305,32.85774646278865,40.51289485677423,-0.7665560083580397,27.444561357753283,34.48026407836676,31.600385418714296","-23.68194831379003,7.145291991471128,1.288397885740281,1.0922266541780772,11.446815711298623,19.591757725385875,-5.561931640792054,27.778311915698893","0","0"
"420","86","text","0","18","194853","0-0","","","","","","","","","","","","","","","","","","","","","","","","","","","","","","","","","","","","",""
"","","plant-game","0","19","214774","0-0","","200","160","4","CORN CROP","Left","200","160","2","THISTLE WEED","practice","9","1,2,3,4","160,149.6458286197631,134.96846151088292,133.5943758252102","4,3,2,1","CORN CROP,CORN CROP,CORN CROP,CORN CROP","160,158.750792630405,180,195.95122895706803","2,1,2,1","THISTLE WEED,THISTLE WEED,NETTLE WEED,NETTLE WEED","20,20,20,20","20,20,20,20","10,10,10,10","20,20,20,20","0,0,0,0","20,20,20,20","20,20,20,20","20,20,20,20","10,10,10,10","20,20,20,20","0,0,0,0","20,20,20,20","1,1,0,1","375,365,608,562","-10.354171380236881,-14.67736710888019,-1.3740856856727177,-3.964684740420003","-1.2492073695950063,-38.271917128496526,15.951228957068032,7.962523690589145","0","0"
"416","86","text","0","20","215350","0-0","","","","","","","","","","","","","","","","","","","","","","","","","","","","","","","","","","","","",""
"","","plant-game","0","21","231304","0-0","","200","180","2","WHEAT CROP","Left","200","180","1","NETTLE WEED","practice","10","1,2","180,162.9080222740701","2,1","WHEAT CROP,WHEAT CROP","180,190","1,1","NETTLE WEED,THISTLE WEED","20,20","20,20","10,10","20,20","0,0","20,20","20,20","20,20","10,10","20,20","0,0","20,20","1,0","1317,1196","-17.091977725929908,0.9676760664410295","22.263554240265737,14.81775823931487","0","0"
"490","86","text","0","22","231894","0-0","","","","","","","","","","","","","","","","","","","","","","","","","","","","","","","","","","","","",""
"","","plant-game","0","23","250643","0-0","","200","120","8","WHEAT CROP","Left","200","160","4","THISTLE WEED","practice","11","1,2,3,4,5,6,7,8","120,97.424512427753,118.42961280803645,124.5465326427148,132.8894385803473,137.31579289158347,153.7925387071706,209.341901644884","8,7,6,5,4,3,2,1","WHEAT CROP,WHEAT CROP,WHEAT CROP,WHEAT CROP,WHEAT CROP,WHEAT CROP,WHEAT CROP,WHEAT CROP","160,182.47288611725713,214.39725497943616,239.18715320001868,160,192.00413160473144,197.77227290586453,211.2636760756488","4,3,2,1,4,3,2,1","THISTLE WEED,THISTLE WEED,THISTLE WEED,THISTLE WEED,NETTLE WEED,NETTLE WEED,NETTLE WEED,NETTLE WEED","20,20,20,20,20,20,20,20","20,20,20,20,20,20,20,20","10,10,10,10,10,10,10,10","20,20,20,20,20,20,20,20","0,0,0,0,0,0,0,0","20,20,20,20,20,20,20,20","20,20,20,20,20,20,20,20","20,20,20,20,20,20,20,20","10,10,10,10,10,10,10,10","20,20,20,20,20,20,20,20","0,0,0,0,0,0,0,0","20,20,20,20,20,20,20,20","0,0,0,0,0,0,0,1","503,364,456,1453,1213,357,370,1630","-22.575487572247,21.00510038028345,6.116919834678345,8.342905937632496,4.426354311236167,16.476745815587122,55.549362937713404,30.192183945084196","22.47288611725712,31.924368862179023,24.789898220582536,38.11082026832989,32.00413160473144,5.7681413011330775,13.491403169784254,3.320770548091368","0","0"
"415","86","text","0","24","251203","0-0","","","","","","","","","","","","","","","","","","","","","","","","","","","","","","","","","","","","",""
"","","plant-game","0","25","269817","0-0","","200","180","2","WHEAT CROP","Left","200","160","4","THISTLE WEED","practice","12","1,2,3,4","180,194.09518593029125,180,169.0994833679833","2,1,2,1","WHEAT CROP,WHEAT CROP,CORN CROP,CORN CROP","160,173.41427503316305,208.0357322840228,201.99390103714674","4,3,2,1","THISTLE WEED,THISTLE WEED,THISTLE WEED,THISTLE WEED","20,20,20,20","20,20,20,20","10,10,10,10","20,20,20,20","0,0,0,0","20,20,20,20","20,20,20,20","20,20,20,20","10,10,10,10","20,20,20,20","0,0,0,0","20,20,20,20","0,0,1,0","340,843,1566,1298","14.095185930291247,11.390796995351106,-10.900516632016702,20.2630585166165","13.414275033163062,34.621457250859756,-6.04183124687606,41.5018369999634","0","0"
"403","86","text","0","26","270420","0-0","","","","","","","","","","","","","","","","","","","","","","","","","","","","","","","","","","","","",""
"5536","86","text","0","27","277146","0-0","","","","","","","","","","","","","","","","","","","","","","","","","","","","","","","","","","","","",""
"","","plant-game","0","28","288636","0-0","","200","160","4","CORN CROP","Left","200","120","4","NETTLE WEED","experimental","1","1,2,3,4","160,202.6977536939445,235.31813716029575,228.21887610128562","4,3,2,1","CORN CROP,CORN CROP,CORN CROP,CORN CROP","120,150.37615247205093,195.45858354767137,183.56352764968958","4,3,2,1","NETTLE WEED,NETTLE WEED,NETTLE WEED,NETTLE WEED","20,20,20,20","20,20,20,20","10,10,10,10","20,20,20,20","0,0,0,0","20,20,20,20","20,20,20,20","20,20,20,20","10,10,10,10","20,20,20,20","0,0,0,0","20,20,20,20","0,0,1,1","4439,1134,1400,1324","42.697753693944485,32.62038346635127,-7.099261059010129,-5.410159908936235","30.376152472050947,45.08243107562042,-11.895055897981797,-26.32867133939464","0","0"
"1423","86","text","0","29","290229","0-0","","","","","","","","","","","","","","","","","","","","","","","","","","","","","","","","","","","","",""
"","","plant-game","0","30","304813","0-0","","200","120","4","WHEAT CROP","Left","200","190","8","THISTLE WEED","experimental","2","1,2,3,4,5,6,7,8","120,120.8581571224056,95.82803249309539,83.21154866145869,160,186.89082024661425,219.52831983275988,206.8540988656424","4,3,2,1,4,3,2,1","WHEAT CROP,WHEAT CROP,WHEAT CROP,WHEAT CROP,CORN CROP,CORN CROP,CORN CROP,CORN CROP","190,193.67914382722853,221.0805235736651,160.4490648987584,182.1412414788731,250.21117269034497,258.0359793315665,250.143201723977","8,7,6,5,4,3,2,1","THISTLE WEED,THISTLE WEED,THISTLE WEED,THISTLE WEED,THISTLE WEED,THISTLE WEED,THISTLE WEED,THISTLE WEED","20,20,20,20,20,20,20,20","20,20,20,20,20,20,20,20","10,10,10,10,10,10,10,10","20,20,20,20,20,20,20,20","0,0,0,0,0,0,0,0","20,20,20,20,20,20,20,20","20,20,20,20,20,20,20,20","20,20,20,20,20,20,20,20","10,10,10,10,10,10,10,10","20,20,20,20,20,20,20,20","0,0,0,0,0,0,0,0","20,20,20,20,20,20,20,20","1,1,1,0,0,0,1,1","2347,373,1194,1900,2354,566,529,300","0.8581571224056018,-25.03012462931021,-12.616483831636696,3.280471008140456,26.890820246614265,32.63749958614562,-12.674220967117451,-50.45467285006041","3.6791438272285255,27.40137974643655,-60.63145867490669,21.692176580114694,68.06993121147187,7.824806641221574,-7.892777607589519,-15.763357334565452","0","0"
"174","86","text","0","31","305143","0-0","","","","","","","","","","","","","","","","","","","","","","","","","","","","","","","","","","","","",""
"","","plant-game","0","32","319389","0-0","","200","190","2","CORN CROP","Right","200","180","1","NETTLE WEED","experimental","3","1,2","180,190","1,1","NETTLE WEED,THISTLE WEED","190,230.07297392683014","2,1","CORN CROP,CORN CROP","0,0","20,20","10,10","20,20","20,20","20,20","0,0","20,20","10,10","20,20","20,20","20,20","0,1","4374,3195","40.64398546642849,32.024969533457295","40.072973926830144,20.39695793861052","0","0"
"1767","86","text","0","33","321306","0-0","","","","","","","","","","","","","","","","","","","","","","","","","","","","","","","","","","","","",""
"","","plant-game","0","34","346289","0-0","","200","190","8","CORN CROP","Right","200","180","4","NETTLE WEED","experimental","4","1,2,3,4,5,6,7,8","180,185.3057236713353,185.79001123610504,198.51076915016304,160,192.5461318027083,161.18340281148528,186.18519936525104","4,3,2,1,4,3,2,1","NETTLE WEED,NETTLE WEED,NETTLE WEED,NETTLE WEED,THISTLE WEED,THISTLE WEED,THISTLE WEED,THISTLE WEED","190,233.06803660786983,250.55024314722027,268.59579681678724,250.66063181565363,257.5184519253437,239.47640473722382,281.02310765813445","8,7,6,5,4,3,2,1","CORN CROP,CORN CROP,CORN CROP,CORN CROP,CORN CROP,CORN CROP,CORN CROP,CORN CROP","0,0,0,0,0,0,0,0","20,20,20,20,20,20,20,20","10,10,10,10,10,10,10,10","20,20,20,20,20,20,20,20","20,20,20,20,20,20,20,20","20,20,20,20,20,20,20,20","0,0,0,0,0,0,0,0","20,20,20,20,20,20,20,20","10,10,10,10,10,10,10,10","20,20,20,20,20,20,20,20","20,20,20,20,20,20,20,20","20,20,20,20,20,20,20,20","1,1,1,0,1,0,0,0","4665,1850,1844,3471,2897,976,834,963","5.3057236713352935,0.4842875647697582,12.720757914057998,11.883384226139768,32.54613180270828,-31.36272899122302,25.00179655376575,-4.721994749537609","43.068036607869814,17.48220653935045,18.045553669566964,-17.93516500113362,6.857820109690046,-18.042047188119888,41.54670292091062,-7.066445269657466","4","0"
"454","86","text","0","35","346903","0-0","","","","","","","","","","","","","","","","","","","","","","","","","","","","","","","","","","","","",""
"","","plant-game","0","36","364185","0-0","","200","120","4","CORN CROP","Left","200","120","2","NETTLE WEED","experimental","5","1,2,3,4","120,132.85647527327282,147.78843834651028,162.3664505471773","4,3,2,1","CORN CROP,CORN CROP,CORN CROP,CORN CROP","120,153.32668969135128,180,174.23231607541678","2,1,2,1","NETTLE WEED,NETTLE WEED,THISTLE WEED,THISTLE WEED","20,20,20,20","20,20,20,20","10,10,10,10","20,20,20,20","0,0,0,0","20,20,20,20","20,20,20,20","20,20,20,20","10,10,10,10","20,20,20,20","0,0,0,0","20,20,20,20","0,0,0,0","4544,1024,1628,839","12.856475273272833,14.931963073237444,14.578012200667033,18.708941891815144","33.32668969135127,10.915647466387368,-5.767683924583228,9.122274005205766","0","0"
"435","86","text","0","37","364745","0-0","","","","","","","","","","","","","","","","","","","","","","","","","","","","","","","","","","","","",""
"","","plant-game","0","38","379639","0-0","","200","160","4","CORN CROP","Left","200","120","8","THISTLE WEED","experimental","6","1,2,3,4,5,6,7,8","160,170.42794755280028,174.52568861471516,183.39533629726577,160,156.40996514911987,145.33014016198396,148.26375751294708","4,3,2,1,4,3,2,1","CORN CROP,CORN CROP,CORN CROP,CORN CROP,WHEAT CROP,WHEAT CROP,WHEAT CROP,WHEAT CROP","120,131.5784735802974,167.92478854465568,216.03354762588884,252.97607608169682,254.87053695674334,242.17523094614285,250.42589387812117","8,7,6,5,4,3,2,1","THISTLE WEED,THISTLE WEED,THISTLE WEED,THISTLE WEED,THISTLE WEED,THISTLE WEED,THISTLE WEED,THISTLE WEED","20,20,20,20,20,20,20,20","20,20,20,20,20,20,20,20","10,10,10,10,10,10,10,10","20,20,20,20,20,20,20,20","0,0,0,0,0,0,0,0","20,20,20,20,20,20,20,20","20,20,20,20,20,20,20,20","20,20,20,20,20,20,20,20","10,10,10,10,10,10,10,10","20,20,20,20,20,20,20,20","0,0,0,0,0,0,0,0","20,20,20,20,20,20,20,20","0,0,0,0,1,1,1,1","1986,404,597,948,2938,308,268,333","10.427947552800287,4.097741061914883,8.869647682550621,9.740413034589501,-3.5900348508801194,-11.07982498713592,2.9336173509631314,-26.04664749622755","11.578473580297421,36.34631496435827,48.108759081233146,36.94252845580798,1.894460875046513,-12.695306010600497,8.250662931978315,-18.14440490380948","0","0"
"530","86","text","0","39","380329","0-0","","","","","","","","","","","","","","","","","","","","","","","","","","","","","","","","","","","","",""
"","","plant-game","0","40","396622","0-0","","200","180","8","CORN CROP","Right","200","190","4","THISTLE WEED","experimental","7","1,2,3,4,5,6,7,8","190,186.11499661191817,183.01903928403993,199.49300542521385,160,152.3866866631728,148.37121508739864,184.68731059531746","4,3,2,1,4,3,2,1","THISTLE WEED,THISTLE WEED,THISTLE WEED,THISTLE WEED,NETTLE WEED,NETTLE WEED,NETTLE WEED,NETTLE WEED","180,180.43966505893226,181.0873133559284,202.05428512978887,216.7681130644343,212.33759014834445,155.48248640710614,187.8305646110071","8,7,6,5,4,3,2,1","CORN CROP,CORN CROP,CORN CROP,CORN CROP,CORN CROP,CORN CROP,CORN CROP,CORN CROP","0,0,0,0,0,0,0,0","20,20,20,20,20,20,20,20","10,10,10,10,10,10,10,10","20,20,20,20,20,20,20,20","20,20,20,20,20,20,20,20","20,20,20,20,20,20,20,20","0,0,0,0,0,0,0,0","20,20,20,20,20,20,20,20","10,10,10,10,10,10,10,10","20,20,20,20,20,20,20,20","20,20,20,20,20,20,20,20","20,20,20,20,20,20,20,20","0,0,0,1,0,0,1,1","2177,566,344,1703,2442,597,2407,826","-3.8850033880818406,-3.095957327878245,16.47396614117391,24.278386814527646,-7.613313336827182,-4.015471575774165,36.31609550791882,10.999011724143884","0.43966505893226543,0.6476482969961166,20.96697177386047,14.713827934645412,-4.430522916089839,-56.855103741238324,32.34807820390096,26.730179241309337","0","0"
"240","86","text","0","41","397002","0-0","","","","","","","","","","","","","","","","","","","","","","","","","","","","","","","","","","","","",""
"","","plant-game","0","42","409247","0-0","","200","160","4","WHEAT CROP","Left","200","180","8","NETTLE WEED","experimental","8","1,2,3,4,5,6,7,8","160,148.99126060818608,136.6345530038481,137.3485572437579,160,147.26318440144607,133.03311783594864,128.98065697291284","4,3,2,1,4,3,2,1","WHEAT CROP,WHEAT CROP,WHEAT CROP,WHEAT CROP,CORN CROP,CORN CROP,CORN CROP,CORN CROP","180,203.05309687889516,268.5721367811859,272.2700086452677,230.6905593470668,243.63960660397,252.131888922689,228.84193383471754","8,7,6,5,4,3,2,1","NETTLE WEED,NETTLE WEED,NETTLE WEED,NETTLE WEED,NETTLE WEED,NETTLE WEED,NETTLE WEED,NETTLE WEED","20,20,20,20,20,20,20,20","20,20,20,20,20,20,20,20","10,10,10,10,10,10,10,10","20,20,20,20,20,20,20,20","0,0,0,0,0,0,0,0","20,20,20,20,20,20,20,20","20,20,20,20,20,20,20,20","20,20,20,20,20,20,20,20","10,10,10,10,10,10,10,10","20,20,20,20,20,20,20,20","0,0,0,0,0,0,0,0","20,20,20,20,20,20,20,20","1,0,1,1,1,1,1,1","1101,777,1827,270,2010,908,250,167","-11.00873939181392,-12.356707604337963,0.7140042399097928,1.3729427824793041,-12.736815598553939,-14.230066565497436,-4.052460863035812,-2.0030612866079283","23.053096878895158,65.51903990229079,3.6978718640818,-41.57944929820089,12.949047256903226,8.492282318718994,-23.289955087971453,17.596960240943126","0","0"
"130","86","text","0","43","409567","0-0","","","","","","","","","","","","","","","","","","","","","","","","","","","","","","","","","","","","",""
"","","plant-game","0","44","419016","0-0","","200","190","1","WHEAT CROP","Right","200","180","4","THISTLE WEED","experimental","9","1,2,3,4","180,187.62407540075858,202.89026257238646,212.68210511708136","4,3,2,1","THISTLE WEED,THISTLE WEED,THISTLE WEED,THISTLE WEED","190,170,171.16125977655452,153.16350398741102","1,3,2,1","WHEAT CROP,CORN CROP,CORN CROP,CORN CROP","0,0,0,0","20,20,20,20","10,10,10,10","20,20,20,20","20,20,20,20","20,20,20,20","0,0,0,0","20,20,20,20","10,10,10,10","20,20,20,20","20,20,20,20","20,20,20,20","1,1,1,1","2130,753,601,244","7.624075400758585,15.26618717162787,9.79184254469489,14.37285859343611","4.195181676918306,1.1612597765545232,-17.99775578914349,-13.276057096934736","0","0"
"127","86","text","0","45","419263","0-0","","","","","","","","","","","","","","","","","","","","","","","","","","","","","","","","","","","","",""
"","","plant-game","0","46","427376","0-0","","200","190","1","WHEAT CROP","Left","200","190","1","THISTLE WEED","experimental","10","1","190","1","WHEAT CROP","190","1","THISTLE WEED","20","20","10","20","0","20","20","20","10","20","0","20","0","3797","6.937799021036344","17.269356896927942","0","0"
"640","86","text","0","47","428217","0-0","","","","","","","","","","","","","","","","","","","","","","","","","","","","","","","","","","","","",""
"","","plant-game","0","48","434803","0-0","","200","120","4","WHEAT CROP","Left","200","190","4","THISTLE WEED","experimental","11","1,2,3,4","120,115.41736003824931,129.61070877553334,167.25280050862702","4,3,2,1","WHEAT CROP,WHEAT CROP,WHEAT CROP,WHEAT CROP","190,187.3330978007505,214.00304077493485,259.0183271529174","4,3,2,1","THISTLE WEED,THISTLE WEED,THISTLE WEED,THISTLE WEED","20,20,20,20","20,20,20,20","10,10,10,10","20,20,20,20","0,0,0,0","20,20,20,20","20,20,20,20","20,20,20,20","10,10,10,10","20,20,20,20","0,0,0,0","20,20,20,20","0,0,0,0","2984,216,174,263","-4.582639961750683,14.19334873728404,37.64209173309367,4.329070007736053","-2.6669021992495026,26.669942974184355,45.01528637798252,30.884253168952018","0","0"
"86","86","text","0","49","435039","0-0","","","","","","","","","","","","","","","","","","","","","","","","","","","","","","","","","","","","",""
"","","plant-game","0","50","450249","0-0","","200","180","4","CORN CROP","Left","200","180","8","THISTLE WEED","experimental","12","1,2,3,4,5,6,7,8","180,212.38098547246503,199.91219787831284,219.19444464376778,160,157.0949403127561,176.94118761359346,203.93777216526084","4,3,2,1,4,3,2,1","CORN CROP,CORN CROP,CORN CROP,CORN CROP,WHEAT CROP,WHEAT CROP,WHEAT CROP,WHEAT CROP","180,197.96613262301165,189.04864454619485,221.32658036472526,212.71379097517664,196.53074504576978,213.94388362377276,244.8237843244426","8,7,6,5,4,3,2,1","THISTLE WEED,THISTLE WEED,THISTLE WEED,THISTLE WEED,THISTLE WEED,THISTLE WEED,THISTLE WEED,THISTLE WEED","20,20,20,20,20,20,20,20","20,20,20,20,20,20,20,20","10,10,10,10,10,10,10,10","20,20,20,20,20,20,20,20","0,0,0,0,0,0,0,0","20,20,20,20,20,20,20,20","20,20,20,20,20,20,20,20","20,20,20,20,20,20,20,20","10,10,10,10,10,10,10,10","20,20,20,20,20,20,20,20","0,0,0,0,0,0,0,0","20,20,20,20,20,20,20,20","0,1,0,1,1,0,0,0","2362,1099,1407,885,1179,1283,516,217","32.38098547246503,-12.468787594152184,19.282246765454957,-33.30771385235931,-2.9050596872439027,19.846247300837334,26.99658455166737,12.334583325026767","17.966132623011646,-8.917488076816806,32.277935818530395,-8.612789389548631,-16.183045929406852,17.413138578002997,30.879900700669864,17.53181643340267","0","0"
"96","86","text","0","51","450455","0-0","","","","","","","","","","","","","","","","","","","","","","","","","","","","","","","","","","","","",""
"","","plant-game","0","52","465279","0-0","","200","180","8","CORN CROP","Right","200","160","1","NETTLE WEED","experimental","13","1,2,3,4,5,6,7,8","160,130,148.49333954709493,182.56244635384715,173.99654704017607,195.82001858568023,194.57790536633553,175.7171118263242","1,7,6,5,4,3,2,1","NETTLE WEED,THISTLE WEED,THISTLE WEED,THISTLE WEED,THISTLE WEED,THISTLE WEED,THISTLE WEED,THISTLE WEED","180,187.2721071849848,224.91219763788718,249.94650694699675,293.8840938779595,267.12168726116414,284.4430387653145,262.99627871081725","8,7,6,5,4,3,2,1","CORN CROP,CORN CROP,CORN CROP,CORN CROP,CORN CROP,CORN CROP,CORN CROP,CORN CROP","0,0,0,0,0,0,0,0","20,20,20,20,20,20,20,20","10,10,10,10,10,10,10,10","20,20,20,20,20,20,20,20","20,20,20,20,20,20,20,20","20,20,20,20,20,20,20,20","0,0,0,0,0,0,0,0","20,20,20,20,20,20,20,20","10,10,10,10,10,10,10,10","20,20,20,20,20,20,20,20","20,20,20,20,20,20,20,20","20,20,20,20,20,20,20,20","1,1,1,0,0,0,0,0","1666,739,1080,1264,1330,1687,763,827","-29.335019249331552,18.493339547094923,34.06910680675222,-8.565899313671073,21.82347154550415,-1.2421132193446998,-18.860793540011308,-14.535306513331818","7.272107184984794,37.640090452902385,25.034309309109567,43.93758693096275,-26.762406616795396,17.32135150415036,-21.446760054497265,23.126454816003438","0","0"
"173","86","text","0","53","465592","0-0","","","","","","","","","","","","","","","","","","","","","","","","","","","","","","","","","","","","",""
"","","plant-game","0","54","475572","0-0","","200","120","4","CORN CROP","Right","200","160","2","NETTLE WEED","experimental","14","1,2,3,4","160,183.3093610787696,180,197.81285537373137","2,1,2,1","NETTLE WEED,NETTLE WEED,THISTLE WEED,THISTLE WEED","120,135.82726410543788,178.44479311772943,159.32797428973987","4,3,2,1","CORN CROP,CORN CROP,CORN CROP,CORN CROP","0,0,0,0","20,20,20,20","10,10,10,10","20,20,20,20","20,20,20,20","20,20,20,20","0,0,0,0","20,20,20,20","10,10,10,10","20,20,20,20","20,20,20,20","20,20,20,20","1,1,0,1","1527,2430,538,587","23.309361078769584,48.059821549288955,17.81285537373137,37.774694372716866","15.827264105437877,42.61752901229157,-19.116818827989558,44.184043431080546","0","0"
"486","86","text","0","55","476168","0-0","","","","","","","","","","","","","","","","","","","","","","","","","","","","","","","","","","","","",""
"","","plant-game","0","56","491553","0-0","","200","190","1","CORN CROP","Right","200","120","8","NETTLE WEED","experimental","15","1,2,3,4,5,6,7,8","120,128.67297700183775,182.1788856183459,179.1554898375032,195.6213805243534,167.42660346301523,171.24785303967147,158.98773504534984","8,7,6,5,4,3,2,1","NETTLE WEED,NETTLE WEED,NETTLE WEED,NETTLE WEED,NETTLE WEED,NETTLE WEED,NETTLE WEED,NETTLE WEED","190,130,141.00182155760464,152.12294837916986,118.3597182978686,104.79553274906657,148.3663690434672,206.3349147774918","1,7,6,5,4,3,2,1","CORN CROP,WHEAT CROP,WHEAT CROP,WHEAT CROP,WHEAT CROP,WHEAT CROP,WHEAT CROP,WHEAT CROP","0,0,0,0,0,0,0,0","20,20,20,20,20,20,20,20","10,10,10,10,10,10,10,10","20,20,20,20,20,20,20,20","20,20,20,20,20,20,20,20","20,20,20,20,20,20,20,20","0,0,0,0,0,0,0,0","20,20,20,20,20,20,20,20","10,10,10,10,10,10,10,10","20,20,20,20,20,20,20,20","20,20,20,20,20,20,20,20","20,20,20,20,20,20,20,20","1,1,0,0,0,1,1,1","4083,1169,1914,367,677,750,206,1423","8.672977001837756,53.50590861650815,-3.0233957808426917,16.465890686850212,-28.194777061338176,3.8212495766562355,-12.26011799432164,41.03427850059369","30.45313589188615,11.001821557604632,11.121126821565213,-33.763230081301266,-13.564185548802026,43.57083629440062,57.96854573402463,52.757579799494216","0","0"
"480","86","text","0","57","492183","0-0","","","","","","","","","","","","","","","","","","","","","","","","","","","","","","","","","","","","",""
"","","plant-game","0","58","508537","0-0","","200","190","8","WHEAT CROP","Right","200","190","2","THISTLE WEED","experimental","16","1,2,3,4,5,6,7,8","190,205.29786330200523,140,157.49117797118913,193.63668867242012,195.9673105013922,190.05478951054658,209.82535929200338","2,1,6,5,4,3,2,1","THISTLE WEED,THISTLE WEED,NETTLE WEED,NETTLE WEED,NETTLE WEED,NETTLE WEED,NETTLE WEED,NETTLE WEED","190,201.06992458622238,190.67180998116677,192.55922317732615,205.00465233428076,237.56365365517325,201.08980472298893,219.32055171249763","8,7,6,5,4,3,2,1","WHEAT CROP,WHEAT CROP,WHEAT CROP,WHEAT CROP,WHEAT CROP,WHEAT CROP,WHEAT CROP,WHEAT CROP","0,0,0,0,0,0,0,0","20,20,20,20,20,20,20,20","10,10,10,10,10,10,10,10","20,20,20,20,20,20,20,20","20,20,20,20,20,20,20,20","20,20,20,20,20,20,20,20","0,0,0,0,0,0,0,0","20,20,20,20,20,20,20,20","10,10,10,10,10,10,10,10","20,20,20,20,20,20,20,20","20,20,20,20,20,20,20,20","20,20,20,20,20,20,20,20","1,0,1,1,1,0,1,0","1227,3105,1699,346,1163,940,1035,972","15.297863302005215,-3.717540307935254,17.49117797118912,36.14551070123099,2.3306218289720775,-5.9125209908456124,19.77056978145679,-8.605327415127173","11.069924586222399,-10.3981146050556,1.8874131961593683,12.445429156954614,32.55900132089248,-36.47384893218433,18.23074698950869,0.3699938155808558","0","0"
"206","86","text","0","59","508874","0-0","","","","","","","","","","","","","","","","","","","","","","","","","","","","","","","","","","","","",""
"","","plant-game","0","60","514951","0-0","","200","180","4","WHEAT CROP","Right","200","120","4","THISTLE WEED","experimental","17","1,2,3,4","120,147.71900810465763,163.8588059286266,162.78664248174317","4,3,2,1","THISTLE WEED,THISTLE WEED,THISTLE WEED,THISTLE WEED","180,211.44097697062233,189.20039227972705,208.1197836548386","4,3,2,1","WHEAT CROP,WHEAT CROP,WHEAT CROP,WHEAT CROP","0,0,0,0","20,20,20,20","10,10,10,10","20,20,20,20","20,20,20,20","20,20,20,20","0,0,0,0","20,20,20,20","10,10,10,10","20,20,20,20","20,20,20,20","20,20,20,20","1,1,1,1","1488,630,402,546","27.71900810465762,16.13979782396896,-1.0721634468834331,1.7263416893986125","31.440976970622344,-22.24058469089529,18.91939137511156,5.275024425720211","0","0"
"156","86","text","0","61","515227","0-0","","","","","","","","","","","","","","","","","","","","","","","","","","","","","","","","","","","","",""
"","","plant-game","0","62","529441","0-0","","200","190","4","CORN CROP","Left","200","160","8","THISTLE WEED","experimental","18","1,2,3,4,5,6,7,8","190,208.7266731105315,208.76165902238296,239.98770047534634,160,183.62565715875783,237.06480749621073,273.9176623293952","4,3,2,1,4,3,2,1","CORN CROP,CORN CROP,CORN CROP,CORN CROP,WHEAT CROP,WHEAT CROP,WHEAT CROP,WHEAT CROP","160,192.30472528597804,196.0507165614387,216.52747464082557,251.86820380593963,260.1559532802166,246.9440598547689,258.64209668615086","8,7,6,5,4,3,2,1","THISTLE WEED,THISTLE WEED,THISTLE WEED,THISTLE WEED,THISTLE WEED,THISTLE WEED,THISTLE WEED,THISTLE WEED","20,20,20,20,20,20,20,20","20,20,20,20,20,20,20,20","10,10,10,10,10,10,10,10","20,20,20,20,20,20,20,20","0,0,0,0,0,0,0,0","20,20,20,20,20,20,20,20","20,20,20,20,20,20,20,20","20,20,20,20,20,20,20,20","10,10,10,10,10,10,10,10","20,20,20,20,20,20,20,20","0,0,0,0,0,0,0,0","20,20,20,20,20,20,20,20","0,0,0,1,0,0,0,0","3476,427,577,620,1641,199,683,240","18.72667311053149,0.034985911851471485,31.226041452963372,-13.756966593506307,23.625657158757825,53.439150337452915,36.85285483318451,40.818452861629396","32.30472528597803,3.745991275460664,20.476758079386894,35.34072916511406,8.287749474276932,-13.211893425447677,11.698036831381977,13.216424445884684","0","0"
"470","86","text","0","63","530098","0-0","","","","","","","","","","","","","","","","","","","","","","","","","","","","","","","","","","","","",""
"","","plant-game","0","64","540234","0-0","","200","180","8","CORN CROP","Right","200","120","1","THISTLE WEED","experimental","19","1,2,3,4,5,6,7,8","120,130,129.38790112140876,135.5347397672668,155.47218665830985,177.87119244122178,172.00175038722892,188.98109424548997","1,7,6,5,4,3,2,1","THISTLE WEED,NETTLE WEED,NETTLE WEED,NETTLE WEED,NETTLE WEED,NETTLE WEED,NETTLE WEED,NETTLE WEED","180,211.96396746068336,233.98007975264028,247.00713922507117,242.05791181597584,257.49153899682653,266.94377622533534,253.85104424914465","8,7,6,5,4,3,2,1","CORN CROP,CORN CROP,CORN CROP,CORN CROP,CORN CROP,CORN CROP,CORN CROP,CORN CROP","0,0,0,0,0,0,0,0","20,20,20,20,20,20,20,20","10,10,10,10,10,10,10,10","20,20,20,20,20,20,20,20","20,20,20,20,20,20,20,20","20,20,20,20,20,20,20,20","0,0,0,0,0,0,0,0","20,20,20,20,20,20,20,20","10,10,10,10,10,10,10,10","20,20,20,20,20,20,20,20","20,20,20,20,20,20,20,20","20,20,20,20,20,20,20,20","1,1,1,1,1,1,1,1","2612,553,378,132,115,196,327,647","21.592725600801227,-0.6120988785912438,6.146838645858052,19.937446891043052,22.399005782911935,-5.869442053992849,16.979343858261036,17.55592296410766","31.963967460683378,22.01611229195692,13.027059472430903,-4.949227409095336,15.433627180850669,9.452237228508814,-13.092731976190706,22.829161974259392","0","0"
"140","86","text","0","65","540484","0-0","","","","","","","","","","","","","","","","","","","","","","","","","","","","","","","","","","","","",""
"","","plant-game","0","66","549080","0-0","","200","180","8","CORN CROP","Left","200","180","8","NETTLE WEED","experimental","20","1,2,3,4,5,6,7,8","180,220.2837460540665,254.39490528796725,302.77059861859993,292.52147658993977,313.1898518539864,298.5797832204662,286.86533854435845","8,7,6,5,4,3,2,1","CORN CROP,CORN CROP,CORN CROP,CORN CROP,CORN CROP,CORN CROP,CORN CROP,CORN CROP","180,195.06598648729465,182.60021934482464,168.07381292203937,192.74961996948736,199.29793294412113,208.48737614204194,232.4187975046497","8,7,6,5,4,3,2,1","NETTLE WEED,NETTLE WEED,NETTLE WEED,NETTLE WEED,NETTLE WEED,NETTLE WEED,NETTLE WEED,NETTLE WEED","20,20,20,20,20,20,20,20","20,20,20,20,20,20,20,20","10,10,10,10,10,10,10,10","20,20,20,20,20,20,20,20","0,0,0,0,0,0,0,0","20,20,20,20,20,20,20,20","20,20,20,20,20,20,20,20","20,20,20,20,20,20,20,20","10,10,10,10,10,10,10,10","20,20,20,20,20,20,20,20","0,0,0,0,0,0,0,0","20,20,20,20,20,20,20,20","0,0,0,0,1,1,1,1","917,558,378,314,1069,580,604,544","40.283746054066505,34.11115923390074,48.37569333063268,-10.249122028660189,20.668375264046638,-14.610068633520196,-11.71444467610775,-4.314002703407066","15.065986487294646,-12.465767142470014,-14.526406422785278,24.675807047447996,6.548312974633777,9.189443197920822,23.93142136260775,8.769920772755901","0","0"
"114","86","text","0","67","549334","0-0","","","","","","","","","","","","","","","","","","","","","","","","","","","","","","","","","","","","",""
"","","plant-game","0","68","558797","0-0","","200","180","8","WHEAT CROP","Right","200","120","4","THISTLE WEED","experimental","21","1,2,3,4,5,6,7,8","120,123.06916101315298,118.16033029232298,104.39676534868647,160,196.5159408518578,263.6066535380602,270.3487631170474","4,3,2,1,4,3,2,1","THISTLE WEED,THISTLE WEED,THISTLE WEED,THISTLE WEED,NETTLE WEED,NETTLE WEED,NETTLE WEED,NETTLE WEED","180,209.63053142187303,224.03546549594515,224.98140501633944,234.66777630381017,254.26811999113508,234.57312993305257,239.32790596287506","8,7,6,5,4,3,2,1","WHEAT CROP,WHEAT CROP,WHEAT CROP,WHEAT CROP,WHEAT CROP,WHEAT CROP,WHEAT CROP,WHEAT CROP","0,0,0,0,0,0,0,0","20,20,20,20,20,20,20,20","10,10,10,10,10,10,10,10","20,20,20,20,20,20,20,20","20,20,20,20,20,20,20,20","20,20,20,20,20,20,20,20","0,0,0,0,0,0,0,0","20,20,20,20,20,20,20,20","10,10,10,10,10,10,10,10","20,20,20,20,20,20,20,20","20,20,20,20,20,20,20,20","20,20,20,20,20,20,20,20","1,1,1,1,1,0,0,0","1581,356,167,189,717,979,483,250","3.069161013152975,-4.908830720829993,-13.763564943636517,10.858293954435588,36.51594085185779,67.09071268620238,6.742109578987183,-15.26943465561092","29.630531421873037,14.404934074072125,0.9459395203942869,9.686371287470736,19.600343687324898,-19.69499005808252,4.7547760298225015,-1.5220788000246874","0","0"
"154","86","text","0","69","559091","0-0","","","","","","","","","","","","","","","","","","","","","","","","","","","","","","","","","","","","",""
"","","plant-game","0","70","566854","0-0","","200","180","1","CORN CROP","Left","200","190","2","NETTLE WEED","experimental","22","1,2","180,190","1,1","CORN CROP,WHEAT CROP","190,190.6091482916012","2,1","NETTLE WEED,NETTLE WEED","20,20","20,20","10,10","20,20","0,0","20,20","20,20","20,20","10,10","20,20","0,0","20,20","0,0","1776,940","5.891803248998812,-5.583644755533008","0.6091482916012119,25.229174235609268","0","0"
"437","86","text","0","71","567431","0-0","","","","","","","","","","","","","","","","","","","","","","","","","","","","","","","","","","","","",""
"","","plant-game","0","72","574384","0-0","","200","120","1","CORN CROP","Right","200","120","4","NETTLE WEED","experimental","23","1,2,3,4","120,131.1834732386617,177.32880784279075,191.62449976815319","4,3,2,1","NETTLE WEED,NETTLE WEED,NETTLE WEED,NETTLE WEED","120,170,185.9890137357436,220.35874789614053","1,3,2,1","CORN CROP,WHEAT CROP,WHEAT CROP,WHEAT CROP","0,0,0,0","20,20,20,20","10,10,10,10","20,20,20,20","20,20,20,20","20,20,20,20","0,0,0,0","20,20,20,20","10,10,10,10","20,20,20,20","20,20,20,20","20,20,20,20","1,1,1,0","1036,658,104,1196","11.183473238661685,46.145334604129076,14.295691925362437,3.0932881661841365","7.16462455924721,15.989013735743617,34.369734160396916,23.956193250624793","0","0"
"280","86","text","0","73","574824","0-0","","","","","","","","","","","","","","","","","","","","","","","","","","","","","","","","","","","","",""
"","","plant-game","0","74","584094","0-0","","200","190","2","CORN CROP","Left","200","120","4","THISTLE WEED","experimental","24","1,2,3,4","190,253.67840784676935,180,180.92383673729498","2,1,2,1","CORN CROP,CORN CROP,WHEAT CROP,WHEAT CROP","120,126.00107295129894,190.55621166319114,208.64819661525522","4,3,2,1","THISTLE WEED,THISTLE WEED,THISTLE WEED,THISTLE WEED","20,20,20,20","20,20,20,20","10,10,10,10","20,20,20,20","0,0,0,0","20,20,20,20","20,20,20,20","20,20,20,20","10,10,10,10","20,20,20,20","0,0,0,0","20,20,20,20","0,0,1,1","1703,1177,1270,910","63.67840784676933,32.883757121740224,0.9238367372949734,-3.66909759369186","6.001072951298934,64.5551387118922,18.091984952064077,-24.594588226582044","0","0"
"146","86","text","0","75","584400","0-0","","","","","","","","","","","","","","","","","","","","","","","","","","","","","","","","","","","","",""
"","","plant-game","0","76","599993","0-0","","200","160","1","WHEAT CROP","Right","200","190","8","NETTLE WEED","experimental","25","1,2,3,4,5,6,7,8","190,172.56301289002755,192.67011417619202,178.63441208523128,154.76902509063234,171.5187446907778,183.2793786106483,197.54272183365535","8,7,6,5,4,3,2,1","NETTLE WEED,NETTLE WEED,NETTLE WEED,NETTLE WEED,NETTLE WEED,NETTLE WEED,NETTLE WEED,NETTLE WEED","160,130,136.69212375306844,115.88105434631112,100.28686327027411,86.35861217092807,75.46875457634836,85.78975223723666","1,7,6,5,4,3,2,1","WHEAT CROP,CORN CROP,CORN CROP,CORN CROP,CORN CROP,CORN CROP,CORN CROP,CORN CROP","0,0,0,0,0,0,0,0","20,20,20,20,20,20,20,20","10,10,10,10,10,10,10,10","20,20,20,20,20,20,20,20","20,20,20,20,20,20,20,20","20,20,20,20,20,20,20,20","0,0,0,0,0,0,0,0","20,20,20,20,20,20,20,20","10,10,10,10,10,10,10,10","20,20,20,20,20,20,20,20","20,20,20,20,20,20,20,20","20,20,20,20,20,20,20,20","0,0,0,0,0,0,1,1","3349,3136,381,360,453,427,2300,132","-17.436987109972453,20.107101286164458,-14.035702090960747,-23.86538699459895,16.749719600145454,11.760633919870525,14.263343223007052,23.31266343918449","5.736207117465794,6.692123753068451,-20.811069406757333,-15.594191076037012,-13.928251099346035,-10.889857594579704,10.320997660888294,-9.553165062323117","0","0"
"437","86","text","0","77","600540","0-0","","","","","","","","","","","","","","","","","","","","","","","","","","","","","","","","","","","","",""
"","","plant-game","0","78","613466","0-0","","200","120","8","CORN CROP","Right","200","190","1","THISTLE WEED","experimental","26","1,2,3,4,5,6,7,8","190,130,141.92524064029624,185.34453174914242,176.71402870692893,184.41049295791393,215.35411857737736,216.82512138676785","1,7,6,5,4,3,2,1","THISTLE WEED,NETTLE WEED,NETTLE WEED,NETTLE WEED,NETTLE WEED,NETTLE WEED,NETTLE WEED,NETTLE WEED","120,158.88334112520317,197.66174070992807,223.15853734690467,243.3536853521265,252.79266725917287,243.34509963632448,229.68130599493762","8,7,6,5,4,3,2,1","CORN CROP,CORN CROP,CORN CROP,CORN CROP,CORN CROP,CORN CROP,CORN CROP,CORN CROP","0,0,0,0,0,0,0,0","20,20,20,20,20,20,20,20","10,10,10,10,10,10,10,10","20,20,20,20,20,20,20,20","20,20,20,20,20,20,20,20","20,20,20,20,20,20,20,20","0,0,0,0,0,0,0,0","20,20,20,20,20,20,20,20","10,10,10,10,10,10,10,10","20,20,20,20,20,20,20,20","20,20,20,20,20,20,20,20","20,20,20,20,20,20,20,20","1,1,1,0,0,0,0,0","2789,527,493,1309,501,464,1469,960","28.48316440033318,11.925240640296229,43.41929110884618,-8.630503042213496,7.6964642509850005,30.943625619463425,1.471002809390476,11.586071537475775","38.88334112520317,38.7783995847249,25.496796636976583,20.195148005221817,9.438981907046388,-9.4475676228484,-13.663793641386864,31.551298663696667","0","0"
"428","86","text","0","79","614021","0-0","","","","","","","","","","","","","","","","","","","","","","","","","","","","","","","","","","","","",""
"","","plant-game","0","80","621087","0-0","","200","120","2","CORN CROP","Right","200","180","2","THISTLE WEED","experimental","27","1,2","180,141.03971067194573","2,1","THISTLE WEED,THISTLE WEED","120,108.92358703003868","2,1","CORN CROP,CORN CROP","0,0","20,20","10,10","20,20","20,20","20,20","0,0","20,20","10,10","20,20","20,20","20,20","0,1","3067,1119","-38.96028932805426,15.829229712828592","-11.076412969961332,26.150699134074735","0","0"
"104","86","text","0","81","621341","0-0","","","","","","","","","","","","","","","","","","","","","","","","","","","","","","","","","","","","",""
"","","plant-game","0","82","629644","0-0","","200","160","4","WHEAT CROP","Right","200","190","4","NETTLE WEED","experimental","28","1,2,3,4","190,196.39908681595787,171.06959079177528,186.56830103397547","4,3,2,1","NETTLE WEED,NETTLE WEED,NETTLE WEED,NETTLE WEED","160,149.91354369933933,159.76999458460335,191.4115076652113","4,3,2,1","WHEAT CROP,WHEAT CROP,WHEAT CROP,WHEAT CROP","0,0,0,0","20,20,20,20","10,10,10,10","20,20,20,20","20,20,20,20","20,20,20,20","0,0,0,0","20,20,20,20","10,10,10,10","20,20,20,20","20,20,20,20","20,20,20,20","0,0,1,1","2539,884,751,1179","6.399086815957885,-25.329496024182575,15.498710242200197,4.358367705265529","-10.086456300660682,9.85645088526401,31.64151308060795,13.890978351492503","0","0"
"97","86","text","0","83","629871","0-0","","","","","","","","","","","","","","","","","","","","","","","","","","","","","","","","","","","","",""
"","","plant-game","0","84","640958","0-0","","200","120","2","WHEAT CROP","Left","200","180","4","THISTLE WEED","experimental","29","1,2,3,4","120,174.3766861026997,180,204.28908250259119","2,1,2,1","WHEAT CROP,WHEAT CROP,CORN CROP,CORN CROP","180,180.20354786238966,183.9959880439062,194.55065315188264","4,3,2,1","THISTLE WEED,THISTLE WEED,THISTLE WEED,THISTLE WEED","20,20,20,20","20,20,20,20","10,10,10,10","20,20,20,20","0,0,0,0","20,20,20,20","20,20,20,20","20,20,20,20","10,10,10,10","20,20,20,20","0,0,0,0","20,20,20,20","0,1,0,1","1484,2330,1926,717","54.37668610269969,7.396427081477484,24.289082502591178,9.29142475873816","0.20354786238964095,3.79244018151655,10.55466510797642,28.077398813287754","0","0"
"180","86","text","0","85","641288","0-0","","","","","","","","","","","","","","","","","","","","","","","","","","","","","","","","","","","","",""
"","","plant-game","0","86","648651","0-0","","200","190","4","WHEAT CROP","Right","200","190","4","THISTLE WEED","experimental","30","1,2,3,4","190,206.5427788068409,195.76978616640244,206.36901241955405","4,3,2,1","THISTLE WEED,THISTLE WEED,THISTLE WEED,THISTLE WEED","190,208.42859640940208,217.47380696547467,205.37457329575457","4,3,2,1","WHEAT CROP,WHEAT CROP,WHEAT CROP,WHEAT CROP","0,0,0,0","20,20,20,20","10,10,10,10","20,20,20,20","20,20,20,20","20,20,20,20","0,0,0,0","20,20,20,20","10,10,10,10","20,20,20,20","20,20,20,20","20,20,20,20","1,0,0,0","2480,677,650,633","16.5427788068409,-10.772992640438456,10.599226253151613,20.708618692793","18.428596409402065,9.045210556072588,-12.0992336697201,9.16564393851251","0","0"
"73","86","text","0","87","648851","0-0","","","","","","","","","","","","","","","","","","","","","","","","","","","","","","","","","","","","",""
"","","plant-game","0","88","657578","0-0","","200","180","2","CORN CROP","Left","200","120","4","THISTLE WEED","experimental","31","1,2,3,4","180,186.0923540630423,180,163.6118757908756","2,1,2,1","CORN CROP,CORN CROP,WHEAT CROP,WHEAT CROP","120,146.74469985420694,181.68070490264748,189.19266190962153","4,3,2,1","THISTLE WEED,THISTLE WEED,THISTLE WEED,THISTLE WEED","20,20,20,20","20,20,20,20","10,10,10,10","20,20,20,20","0,0,0,0","20,20,20,20","20,20,20,20","20,20,20,20","10,10,10,10","20,20,20,20","0,0,0,0","20,20,20,20","0,0,1,1","1885,355,761,1312","6.092354063042318,12.08688271494526,-16.388124209124406,14.740664675214656","26.744699854206928,34.93600504844053,7.511957006974049,45.74762317903929","0","0"
"126","86","text","0","89","657864","0-0","","","","","","","","","","","","","","","","","","","","","","","","","","","","","","","","","","","","",""
"","","plant-game","0","90","666260","0-0","","200","180","1","CORN CROP","Right","200","190","4","NETTLE WEED","experimental","32","1,2,3,4","190,216.19252013493127,241.05944711626083,229.81742949983624","4,3,2,1","NETTLE WEED,NETTLE WEED,NETTLE WEED,NETTLE WEED","180,170,207.30120217629707,205.17814027869818","1,3,2,1","CORN CROP,WHEAT CROP,WHEAT CROP,WHEAT CROP","0,0,0,0","20,20,20,20","10,10,10,10","20,20,20,20","20,20,20,20","20,20,20,20","0,0,0,0","20,20,20,20","10,10,10,10","20,20,20,20","20,20,20,20","20,20,20,20","1,1,1,1","1649,2393,293,536","26.19252013493127,24.86692698132955,-11.242017616424604,19.63874639655757","29.22094551726517,37.30120217629707,-2.123061897598877,38.858831912431356","0","0"
"84","86","text","0","91","666484","0-0","","","","","","","","","","","","","","","","","","","","","","","","","","","","","","","","","","","","",""
"","","plant-game","0","92","673357","0-0","","200","120","4","WHEAT CROP","Left","200","160","4","THISTLE WEED","experimental","33","1,2,3,4","120,151.41881395770417,181.15355129487227,199.3464304967237","4,3,2,1","WHEAT CROP,WHEAT CROP,WHEAT CROP,WHEAT CROP","160,181.6580058138583,233.3048309967703,285.09040129794727","4,3,2,1","THISTLE WEED,THISTLE WEED,THISTLE WEED,THISTLE WEED","20,20,20,20","20,20,20,20","10,10,10,10","20,20,20,20","0,0,0,0","20,20,20,20","20,20,20,20","20,20,20,20","10,10,10,10","20,20,20,20","0,0,0,0","20,20,20,20","0,0,0,0","2782,313,556,440","31.418813957704188,29.734737337168088,18.192879201851436,9.773783177483953","21.65800581385829,51.646825182912,51.78557030117694,22.37332441833714","0","0"
"470","86","text","0","93","673907","0-0","","","","","","","","","","","","","","","","","","","","","","","","","","","","","","","","","","","","",""
"","","plant-game","0","94","678260","0-0","","200","190","2","WHEAT CROP","Right","200","180","2","NETTLE WEED","experimental","34","1,2","180,203.24066696739882","2,1","NETTLE WEED,NETTLE WEED","190,192.02338617702617","2,1","WHEAT CROP,WHEAT CROP","0,0","20,20","10,10","20,20","20,20","20,20","0,0","20,20","10,10","20,20","20,20","20,20","1,1","1297,404","23.24066696739883,3.1793997097121434","2.023386177026161,44.388227030455674","0","0"
"710","86","text","0","95","679130","0-0","","","","","","","","","","","","","","","","","","","","","","","","","","","","","","","","","","","","",""
"","","plant-game","0","96","691748","0-0","","200","120","1","CORN CROP","Right","200","180","8","THISTLE WEED","experimental","35","1,2,3,4,5,6,7,8","180,179.9871293546563,186.44724412322358,194.3712877784208,232.03159965016727,258.557527717296,275.52012561093835,320.33089825255377","8,7,6,5,4,3,2,1","THISTLE WEED,THISTLE WEED,THISTLE WEED,THISTLE WEED,THISTLE WEED,THISTLE WEED,THISTLE WEED,THISTLE WEED","120,130,144.3594694751536,161.31638753985536,134.7293325875327,164.80175009801718,211.32240977449544,210.56916745967789","1,7,6,5,4,3,2,1","CORN CROP,WHEAT CROP,WHEAT CROP,WHEAT CROP,WHEAT CROP,WHEAT CROP,WHEAT CROP,WHEAT CROP","0,0,0,0,0,0,0,0","20,20,20,20,20,20,20,20","10,10,10,10,10,10,10,10","20,20,20,20,20,20,20,20","20,20,20,20,20,20,20,20","20,20,20,20,20,20,20,20","0,0,0,0,0,0,0,0","20,20,20,20,20,20,20,20","10,10,10,10,10,10,10,10","20,20,20,20,20,20,20,20","20,20,20,20,20,20,20,20","20,20,20,20,20,20,20,20","1,1,1,1,1,1,1,1","2221,1259,340,321,996,364,876,846","-0.012870645343710407,6.460114768567289,7.924043655197206,37.66031187174647,26.525928067128746,16.96259789364233,44.8107726416154,9.692946835149847","26.142166663703925,14.359469475153595,16.956918064701764,-26.58705495232266,30.07241751048449,46.52065967647826,-0.7532423148175482,-17.026323413565585","0","0"
"90","86","text","0","97","691968","0-0","","","","","","","","","","","","","","","","","","","","","","","","","","","","","","","","","","","","",""
"","","plant-game","0","98","695716","0-0","","200","180","1","CORN CROP","Right","200","180","1","NETTLE WEED","experimental","36","1","180","1","NETTLE WEED","180","1","CORN CROP","0","20","10","20","20","20","0","20","10","20","20","20","1","1246","-7.281538423469115","35.78190115945589","0","0"
"425","86","text","0","99","696261","0-0","","","","","","","","","","","","","","","","","","","","","","","","","","","","","","","","","","","","",""
"","","plant-game","0","100","706211","0-0","","200","160","8","WHEAT CROP","Left","200","160","8","NETTLE WEED","experimental","37","1,2,3,4,5,6,7,8","160,200.83534913188205,210.03654195829523,210.367111756445,207.9932871019708,224.5511748962626,230.81754231852227,203.20638749750458","8,7,6,5,4,3,2,1","WHEAT CROP,WHEAT CROP,WHEAT CROP,WHEAT CROP,WHEAT CROP,WHEAT CROP,WHEAT CROP,WHEAT CROP","160,173.75090689343685,186.44437174978935,182.24287118082617,153.2580280778537,139.2548440908562,141.8411559354356,147.76547506903268","8,7,6,5,4,3,2,1","NETTLE WEED,NETTLE WEED,NETTLE WEED,NETTLE WEED,NETTLE WEED,NETTLE WEED,NETTLE WEED,NETTLE WEED","20,20,20,20,20,20,20,20","20,20,20,20,20,20,20,20","10,10,10,10,10,10,10,10","20,20,20,20,20,20,20,20","0,0,0,0,0,0,0,0","20,20,20,20,20,20,20,20","20,20,20,20,20,20,20,20","20,20,20,20,20,20,20,20","10,10,10,10,10,10,10,10","20,20,20,20,20,20,20,20","0,0,0,0,0,0,0,0","20,20,20,20,20,20,20,20","0,0,1,1,1,1,1,0","1476,1054,637,709,653,773,527,623","40.835349131882055,9.201192826413184,0.33056979814978216,-2.373824654474209,16.557887794291815,6.266367422259655,-27.61115482101769,40.971509670435324","13.750906893436847,12.693464856352495,-4.2015005689631755,-28.98484310297247,-14.003183986997493,2.5863118445793982,5.92431913359707,32.30443804409765","0","0"
"603","86","text","0","101","706964","0-0","","","","","","","","","","","","","","","","","","","","","","","","","","","","","","","","","","","","",""
"","","plant-game","0","102","716162","0-0","","200","120","1","CORN CROP","Left","200","160","8","THISTLE WEED","experimental","38","1,2,3,4,5,6,7,8","120,130,125.30789826179523,115.2947079575268,102.41647488452544,97.50568128175898,119.34150475129995,144.84471875683423","1,7,6,5,4,3,2,1","CORN CROP,WHEAT CROP,WHEAT CROP,WHEAT CROP,WHEAT CROP,WHEAT CROP,WHEAT CROP,WHEAT CROP","160,194.29632502754725,199.78924201401603,166.02376428838272,154.46324348813977,149.1623982079942,124.33813255572841,136.210897442414","8,7,6,5,4,3,2,1","THISTLE WEED,THISTLE WEED,THISTLE WEED,THISTLE WEED,THISTLE WEED,THISTLE WEED,THISTLE WEED,THISTLE WEED","20,20,20,20,20,20,20,20","20,20,20,20,20,20,20,20","10,10,10,10,10,10,10,10","20,20,20,20,20,20,20,20","0,0,0,0,0,0,0,0","20,20,20,20,20,20,20,20","20,20,20,20,20,20,20,20","20,20,20,20,20,20,20,20","10,10,10,10,10,10,10,10","20,20,20,20,20,20,20,20","0,0,0,0,0,0,0,0","20,20,20,20,20,20,20,20","0,1,1,1,1,1,1,0","1328,1249,254,227,396,240,207,663","-15.078071452471384,-4.6921017382047765,-10.013190304268436,-12.878233073001349,-4.910793602766466,21.835823469540973,25.503214005534268,16.17026452839907","34.29632502754726,5.4929169864687655,-33.76547772563329,-11.560520800242944,-5.300845280145568,-24.824265652265783,11.87276488668559,4.495248016856351","0","0"
"105","86","text","0","103","716392","0-0","","","","","","","","","","","","","","","","","","","","","","","","","","","","","","","","","","","","",""
"","","plant-game","0","104","724312","0-0","","200","180","4","WHEAT CROP","Right","200","160","2","NETTLE WEED","experimental","39","1,2,3,4","160,185.56398535090187,180,181.122747665077","2,1,2,1","NETTLE WEED,NETTLE WEED,THISTLE WEED,THISTLE WEED","180,170.61606064117632,178.87672469551276,194.321494912504","4,3,2,1","WHEAT CROP,WHEAT CROP,WHEAT CROP,WHEAT CROP","0,0,0,0","20,20,20,20","10,10,10,10","20,20,20,20","20,20,20,20","20,20,20,20","0,0,0,0","20,20,20,20","10,10,10,10","20,20,20,20","20,20,20,20","20,20,20,20","1,1,1,1","1797,416,554,393","25.563985350901866,17.28960709941014,1.1227476650769965,12.316068999918063","-9.383939358823689,8.260664054336452,15.44477021699123,22.58371837212765","0","0"
"497","86","text","0","105","724929","0-0","","","","","","","","","","","","","","","","","","","","","","","","","","","","","","","","","","","","",""
"","","plant-game","0","106","736449","0-0","","200","180","2","WHEAT CROP","Right","200","190","4","THISTLE WEED","experimental","40","1,2,3,4","190,195.3613741270583,214.5770769282646,240.5062100666861","4,3,2,1","THISTLE WEED,THISTLE WEED,THISTLE WEED,THISTLE WEED","180,221.56652653664787,180,227.10403948517177","2,1,2,1","WHEAT CROP,WHEAT CROP,CORN CROP,CORN CROP","0,0,0,0","20,20,20,20","10,10,10,10","20,20,20,20","20,20,20,20","20,20,20,20","0,0,0,0","20,20,20,20","10,10,10,10","20,20,20,20","20,20,20,20","20,20,20,20","1,1,1,0","1025,2704,1638,1776","5.3613741270582835,19.215702801206298,25.929133138421477,14.452633179727192","41.56652653664786,-6.430818714348167,47.10403948517178,-5.705351967973929","1","0"
"369","86","text","0","107","736969","0-0","","","","","","","","","","","","","","","","","","","","","","","","","","","","","","","","","","","","",""
"","","plant-game","0","108","744231","0-0","","200","120","1","WHEAT CROP","Left","200","120","2","NETTLE WEED","experimental","41","1,2","120,190","1,1","WHEAT CROP,CORN CROP","120,144.16297717755887","2,1","NETTLE WEED,NETTLE WEED","20,20","20,20","10,10","20,20","0,0","20,20","20,20","20,20","10,10","20,20","0,0","20,20","0,0","2316,950","25.239270157631758,8.702627269232188","24.16297717755888,52.62454824132025","0","0"
"494","86","text","0","109","744825","0-0","","","","","","","","","","","","","","","","","","","","","","","","","","","","","","","","","","","","",""
"","","plant-game","0","110","748329","0-0","","200","190","1","WHEAT CROP","Left","200","120","1","THISTLE WEED","experimental","42","1","190","1","WHEAT CROP","120","1","THISTLE WEED","20","20","10","20","0","20","20","20","10","20","0","20","0","1104","17.47281416389596","50.17953600777557","0","0"
"446","86","text","0","111","748905","0-0","","","","","","","","","","","","","","","","","","","","","","","","","","","","","","","","","","","","",""
"","","plant-game","0","112","758222","0-0","","200","190","4","CORN CROP","Right","200","120","8","NETTLE WEED","experimental","43","1,2,3,4,5,6,7,8","120,148.16038701728388,132.294807142059,154.98837091428726,183.96591553906148,182.30148398843232,175.81631987735722,207.79028575368602","8,7,6,5,4,3,2,1","NETTLE WEED,NETTLE WEED,NETTLE WEED,NETTLE WEED,NETTLE WEED,NETTLE WEED,NETTLE WEED,NETTLE WEED","190,214.5682846975301,291.0564978621234,323.17913282648385,160,196.4026591490871,178.7893291394848,186.96967867739463","4,3,2,1,4,3,2,1","CORN CROP,CORN CROP,CORN CROP,CORN CROP,WHEAT CROP,WHEAT CROP,WHEAT CROP,WHEAT CROP","0,0,0,0,0,0,0,0","20,20,20,20,20,20,20,20","10,10,10,10,10,10,10,10","20,20,20,20,20,20,20,20","20,20,20,20,20,20,20,20","20,20,20,20,20,20,20,20","0,0,0,0,0,0,0,0","20,20,20,20,20,20,20,20","10,10,10,10,10,10,10,10","20,20,20,20,20,20,20,20","20,20,20,20,20,20,20,20","20,20,20,20,20,20,20,20","1,1,1,1,0,0,1,1","1203,1199,101,87,1228,342,580,540","28.160387017283867,-15.865579875224881,22.69356377222826,28.977544624774218,-1.6644315506291552,-6.48516411107512,31.97396587632879,14.40054304734638","24.568284697530075,76.48821316459333,32.122634964360415,33.56444518810128,36.40265914908709,-17.613330009602286,8.180349537909814,11.544568355858924","0","0"
"73","86","text","0","113","758445","0-0","","","","","","","","","","","","","","","","","","","","","","","","","","","","","","","","","","","","",""
"","","plant-game","0","114","762882","0-0","","200","180","2","WHEAT CROP","Left","200","120","2","THISTLE WEED","experimental","44","1,2","180,193.67918859207958","2,1","WHEAT CROP,WHEAT CROP","120,126.19233261326325","2,1","THISTLE WEED,THISTLE WEED","20,20","20,20","10,10","20,20","0,0","20,20","20,20","20,20","10,10","20,20","0,0","20,20","0,0","933,1138","13.67918859207959,9.762545010761288","6.192332613263243,36.6737784203934","0","0"
"110","86","text","0","115","763122","0-0","","","","","","","","","","","","","","","","","","","","","","","","","","","","","","","","","","","","",""
"","","plant-game","0","116","772865","0-0","","200","120","2","CORN CROP","Left","200","160","2","NETTLE WEED","experimental","45","1,2","120,142.32285755231732","2,1","CORN CROP,CORN CROP","160,196.3385239419532","2,1","NETTLE WEED,NETTLE WEED","20,20","20,20","10,10","20,20","0,0","20,20","20,20","20,20","10,10","20,20","0,0","20,20","0,0","5054,1487","22.322857552317306,17.42964047315096","36.33852394195321,-20.164131451834145","0","0"
"403","86","text","0","117","773378","0-0","","","","","","","","","","","","","","","","","","","","","","","","","","","","","","","","","","","","",""
"","","plant-game","0","118","784977","0-0","","200","190","1","WHEAT CROP","Left","200","180","8","NETTLE WEED","experimental","46","1,2,3,4,5,6,7,8","190,130,121.1657560167348,120.16416148894749,146.4510604982654,148.46805811053696,163.70872757817094,132.4241818416441","1,7,6,5,4,3,2,1","WHEAT CROP,CORN CROP,CORN CROP,CORN CROP,CORN CROP,CORN CROP,CORN CROP,CORN CROP","180,184.15767669529995,204.06989059743785,230.04965649630094,200.94160833256296,243.09755439630584,245.58789813984887,247.14201982049113","8,7,6,5,4,3,2,1","NETTLE WEED,NETTLE WEED,NETTLE WEED,NETTLE WEED,NETTLE WEED,NETTLE WEED,NETTLE WEED,NETTLE WEED","20,20,20,20,20,20,20,20","20,20,20,20,20,20,20,20","10,10,10,10,10,10,10,10","20,20,20,20,20,20,20,20","0,0,0,0,0,0,0,0","20,20,20,20,20,20,20,20","20,20,20,20,20,20,20,20","20,20,20,20,20,20,20,20","10,10,10,10,10,10,10,10","20,20,20,20,20,20,20,20","0,0,0,0,0,0,0,0","20,20,20,20,20,20,20,20","0,1,1,1,1,1,1,1","2084,1512,239,279,150,360,918,840","-0.40108285851145453,-8.834243983265191,-1.0015945277873202,26.286899009317935,2.0169976122715525,15.240669467633982,-31.284545736526827,-16.35895293822235","4.1576766952999495,19.912213902137882,25.979765898863086,-29.108048163737976,42.15594606374289,2.4903437435430407,1.5541216806422584,-4.24135102573867","0","0"
"476","86","text","0","119","785513","0-0","","","","","","","","","","","","","","","","","","","","","","","","","","","","","","","","","","","","",""
"","","plant-game","0","120","797413","0-0","","200","190","8","WHEAT CROP","Left","200","120","2","NETTLE WEED","experimental","47","1,2,3,4,5,6,7,8","190,213.75520817967836,276.6627756302414,314.24686069306756,303.2790595352653,307.6546389194173,315.5540443714083,367.2754849408017","8,7,6,5,4,3,2,1","WHEAT CROP,WHEAT CROP,WHEAT CROP,WHEAT CROP,WHEAT CROP,WHEAT CROP,WHEAT CROP,WHEAT CROP","120,147.74612272742468,140,155.0385084460028,129.68929105709398,138.7689238450682,157.10649570990046,179.2287755571255","2,1,6,5,4,3,2,1","NETTLE WEED,NETTLE WEED,THISTLE WEED,THISTLE WEED,THISTLE WEED,THISTLE WEED,THISTLE WEED,THISTLE WEED","20,20,20,20,20,20,20,20","20,20,20,20,20,20,20,20","10,10,10,10,10,10,10,10","20,20,20,20,20,20,20,20","0,0,0,0,0,0,0,0","20,20,20,20,20,20,20,20","20,20,20,20,20,20,20,20","20,20,20,20,20,20,20,20","10,10,10,10,10,10,10,10","20,20,20,20,20,20,20,20","0,0,0,0,0,0,0,0","20,20,20,20,20,20,20,20","0,0,0,0,0,0,0,1","1492,549,1172,374,397,343,977,1140","23.755208179678352,62.90756745056306,37.58408506282613,-10.967801157802263,4.375579384152029,7.8994054519909636,51.721440569393415,-24.11373089517797","27.746122727424666,1.7668613576229752,15.038508446002787,-25.349217388908805,9.079632787974221,18.33757186483227,22.122279847225027,29.579573518112866","0","0"
"80","86","text","0","121","797573","0-0","","","","","","","","","","","","","","","","","","","","","","","","","","","","","","","","","","","","",""
"","","plant-game","0","122","809402","0-0","","200","180","2","CORN CROP","Right","200","180","4","NETTLE WEED","experimental","48","1,2,3,4","180,171.80363960982058,227.39568542270058,243.87330354867927","4,3,2,1","NETTLE WEED,NETTLE WEED,NETTLE WEED,NETTLE WEED","180,247.62283332038726,180,166.75684291467152","2,1,2,1","CORN CROP,CORN CROP,WHEAT CROP,WHEAT CROP","0,0,0,0","20,20,20,20","10,10,10,10","20,20,20,20","20,20,20,20","20,20,20,20","0,0,0,0","20,20,20,20","10,10,10,10","20,20,20,20","20,20,20,20","20,20,20,20","1,1,0,0","2304,871,3967,143","-8.196360390179429,55.59204581288,16.477618125978704,-18.269194215229735","67.62283332038726,39.61471476088575,-13.243157085328466,-1.2028159739900703","0","0"
"155","86","text","0","123","809667","0-0","","","","","","","","","","","","","","","","","","","","","","","","","","","","","","","","","","","","",""
"","","plant-game","0","124","830201","0-0","","200","120","8","CORN CROP","Left","200","180","2","THISTLE WEED","experimental","49","1,2,3,4,5,6,7,8","120,100.92982241700157,89.52362604681588,106.52692616679508,125.1439891939432,125.60544202374194,126.66217759587961,155.48545995895898","8,7,6,5,4,3,2,1","CORN CROP,CORN CROP,CORN CROP,CORN CROP,CORN CROP,CORN CROP,CORN CROP,CORN CROP","180,160.1738274046537,140,167.55707213555894,165.3504613153573,183.1538603565198,201.1309522147683,270.81421190632307","2,1,6,5,4,3,2,1","THISTLE WEED,THISTLE WEED,NETTLE WEED,NETTLE WEED,NETTLE WEED,NETTLE WEED,NETTLE WEED,NETTLE WEED","20,20,20,20,20,20,20,20","20,20,20,20,20,20,20,20","10,10,10,10,10,10,10,10","20,20,20,20,20,20,20,20","0,0,0,0,0,0,0,0","20,20,20,20,20,20,20,20","20,20,20,20,20,20,20,20","20,20,20,20,20,20,20,20","10,10,10,10,10,10,10,10","20,20,20,20,20,20,20,20","0,0,0,0,0,0,0,0","20,20,20,20,20,20,20,20","1,1,0,0,0,0,0,0","4221,362,5469,171,375,546,1153,591","-19.070177582998426,-11.406196370185693,17.0033001199792,18.617063027148124,0.46145282979874835,1.056735572137665,28.82328236307937,6.175604647823967","-19.826172595346282,-9.112653513188716,27.55707213555893,-2.2066108202016395,17.803399041162493,17.977091858248517,69.68325969155478,5.070632399581832","0","0"
"1106","86","text","0","125","831397","0-0","","","","","","","","","","","","","","","","","","","","","","","","","","","","","","","","","","","","",""
"","","plant-game","0","126","839614","0-0","","200","180","2","WHEAT CROP","Right","200","160","1","THISTLE WEED","experimental","50","1,2","160,190","1,1","THISTLE WEED,NETTLE WEED","180,172.92317464020118","2,1","WHEAT CROP,WHEAT CROP","0,0","20,20","10,10","20,20","20,20","20,20","0,0","20,20","10,10","20,20","20,20","20,20","1,1","1839,1335","21.615839202944606,35.81558737744388","-7.076825359798818,20.578510074621175","0","0"
"470","86","text","0","127","840194","0-0","","","","","","","","","","","","","","","","","","","","","","","","","","","","","","","","","","","","",""
"","","plant-game","0","128","847960","0-0","","200","120","2","CORN CROP","Right","200","120","4","THISTLE WEED","experimental","51","1,2,3,4","120,114.44645325039382,139.56915396810564,156.6663356653292","4,3,2,1","THISTLE WEED,THISTLE WEED,THISTLE WEED,THISTLE WEED","120,141.8538426062863,180,227.28047655621836","2,1,2,1","CORN CROP,CORN CROP,WHEAT CROP,WHEAT CROP","0,0,0,0","20,20,20,20","10,10,10,10","20,20,20,20","20,20,20,20","20,20,20,20","0,0,0,0","20,20,20,20","10,10,10,10","20,20,20,20","20,20,20,20","20,20,20,20","1,1,1,1","1303,306,1310,809","-5.5535467496061806,25.122700717711822,17.097181697223547,-8.230709459472017","21.853842606286285,33.236751403992244,47.28047655621835,1.0213006635166337","0","0"
"890","86","text","0","129","848977","0-0","","","","","","","","","","","","","","","","","","","","","","","","","","","","","","","","","","","","",""
"","","plant-game","0","130","857601","0-0","","200","120","2","CORN CROP","Left","200","190","1","THISTLE WEED","experimental","52","1,2","120,108.14623969848074","2,1","CORN CROP,CORN CROP","190,190","1,1","THISTLE WEED,NETTLE WEED","20,20","20,20","10,10","20,20","0,0","20,20","20,20","20,20","10,10","20,20","0,0","20,20","1,1","3209,1276","-11.853760301519253,-46.039510442504145","-47.654668180252095,0.5797882897634705","0","0"
"902","86","text","0","131","858593","0-0","","","","","","","","","","","","","","","","","","","","","","","","","","","","","","","","","","","","",""
"","","plant-game","0","132","870480","0-0","","200","180","8","WHEAT CROP","Right","200","190","8","NETTLE WEED","experimental","53","1,2,3,4,5,6,7,8","190,187.13742828997758,216.12718938909399,185.73057648244853,188.6117592799948,137.74441077203025,145.45248313343598,166.74139167424622","8,7,6,5,4,3,2,1","NETTLE WEED,NETTLE WEED,NETTLE WEED,NETTLE WEED,NETTLE WEED,NETTLE WEED,NETTLE WEED,NETTLE WEED","180,203.2970349956674,224.13567550670396,247.11252578142958,251.02729745058366,233.6563054908551,211.8260078960576,219.98783025920113","8,7,6,5,4,3,2,1","WHEAT CROP,WHEAT CROP,WHEAT CROP,WHEAT CROP,WHEAT CROP,WHEAT CROP,WHEAT CROP,WHEAT CROP","0,0,0,0,0,0,0,0","20,20,20,20,20,20,20,20","10,10,10,10,10,10,10,10","20,20,20,20,20,20,20,20","20,20,20,20,20,20,20,20","20,20,20,20,20,20,20,20","0,0,0,0,0,0,0,0","20,20,20,20,20,20,20,20","10,10,10,10,10,10,10,10","20,20,20,20,20,20,20,20","20,20,20,20,20,20,20,20","20,20,20,20,20,20,20,20","1,1,0,0,0,0,1,1","3351,461,1477,725,412,406,1038,663","-2.8625717100224257,28.989761099116393,-30.396612906645455,2.881182797546273,-50.86734850796454,7.708072361405716,21.288908540810233,36.17642756157","23.297034995667378,20.838640511036562,22.97685027472561,3.914771669154091,-17.370991959728574,-21.83029759479747,8.161822363143521,26.966566780092034","0","0"
"413","86","text","0","133","870983","0-0","","","","","","","","","","","","","","","","","","","","","","","","","","","","","","","","","","","","",""
"","","plant-game","0","134","883670","0-0","","200","120","8","WHEAT CROP","Left","200","160","2","NETTLE WEED","experimental","54","1,2,3,4,5,6,7,8","120,130.9399101966209,107.53803111625973,109.48351890980769,93.9756287028562,91.11536167987609,78.01239966024036,50.05752417838281","8,7,6,5,4,3,2,1","WHEAT CROP,WHEAT CROP,WHEAT CROP,WHEAT CROP,WHEAT CROP,WHEAT CROP,WHEAT CROP,WHEAT CROP","160,158.51561776043332,140,148.42084362861243,186.5439138943553,177.32578486176146,148.7040222649779,152.15297157945","2,1,6,5,4,3,2,1","NETTLE WEED,NETTLE WEED,THISTLE WEED,THISTLE WEED,THISTLE WEED,THISTLE WEED,THISTLE WEED,THISTLE WEED","20,20,20,20,20,20,20,20","20,20,20,20,20,20,20,20","10,10,10,10,10,10,10,10","20,20,20,20,20,20,20,20","0,0,0,0,0,0,0,0","20,20,20,20,20,20,20,20","20,20,20,20,20,20,20,20","20,20,20,20,20,20,20,20","10,10,10,10,10,10,10,10","20,20,20,20,20,20,20,20","0,0,0,0,0,0,0,0","20,20,20,20,20,20,20,20","1,1,1,1,1,1,1,1","2997,223,2500,293,411,293,357,316","10.939910196620888,-23.40187908036117,1.9454877935479615,-15.50789020695149,-2.86026702298011,-13.102962019635726,-27.95487548185755,16.912749247766083","-1.484382239566695,-25.58777592254632,8.420843628612424,38.123070265742875,-9.218129032593854,-28.62176259678356,3.448949314472089,31.91136102363737","0","0"
"176","86","text","0","135","883936","0-0","","","","","","","","","","","","","","","","","","","","","","","","","","","","","","","","","","","","",""
"","","plant-game","0","136","891665","0-0","","200","160","1","WHEAT CROP","Right","200","190","4","THISTLE WEED","experimental","55","1,2,3,4","190,210.11124494154615,192.8378663958647,236.3623715073648","4,3,2,1","THISTLE WEED,THISTLE WEED,THISTLE WEED,THISTLE WEED","160,170,191.38819936962994,204.50064905952522","1,3,2,1","WHEAT CROP,CORN CROP,CORN CROP,CORN CROP","0,0,0,0","20,20,20,20","10,10,10,10","20,20,20,20","20,20,20,20","20,20,20,20","0,0,0,0","20,20,20,20","10,10,10,10","20,20,20,20","20,20,20,20","20,20,20,20","1,0,0,0","1310,1020,133,590","20.11124494154616,-17.273378545681453,43.52450511150012,6.323955023216391","19.543187430631807,21.38819936962996,13.112449689895264,-17.095213022083776","0","0"
"1552","86","text","0","137","893425","0-0","","","","","","","","","","","","","","","","","","","","","","","","","","","","","","","","","","","","",""
"","","plant-game","0","138","904200","0-0","","200","120","1","CORN CROP","Left","200","180","2","NETTLE WEED","experimental","56","1,2","120,190","1,1","CORN CROP,WHEAT CROP","180,206.473787258901","2,1","NETTLE WEED,NETTLE WEED","20,20","20,20","10,10","20,20","0,0","20,20","20,20","20,20","10,10","20,20","0,0","20,20","0,0","3861,2394","15.331601958573444,27.776782736540547","26.473787258901016,33.68801478354257","1","0"
"592","86","text","0","139","904872","0-0","","","","","","","","","","","","","","","","","","","","","","","","","","","","","","","","","","","","",""
"","","plant-game","0","140","915021","0-0","","200","120","2","CORN CROP","Left","200","160","1","THISTLE WEED","experimental","57","1,2","120,136.17913649982745","2,1","CORN CROP,CORN CROP","160,190","1,1","THISTLE WEED,NETTLE WEED","20,20","20,20","10,10","20,20","0,0","20,20","20,20","20,20","10,10","20,20","0,0","20,20","1,1","1821,1874","16.17913649982745,-26.804983820762818","-29.285353367255958,-9.781486540748759","6","0"
"2872","86","text","0","141","918043","0-0","","","","","","","","","","","","","","","","","","","","","","","","","","","","","","","","","","","","",""
"","","plant-game","0","142","922833","0-0","","200","120","2","WHEAT CROP","Left","200","190","2","THISTLE WEED","experimental","58","1,2","120,140.1695376282961","2,1","WHEAT CROP,WHEAT CROP","190,188.98488317278242","2,1","THISTLE WEED,THISTLE WEED","20,20","20,20","10,10","20,20","0,0","20,20","20,20","20,20","10,10","20,20","0,0","20,20","1,1","2342,250","20.169537628296112,13.755986251959577","-1.0151168272175854,-4.045137845306615","0","0"
"468","86","text","0","143","923410","0-0","","","","","","","","","","","","","","","","","","","","","","","","","","","","","","","","","","","","",""
"","","plant-game","0","144","928469","0-0","","200","190","4","WHEAT CROP","Left","200","120","4","NETTLE WEED","experimental","59","1,2,3,4","190,195.46953167561549,190.41012097403305,233.5440881145355","4,3,2,1","WHEAT CROP,WHEAT CROP,WHEAT CROP,WHEAT CROP","120,135.48473280817151,134.60871157679247,175.00610291754032","4,3,2,1","NETTLE WEED,NETTLE WEED,NETTLE WEED,NETTLE WEED","20,20,20,20","20,20,20,20","10,10,10,10","20,20,20,20","0,0,0,0","20,20,20,20","20,20,20,20","20,20,20,20","10,10,10,10","20,20,20,20","0,0,0,0","20,20,20,20","0,0,0,1","830,187,180,1121","5.469531675615475,-5.059410701582443,43.13396714050245,25.318508770801927","15.484732808171522,-0.876021231379049,40.39739134074785,15.32665561137863","0","0"
"410","86","text","0","145","928989","0-0","","","","","","","","","","","","","","","","","","","","","","","","","","","","","","","","","","","","",""
"","","plant-game","0","146","937419","0-0","","200","160","8","WHEAT CROP","Left","200","180","4","NETTLE WEED","experimental","60","1,2,3,4,5,6,7,8","160,148.7157292191738,122.52546684247129,138.42550724928168,139.6385921107952,155.31081629839017,181.4108990463825,181.13862999168674","8,7,6,5,4,3,2,1","WHEAT CROP,WHEAT CROP,WHEAT CROP,WHEAT CROP,WHEAT CROP,WHEAT CROP,WHEAT CROP,WHEAT CROP","180,211.90277297200663,227.50705016216182,217.94356404447018,160,212.34980496820017,222.18946570357951,249.9643359433216","4,3,2,1,4,3,2,1","NETTLE WEED,NETTLE WEED,NETTLE WEED,NETTLE WEED,THISTLE WEED,THISTLE WEED,THISTLE WEED,THISTLE WEED","20,20,20,20,20,20,20,20","20,20,20,20,20,20,20,20","10,10,10,10,10,10,10,10","20,20,20,20,20,20,20,20","0,0,0,0,0,0,0,0","20,20,20,20,20,20,20,20","20,20,20,20,20,20,20,20","20,20,20,20,20,20,20,20","10,10,10,10,10,10,10,10","20,20,20,20,20,20,20,20","0,0,0,0,0,0,0,0","20,20,20,20,20,20,20,20","0,1,1,1,0,0,0,0","1826,540,120,396,1437,134,80,66","-11.284270780826205,-26.190262376702506,15.900040406810378,1.2130848615135275,15.672224187594956,26.100082747992335,-0.2722690546957409,34.56443161838578","31.902772972006623,15.604277190155173,-9.563486117691625,-3.152674300692806,52.34980496820017,9.839660735379335,27.774870239742096,22.435082627051276","0","0"
"177","86","text","0","147","937675","0-0","","","","","","","","","","","","","","","","","","","","","","","","","","","","","","","","","","","","",""
"","","plant-game","0","148","947311","0-0","","200","160","2","WHEAT CROP","Right","200","180","8","THISTLE WEED","experimental","61","1,2,3,4,5,6,7,8","180,177.53419918879518,205.2902803451292,236.2262240325366,237.65013146049847,240.6486626029969,265.1555081853945,268.8111443035823","8,7,6,5,4,3,2,1","THISTLE WEED,THISTLE WEED,THISTLE WEED,THISTLE WEED,THISTLE WEED,THISTLE WEED,THISTLE WEED,THISTLE WEED","160,207.93086549465116,140,155.64035669878166,175.74198883841171,222.9170902501897,241.74418181699866,281.6285392085771","2,1,6,5,4,3,2,1","WHEAT CROP,WHEAT CROP,CORN CROP,CORN CROP,CORN CROP,CORN CROP,CORN CROP,CORN CROP","0,0,0,0,0,0,0,0","20,20,20,20,20,20,20,20","10,10,10,10,10,10,10,10","20,20,20,20,20,20,20,20","20,20,20,20,20,20,20,20","20,20,20,20,20,20,20,20","0,0,0,0,0,0,0,0","20,20,20,20,20,20,20,20","10,10,10,10,10,10,10,10","20,20,20,20,20,20,20,20","20,20,20,20,20,20,20,20","20,20,20,20,20,20,20,20","1,1,1,1,1,1,1,1","3413,115,1194,99,57,73,70,850","-2.465800811204815,27.756081156334005,30.935943687407423,1.4239074279618613,2.9985311424984182,24.50684558239765,3.6556361181877826,28.063738332717747","47.930865494651165,42.819675428461615,15.640356698781673,20.101632139630055,47.17510141177797,18.82709156680898,39.884357391578405,22.189164616918987","0","0"
"87","86","text","0","149","947558","0-0","","","","","","","","","","","","","","","","","","","","","","","","","","","","","","","","","","","","",""
"","","plant-game","0","150","954978","0-0","","200","180","2","CORN CROP","Right","200","180","8","THISTLE WEED","experimental","62","1,2,3,4,5,6,7,8","180,199.9170920833635,223.46106945900885,221.31098681988635,228.00898901288394,262.05859339990775,314.9546311618141,341.16677860871704","8,7,6,5,4,3,2,1","THISTLE WEED,THISTLE WEED,THISTLE WEED,THISTLE WEED,THISTLE WEED,THISTLE WEED,THISTLE WEED,THISTLE WEED","180,198.48410326548566,140,183.45209979513257,220.6035038427425,231.98431376195322,207.32597499753487,241.10683402255555","2,1,6,5,4,3,2,1","CORN CROP,CORN CROP,WHEAT CROP,WHEAT CROP,WHEAT CROP,WHEAT CROP,WHEAT CROP,WHEAT CROP","0,0,0,0,0,0,0,0","20,20,20,20,20,20,20,20","10,10,10,10,10,10,10,10","20,20,20,20,20,20,20,20","20,20,20,20,20,20,20,20","20,20,20,20,20,20,20,20","0,0,0,0,0,0,0,0","20,20,20,20,20,20,20,20","10,10,10,10,10,10,10,10","20,20,20,20,20,20,20,20","20,20,20,20,20,20,20,20","20,20,20,20,20,20,20,20","1,1,1,1,1,1,1,0","1405,105,1000,45,82,66,80,650","19.91709208336352,23.543977375645348,-2.1500826391224948,6.698002192997603,34.04960438702378,52.896037761906385,26.212147446902943,-2.2633115080448656","18.484103265485647,8.454284074395403,43.45209979513257,37.15140404760994,11.380809919210705,-24.658338764418346,33.78085902502068,-13.950760893656863","0","0"
"425","86","text","0","151","955523","0-0","","","","","","","","","","","","","","","","","","","","","","","","","","","","","","","","","","","","",""
"","","plant-game","0","152","964722","0-0","","200","120","1","WHEAT CROP","Left","200","190","8","NETTLE WEED","experimental","63","1,2,3,4,5,6,7,8","120,130,160.5721917059283,170.0906933764779,153.60994662759828,158.74417741473795,128.71455780973753,155.36470441133227","1,7,6,5,4,3,2,1","WHEAT CROP,CORN CROP,CORN CROP,CORN CROP,CORN CROP,CORN CROP,CORN CROP,CORN CROP","190,196.32607030443398,204.45480614713892,220.31349192166775,187.6989982673118,218.10087400731473,205.17247223255956,190.51111450578574","8,7,6,5,4,3,2,1","NETTLE WEED,NETTLE WEED,NETTLE WEED,NETTLE WEED,NETTLE WEED,NETTLE WEED,NETTLE WEED,NETTLE WEED","20,20,20,20,20,20,20,20","20,20,20,20,20,20,20,20","10,10,10,10,10,10,10,10","20,20,20,20,20,20,20,20","0,0,0,0,0,0,0,0","20,20,20,20,20,20,20,20","20,20,20,20,20,20,20,20","20,20,20,20,20,20,20,20","10,10,10,10,10,10,10,10","20,20,20,20,20,20,20,20","0,0,0,0,0,0,0,0","20,20,20,20,20,20,20,20","0,1,1,1,1,1,1,1","1108,3073,127,120,93,110,336,241","16.829431921039674,30.572191705928304,9.518501670549595,-16.480746748879625,5.134230787139662,-30.02961960500042,26.650146601594752,15.409824040863828","6.326070304433973,8.12873584270495,15.858685774528833,-32.61449365435595,30.40187574000294,-12.928401774755166,-14.661357726773819,18.10726644840272","0","0"
"200","86","text","0","153","965092","0-0","","","","","","","","","","","","","","","","","","","","","","","","","","","","","","","","","","","","",""
"","","plant-game","0","154","971618","0-0","","200","180","4","WHEAT CROP","Left","200","180","4","THISTLE WEED","experimental","64","1,2,3,4","180,169.77338565883736,150.64037998243924,131.84245538912282","4,3,2,1","WHEAT CROP,WHEAT CROP,WHEAT CROP,WHEAT CROP","180,182.9103606139077,220.4926568315512,270.5194983243399","4,3,2,1","THISTLE WEED,THISTLE WEED,THISTLE WEED,THISTLE WEED","20,20,20,20","20,20,20,20","10,10,10,10","20,20,20,20","0,0,0,0","20,20,20,20","20,20,20,20","20,20,20,20","10,10,10,10","20,20,20,20","0,0,0,0","20,20,20,20","0,0,0,0","3475,125,97,116","-10.226614341162652,-19.133005676398128,-18.797924593316424,29.998868918357502","2.9103606139076845,37.58229621764349,50.02684149278875,18.072529538961117","0","0"
"497","86","text","0","155","972215","0-0","","","","","","","","","","","","","","","","","","","","","","","","","","","","","","","","","","","","",""
"","","plant-game","0","156","985071","0-0","","200","160","8","WHEAT CROP","Left","200","190","8","NETTLE WEED","experimental","65","1,2,3,4,5,6,7,8","160,144.85613929710945,116.44836861992346,115.6864611832621,130.02403323029083,129.6260669410981,172.60608753550662,176.7819708589444","8,7,6,5,4,3,2,1","WHEAT CROP,WHEAT CROP,WHEAT CROP,WHEAT CROP,WHEAT CROP,WHEAT CROP,WHEAT CROP,WHEAT CROP","190,197.5171748696838,216.98224781901143,235.53592489742488,226.28533910847156,235.76594520802135,262.86532121891304,249.51936967809198","8,7,6,5,4,3,2,1","NETTLE WEED,NETTLE WEED,NETTLE WEED,NETTLE WEED,NETTLE WEED,NETTLE WEED,NETTLE WEED,NETTLE WEED","20,20,20,20,20,20,20,20","20,20,20,20,20,20,20,20","10,10,10,10,10,10,10,10","20,20,20,20,20,20,20,20","0,0,0,0,0,0,0,0","20,20,20,20,20,20,20,20","20,20,20,20,20,20,20,20","20,20,20,20,20,20,20,20","10,10,10,10,10,10,10,10","20,20,20,20,20,20,20,20","0,0,0,0,0,0,0,0","20,20,20,20,20,20,20,20","1,1,1,1,1,1,1,1","5584,269,202,186,155,270,373,617","-15.143860702890539,-28.407770677185987,-0.7619074366613574,14.337572047028742,-0.39796628919272603,42.98002059440854,4.1758833234377715,-1.958869356851725","7.517174869683796,19.465072949327634,18.553677078413457,-9.25058578895331,9.480606099549794,27.09937601089169,-13.345951540821059,-22.613854915132375","0","0"
"591","86","text","0","157","985852","0-0","","","","","","","","","","","","","","","","","","","","","","","","","","","","","","","","","","","","",""
"","","plant-game","0","158","995726","0-0","","200","160","2","WHEAT CROP","Left","200","120","8","THISTLE WEED","experimental","66","1,2,3,4,5,6,7,8","160,187.71857035464188,140,146.41025731423161,180.82121340129592,177.9953332418989,183.36328226203835,216.24615997228688","2,1,6,5,4,3,2,1","WHEAT CROP,WHEAT CROP,CORN CROP,CORN CROP,CORN CROP,CORN CROP,CORN CROP,CORN CROP","120,145.37001924231473,162.18642393336032,161.45049594253612,189.17867642250582,178.35775907476562,208.76785136309977,217.21051794133436","8,7,6,5,4,3,2,1","THISTLE WEED,THISTLE WEED,THISTLE WEED,THISTLE WEED,THISTLE WEED,THISTLE WEED,THISTLE WEED,THISTLE WEED","20,20,20,20,20,20,20,20","20,20,20,20,20,20,20,20","10,10,10,10,10,10,10,10","20,20,20,20,20,20,20,20","0,0,0,0,0,0,0,0","20,20,20,20,20,20,20,20","20,20,20,20,20,20,20,20","20,20,20,20,20,20,20,20","10,10,10,10,10,10,10,10","20,20,20,20,20,20,20,20","0,0,0,0,0,0,0,0","20,20,20,20,20,20,20,20","0,0,0,0,0,0,0,1","1108,329,1176,324,600,490,710,1003","27.718570354641894,84.26923663823422,6.41025731423162,34.410956087064314,-2.825880159397016,5.36794902013945,32.882877710248515,19.09964863150649","25.37001924231472,16.816404691045594,-0.7359279908241803,27.72818047996968,-10.820917347740178,30.410092288334134,8.442666578234594,-4.411248868406582","0","0"
"120","86","text","0","159","995966","0-0","","","","","","","","","","","","","","","","","","","","","","","","","","","","","","","","","","","","",""
"","","plant-game","0","160","1007595","0-0","","200","190","2","CORN CROP","Right","200","120","8","NETTLE WEED","experimental","67","1,2,3,4,5,6,7,8","120,107.52082357701968,125.58218022816943,136.57387129351375,172.45918960924007,173.5261430818415,147.1926655060308,173.1328684287846","8,7,6,5,4,3,2,1","NETTLE WEED,NETTLE WEED,NETTLE WEED,NETTLE WEED,NETTLE WEED,NETTLE WEED,NETTLE WEED,NETTLE WEED","190,200.0843813438252,140,170.50210304022312,191.71900529954738,187.8200318833716,162.24198659600603,142.9219245206005","2,1,6,5,4,3,2,1","CORN CROP,CORN CROP,WHEAT CROP,WHEAT CROP,WHEAT CROP,WHEAT CROP,WHEAT CROP,WHEAT CROP","0,0,0,0,0,0,0,0","20,20,20,20,20,20,20,20","10,10,10,10,10,10,10,10","20,20,20,20,20,20,20,20","20,20,20,20,20,20,20,20","20,20,20,20,20,20,20,20","0,0,0,0,0,0,0,0","20,20,20,20,20,20,20,20","10,10,10,10,10,10,10,10","20,20,20,20,20,20,20,20","20,20,20,20,20,20,20,20","20,20,20,20,20,20,20,20","1,1,1,1,0,0,1,1","979,604,704,340,1571,771,1415,1113","-12.479176422980316,18.06135665114975,10.991691065344307,35.88531831572634,1.0669534726014134,-26.333477575810686,25.940202922753798,32.688367726321694","10.084381343825209,10.665028440114977,30.502103040223105,21.216902259324257,-3.8989734161757887,-25.578045287365576,-19.320062075405524,-2.4535276197646674","0","0"
"604","86","text","0","161","1008399","0-0","","","","","","","","","","","","","","","","","","","","","","","","","","","","","","","","","","","","",""
"","","plant-game","0","162","1015654","0-0","","200","190","4","CORN CROP","Right","200","120","1","THISTLE WEED","experimental","68","1,2,3,4","120,170,160.6691432726089,191.11143541005157","1,3,2,1","THISTLE WEED,NETTLE WEED,NETTLE WEED,NETTLE WEED","190,185.87063247876276,212.5233525970601,237.03823882365634","4,3,2,1","CORN CROP,CORN CROP,CORN CROP,CORN CROP","0,0,0,0","20,20,20,20","10,10,10,10","20,20,20,20","20,20,20,20","20,20,20,20","0,0,0,0","20,20,20,20","10,10,10,10","20,20,20,20","20,20,20,20","20,20,20,20","1,1,1,0","1168,797,575,738","23.311085843910604,-9.330856727391122,30.442292137442664,11.485167100277305","-4.129367521237242,26.65272011829733,24.51488622659625,-6.130280780685333","0","0"
"511","86","text","0","163","1016287","0-0","","","","","","","","","","","","","","","","","","","","","","","","","","","","","","","","","","","","",""
"","","plant-game","0","164","1032095","0-0","","200","180","2","CORN CROP","Right","200","190","8","THISTLE WEED","experimental","69","1,2,3,4,5,6,7,8","190,193.4173364324315,237.5768379054996,243.00585995516101,261.3399936939701,272.9008065674978,294.55656894627435,304.0877725075715","8,7,6,5,4,3,2,1","THISTLE WEED,THISTLE WEED,THISTLE WEED,THISTLE WEED,THISTLE WEED,THISTLE WEED,THISTLE WEED,THISTLE WEED","180,215.38957837867963,140,158.00670159151073,160.31430938335478,191.93469908819003,192.03964824047478,235.98450219098797","2,1,6,5,4,3,2,1","CORN CROP,CORN CROP,WHEAT CROP,WHEAT CROP,WHEAT CROP,WHEAT CROP,WHEAT CROP,WHEAT CROP","0,0,0,0,0,0,0,0","20,20,20,20,20,20,20,20","10,10,10,10,10,10,10,10","20,20,20,20,20,20,20,20","20,20,20,20,20,20,20,20","20,20,20,20,20,20,20,20","0,0,0,0,0,0,0,0","20,20,20,20,20,20,20,20","10,10,10,10,10,10,10,10","20,20,20,20,20,20,20,20","20,20,20,20,20,20,20,20","20,20,20,20,20,20,20,20","1,1,1,1,1,1,1,1","9077,653,885,308,291,264,101,142","3.417336432431501,44.15950147306809,5.429022049661437,18.334133738809072,11.560812873527706,21.655762378776547,9.53120356129718,8.835020042146509","35.38957837867963,5.4705755499203335,18.006701591510726,2.3076077918440454,31.620389704835244,0.10494915228476032,43.94485395051319,-40.19803489217669","0","1"
"89","86","text","0","165","1032336","0-0","","","","","","","","","","","","","","","","","","","","","","","","","","","","","","","","","","","","",""
"","","plant-game","0","166","1049230","0-0","","200","180","8","CORN CROP","Left","200","120","2","THISTLE WEED","experimental","70","1,2,3,4,5,6,7,8","180,215.91553048052984,257.2715538865574,311.29721974641944,355.54202905571736,351.9944200447691,338.997287582467,327.1259786425642","8,7,6,5,4,3,2,1","CORN CROP,CORN CROP,CORN CROP,CORN CROP,CORN CROP,CORN CROP,CORN CROP,CORN CROP","120,110.93336416577839,140,141.86584518929118,158.51507047431951,146.04678610427425,104.26672079509228,98.586623196411","2,1,6,5,4,3,2,1","THISTLE WEED,THISTLE WEED,NETTLE WEED,NETTLE WEED,NETTLE WEED,NETTLE WEED,NETTLE WEED,NETTLE WEED","20,20,20,20,20,20,20,20","20,20,20,20,20,20,20,20","10,10,10,10,10,10,10,10","20,20,20,20,20,20,20,20","0,0,0,0,0,0,0,0","20,20,20,20,20,20,20,20","20,20,20,20,20,20,20,20","20,20,20,20,20,20,20,20","10,10,10,10,10,10,10,10","20,20,20,20,20,20,20,20","0,0,0,0,0,0,0,0","20,20,20,20,20,20,20,20","0,0,0,0,1,1,1,1","7679,819,744,352,1966,302,422,460","35.91553048052984,41.35602340602753,54.025665859862066,44.2448093092979,-3.5476090109482654,-12.997132462302083,-11.871308939902832,-39.38141279717959","-9.066635834221621,23.953651494593803,1.8658451892911643,16.649225285028347,-12.468284370045259,-41.78006530918196,-5.680097598681283,3.4323752231764386","1","1"
"410","86","text","0","167","1049800","0-0","","","","","","","","","","","","","","","","","","","","","","","","","","","","","","","","","","","","",""
"","","plant-game","0","168","1058045","0-0","","200","180","2","WHEAT CROP","Right","200","120","8","THISTLE WEED","experimental","71","1,2,3,4,5,6,7,8","120,143.98124270933022,154.08655526684623,170.98436579718074,208.2500077427309,200.55612881391977,224.56080590469634,234.17647971189453","8,7,6,5,4,3,2,1","THISTLE WEED,THISTLE WEED,THISTLE WEED,THISTLE WEED,THISTLE WEED,THISTLE WEED,THISTLE WEED,THISTLE WEED","180,191.9782466552078,140,158.683544221389,138.39459994327743,138.26454411551498,124.91094628528168,122.01721117127552","2,1,6,5,4,3,2,1","WHEAT CROP,WHEAT CROP,CORN CROP,CORN CROP,CORN CROP,CORN CROP,CORN CROP,CORN CROP","0,0,0,0,0,0,0,0","20,20,20,20,20,20,20,20","10,10,10,10,10,10,10,10","20,20,20,20,20,20,20,20","20,20,20,20,20,20,20,20","20,20,20,20,20,20,20,20","0,0,0,0,0,0,0,0","20,20,20,20,20,20,20,20","10,10,10,10,10,10,10,10","20,20,20,20,20,20,20,20","20,20,20,20,20,20,20,20","20,20,20,20,20,20,20,20","1,1,0,0,0,0,0,0","898,373,1059,412,443,153,378,193","23.981242709330207,10.10531255751603,16.897810530334517,37.26564194555015,-7.693878928811129,24.004677090776557,9.615673807198185,-0.17903769226048866","11.97824665520782,8.730964875607137,18.683544221389006,-20.28894427811158,-0.1300558277624533,-13.35359783023329,-2.8937351140061662,-1.5688224728831954","0","0"
"210","86","text","0","169","1058353","0-0","","","","","","","","","","","","","","","","","","","","","","","","","","","","","","","","","","","","",""
"","","plant-game","0","170","1064485","0-0","","200","160","4","WHEAT CROP","Right","200","160","4","NETTLE WEED","experimental","72","1,2,3,4","160,189.43224527591488,232.8711496609285,252.78222167470534","4,3,2,1","NETTLE WEED,NETTLE WEED,NETTLE WEED,NETTLE WEED","160,155.20476063178006,182.2058941821866,214.71731266303286","4,3,2,1","WHEAT CROP,WHEAT CROP,WHEAT CROP,WHEAT CROP","0,0,0,0","20,20,20,20","10,10,10,10","20,20,20,20","20,20,20,20","20,20,20,20","0,0,0,0","20,20,20,20","10,10,10,10","20,20,20,20","20,20,20,20","20,20,20,20","1,1,1,1","2056,535,400,821","29.432245275914887,43.438904385013615,19.911072013776845,-8.795247420971386","-4.795239368219942,27.001133550406546,32.51141848084626,35.624028772325914","0","0"
"107","86","text","0","171","1064782","0-0","","","","","","","","","","","","","","","","","","","","","","","","","","","","","","","","","","","","",""
"","","plant-game","0","172","1072105","0-0","","200","180","4","WHEAT CROP","Right","200","190","1","THISTLE WEED","experimental","73","1,2,3,4","190,170,160.38007319059602,189.03657680755765","1,3,2,1","THISTLE WEED,NETTLE WEED,NETTLE WEED,NETTLE WEED","180,198.93527121853228,238.93621039593654,297.84513696302093","4,3,2,1","WHEAT CROP,WHEAT CROP,WHEAT CROP,WHEAT CROP","0,0,0,0","20,20,20,20","10,10,10,10","20,20,20,20","20,20,20,20","20,20,20,20","0,0,0,0","20,20,20,20","10,10,10,10","20,20,20,20","20,20,20,20","20,20,20,20","1,1,1,0","685,746,730,1020","-0.32368765547595757,-9.619926809403974,28.656503616961622,15.038512362142033","18.935271218532275,40.00093917740426,58.90892656708439,8.787450809332261","0","0"
"103","86","text","0","173","1072348","0-0","","","","","","","","","","","","","","","","","","","","","","","","","","","","","","","","","","","","",""
"","","plant-game","0","174","1079345","0-0","","200","120","1","CORN CROP","Left","200","120","1","THISTLE WEED","experimental","74","1","120","1","CORN CROP","120","1","THISTLE WEED","20","20","10","20","0","20","20","20","10","20","0","20","0","4105","-5.849183083035555","31.491002991693147","0","0"
"286","86","text","0","175","1079751","0-0","","","","","","","","","","","","","","","","","","","","","","","","","","","","","","","","","","","","",""
"","","plant-game","0","176","1090513","0-0","","200","190","8","WHEAT CROP","Left","200","190","8","NETTLE WEED","experimental","75","1,2,3,4,5,6,7,8","190,215.9960931429729,232.44225952879628,252.56926911781153,228.02860649373372,231.11120482057305,253.11421178322166,267.57756574316556","8,7,6,5,4,3,2,1","WHEAT CROP,WHEAT CROP,WHEAT CROP,WHEAT CROP,WHEAT CROP,WHEAT CROP,WHEAT CROP,WHEAT CROP","190,190.99214553781954,199.8250244674212,195.19655204188376,192.11535543986565,210.98724624289827,229.86210255549335,253.67387951447475","8,7,6,5,4,3,2,1","NETTLE WEED,NETTLE WEED,NETTLE WEED,NETTLE WEED,NETTLE WEED,NETTLE WEED,NETTLE WEED,NETTLE WEED","20,20,20,20,20,20,20,20","20,20,20,20,20,20,20,20","10,10,10,10,10,10,10,10","20,20,20,20,20,20,20,20","0,0,0,0,0,0,0,0","20,20,20,20,20,20,20,20","20,20,20,20,20,20,20,20","20,20,20,20,20,20,20,20","10,10,10,10,10,10,10,10","20,20,20,20,20,20,20,20","0,0,0,0,0,0,0,0","20,20,20,20,20,20,20,20","0,0,1,1,0,0,1,1","2193,1197,1029,424,832,835,517,500","25.99609314297292,16.446166385823386,20.127009589015245,-24.540662624077818,3.0825983268393244,22.003006962648627,14.463353959943896,0.37424826629630753","0.9921455378195354,8.832878929601677,-4.628472425537443,-3.0811966020181187,18.871890803032628,18.874856312595078,23.8117769589814,-8.791574528996003","0","0"
"495","86","text","0","177","1091173","0-0","","","","","","","","","","","","","","","","","","","","","","","","","","","","","","","","","","","","",""
"","","plant-game","0","178","1099516","0-0","","200","190","4","CORN CROP","Left","200","180","8","NETTLE WEED","experimental","76","1,2,3,4,5,6,7,8","190,175.04237173013516,182.24499913430148,197.37979713791125,160,189.04326411596347,191.04838209534753,215.25132677659934","4,3,2,1,4,3,2,1","CORN CROP,CORN CROP,CORN CROP,CORN CROP,WHEAT CROP,WHEAT CROP,WHEAT CROP,WHEAT CROP","180,238.30023623289816,262.9568244392047,311.2168903396306,314.72921503579045,340.27086428817887,383.04224119141367,400.2726081352122","8,7,6,5,4,3,2,1","NETTLE WEED,NETTLE WEED,NETTLE WEED,NETTLE WEED,NETTLE WEED,NETTLE WEED,NETTLE WEED,NETTLE WEED","20,20,20,20,20,20,20,20","20,20,20,20,20,20,20,20","10,10,10,10,10,10,10,10","20,20,20,20,20,20,20,20","0,0,0,0,0,0,0,0","20,20,20,20,20,20,20,20","20,20,20,20,20,20,20,20","20,20,20,20,20,20,20,20","10,10,10,10,10,10,10,10","20,20,20,20,20,20,20,20","0,0,0,0,0,0,0,0","20,20,20,20,20,20,20,20","0,0,0,0,0,0,0,0","737,464,167,146,1057,341,326,910","-14.957628269864848,7.202627404166332,15.13479800360978,-14.459806260887078,29.043264115963467,2.0051179793840674,24.202944681251804,8.50914685965581","58.30023623289817,24.656588206306562,48.260065900425886,3.51232469615983,25.541649252388446,42.77137690323478,17.230366943798497,32.60091132299091","0","0"
"414","86","text","0","179","1100080","0-0","","","","","","","","","","","","","","","","","","","","","","","","","","","","","","","","","","","","",""
"","","plant-game","0","180","1105936","0-0","","200","120","8","WHEAT CROP","Right","200","160","8","NETTLE WEED","experimental","77","1,2,3,4,5,6,7,8","160,149.87120087285768,197.753170013948,228.24499351575852,274.6945158037267,303.180967313774,330.05073057207494,385.549932581362","8,7,6,5,4,3,2,1","NETTLE WEED,NETTLE WEED,NETTLE WEED,NETTLE WEED,NETTLE WEED,NETTLE WEED,NETTLE WEED,NETTLE WEED","120,90.8085898469185,108.8231827772598,103.72356004180321,108.11875915315089,118.55043569010378,140.11743857209777,133.9495321899471","8,7,6,5,4,3,2,1","WHEAT CROP,WHEAT CROP,WHEAT CROP,WHEAT CROP,WHEAT CROP,WHEAT CROP,WHEAT CROP,WHEAT CROP","0,0,0,0,0,0,0,0","20,20,20,20,20,20,20,20","10,10,10,10,10,10,10,10","20,20,20,20,20,20,20,20","20,20,20,20,20,20,20,20","20,20,20,20,20,20,20,20","0,0,0,0,0,0,0,0","20,20,20,20,20,20,20,20","10,10,10,10,10,10,10,10","20,20,20,20,20,20,20,20","20,20,20,20,20,20,20,20","20,20,20,20,20,20,20,20","1,1,1,1,1,1,1,1","1342,623,136,140,182,77,67,66","-10.128799127142322,47.8819691410903,30.491823501810522,46.449522287968165,28.48645151004726,26.86976325830098,55.49920200928706,-3.4825251524052163","-29.1914101530815,18.014592930341315,-5.099622735456592,4.395199111347685,10.431676536952894,21.567002881993993,-6.16790638215069,43.064672842150365","0","0"
"720","86","text","0","181","1106746","0-0","","","","","","","","","","","","","","","","","","","","","","","","","","","","","","","","","","","","",""
"","","plant-game","0","182","1114990","0-0","","200","120","8","WHEAT CROP","Right","200","180","4","THISTLE WEED","experimental","78","1,2,3,4,5,6,7,8","180,166.01522688223508,186.81026592660166,207.8088758957304,160,186.04908564079307,229.56180386164016,222.81133568588723","4,3,2,1,4,3,2,1","THISTLE WEED,THISTLE WEED,THISTLE WEED,THISTLE WEED,NETTLE WEED,NETTLE WEED,NETTLE WEED,NETTLE WEED","120,125.79193262978339,152.00187738592655,162.1694220684456,212.26458315576969,224.78839920994037,230.70450019496525,281.00334963249696","8,7,6,5,4,3,2,1","WHEAT CROP,WHEAT CROP,WHEAT CROP,WHEAT CROP,WHEAT CROP,WHEAT CROP,WHEAT CROP,WHEAT CROP","0,0,0,0,0,0,0,0","20,20,20,20,20,20,20,20","10,10,10,10,10,10,10,10","20,20,20,20,20,20,20,20","20,20,20,20,20,20,20,20","20,20,20,20,20,20,20,20","0,0,0,0,0,0,0,0","20,20,20,20,20,20,20,20","10,10,10,10,10,10,10,10","20,20,20,20,20,20,20,20","20,20,20,20,20,20,20,20","20,20,20,20,20,20,20,20","1,1,1,1,1,1,1,1","1433,72,66,90,1574,59,63,593","-13.984773117764924,20.79503904436657,20.99860996912876,10.567758189382474,26.049085640793066,43.51271822084708,-6.750468175752925,15.810511316289283","5.791932629783387,26.209944756143166,10.167544682519079,50.09516108732406,12.523816054170691,5.916100985024874,50.298849437531736,2.0975571223574505","0","0"
"203","86","text","0","183","1115353","0-0","","","","","","","","","","","","","","","","","","","","","","","","","","","","","","","","","","","","",""
"","","plant-game","0","184","1125677","0-0","","200","120","8","CORN CROP","Left","200","120","4","NETTLE WEED","experimental","79","1,2,3,4,5,6,7,8","120,150.90832811941283,155.56729718871622,202.7639934926199,162.27587809822194,164.6964348688606,192.20043511024286,188.20050691394945","8,7,6,5,4,3,2,1","CORN CROP,CORN CROP,CORN CROP,CORN CROP,CORN CROP,CORN CROP,CORN CROP,CORN CROP","120,143.74811850649712,168.8375606441159,165.11019264430502,160,135.71775303983418,153.08537703749727,182.9060317562873","4,3,2,1,4,3,2,1","NETTLE WEED,NETTLE WEED,NETTLE WEED,NETTLE WEED,THISTLE WEED,THISTLE WEED,THISTLE WEED,THISTLE WEED","20,20,20,20,20,20,20,20","20,20,20,20,20,20,20,20","10,10,10,10,10,10,10,10","20,20,20,20,20,20,20,20","0,0,0,0,0,0,0,0","20,20,20,20,20,20,20,20","20,20,20,20,20,20,20,20","20,20,20,20,20,20,20,20","10,10,10,10,10,10,10,10","20,20,20,20,20,20,20,20","0,0,0,0,0,0,0,0","20,20,20,20,20,20,20,20","0,0,0,1,0,0,0,0","1126,254,358,703,833,493,577,1723","30.90832811941282,4.658969069303392,47.19669630390367,-40.48811539439796,2.4205567706386653,27.50400024138227,-3.9999281962934,40.49292527885236","23.74811850649713,25.089442137618782,-3.727367999810891,0.7643241517032112,-24.282246960165814,17.36762399766308,29.82065471879004,3.7096038515907708","0","0"
"429","86","text","0","185","1126256","0-0","","","","","","","","","","","","","","","","","","","","","","","","","","","","","","","","","","","","",""
