"rt","key_press","trial_type","trial_index","trial_index_global","time_elapsed","internal_chunk_id","responses","experimental_goal_height","experimental_start_height","experimental_weeks_total","experimental_crop_type","experimental_crop_side","fixed_goal_height","fixed_start_height","fixed_weeks_total","fixed_crop_type","trial_kind","trial_number","stage","left_current_height","left_weeks_remaining","left_crop_type","right_current_height","right_weeks_remaining","right_crop_type","mean_left_growth_given_left","sd_left_growth_given_left","mean_left_growth_given_middle","sd_left_growth_given_middle","mean_left_growth_given_right","sd_left_growth_given_right","mean_right_growth_given_left","sd_right_growth_given_left","mean_right_growth_given_middle","sd_right_growth_given_middle","mean_right_growth_given_right","sd_right_growth_given_right","response","response_time","left_growth","right_growth","other_key_pressed","mouse_clicked"
"6044820","77","text","0","0","6044963","0-0","","","","","","","","","","","","","","","","","","","","","","","","","","","","","","","","","","","","",""
"5689","","survey-text","0","1","6051682","0-0","{""Q0"":""18""}","","","","","","","","","","","","","","","","","","","","","","","","","","","","","","","","","","","",""
"4649","86","text","0","2","4774","0-0","","","","","","","","","","","","","","","","","","","","","","","","","","","","","","","","","","","","",""
"","","plant-game","0","3","72795","0-0","","200","120","8","WHEAT CROP","Left","200","120","8","NETTLE WEED","practice","1","1,2,3,4,5,6,7,8","120,119.2952782624187,139.99660641634458,141.77047625220277,155.13610587582386,121.71025552445025,109.0817436090308,81.06640598266335","8,7,6,5,4,3,2,1","WHEAT CROP,WHEAT CROP,WHEAT CROP,WHEAT CROP,WHEAT CROP,WHEAT CROP,WHEAT CROP,WHEAT CROP","120,148.68850594328455,118.80065460502448,149.88975061367057,169.306683284554,151.72981065316793,173.46108223252062,185.145808827655","8,7,6,5,4,3,2,1","NETTLE WEED,NETTLE WEED,NETTLE WEED,NETTLE WEED,NETTLE WEED,NETTLE WEED,NETTLE WEED,NETTLE WEED","20,20,20,20,20,20,20,20","20,20,20,20,20,20,20,20","10,10,10,10,10,10,10,10","20,20,20,20,20,20,20,20","0,0,0,0,0,0,0,0","20,20,20,20,20,20,20,20","20,20,20,20,20,20,20,20","20,20,20,20,20,20,20,20","10,10,10,10,10,10,10,10","20,20,20,20,20,20,20,20","0,0,0,0,0,0,0,0","20,20,20,20,20,20,20,20","0,1,0,0,1,0,1,1","14029,5962,4822,2058,4147,1891,3013,3776","-0.7047217375812984,20.70132815392587,1.7738698358582035,13.365629623621082,-33.42585035137361,-12.628511915419452,-28.015337626367444,-4.2226197439878845","28.68850594328454,-29.88785133826007,31.089096008646088,19.416932670883426,-17.57687263138606,21.731271579352683,11.684726595134372,52.35097528571185","0","0"
"1857","86","text","0","4","74772","0-0","","","","","","","","","","","","","","","","","","","","","","","","","","","","","","","","","","","","",""
"","","plant-game","0","5","117535","0-0","","200","160","4","CORN CROP","Left","200","160","4","NETTLE WEED","practice","2","1,2,3,4","160,153.59113373108593,163.707039597468,197.24357272293088","4,3,2,1","CORN CROP,CORN CROP,CORN CROP,CORN CROP","160,155.12339053251156,173.43058692078273,222.34497769916163","4,3,2,1","NETTLE WEED,NETTLE WEED,NETTLE WEED,NETTLE WEED","20,20,20,20","20,20,20,20","10,10,10,10","20,20,20,20","0,0,0,0","20,20,20,20","20,20,20,20","20,20,20,20","10,10,10,10","20,20,20,20","0,0,0,0","20,20,20,20","1,0,0,1","4727,3532,2525,5441","-6.40886626891406,10.115905866382061,33.536533125462874,-2.884467961189188","-4.876609467488425,18.307196388271166,48.91439077837891,1.5641758554890752","0","0"
"776","86","text","0","6","118471","0-0","","","","","","","","","","","","","","","","","","","","","","","","","","","","","","","","","","","","",""
"","","plant-game","0","7","148705","0-0","","200","180","2","CORN CROP","Right","200","180","2","NETTLE WEED","practice","3","1,2","180,235.36952587016123","2,1","NETTLE WEED,NETTLE WEED","180,179.4855678234861","2,1","CORN CROP,CORN CROP","0,0","20,20","10,10","20,20","20,20","20,20","0,0","20,20","10,10","20,20","20,20","20,20","1,0","6383,3945","55.369525870161226,2.547887272851257","-0.5144321765138997,27.024360446778207","0","0"
"735","86","text","0","8","149620","0-0","","","","","","","","","","","","","","","","","","","","","","","","","","","","","","","","","","","","",""
"","","plant-game","0","9","177031","0-0","","200","190","1","CORN CROP","Right","200","190","1","NETTLE WEED","practice","4","1","190","1","NETTLE WEED","190","1","CORN CROP","0","20","10","20","20","20","0","20","10","20","20","20","0","7315","-3.6452346631516566","20.43671160508832","0","0"
"754","86","text","0","10","177935","0-0","","","","","","","","","","","","","","","","","","","","","","","","","","","","","","","","","","","","",""
"","","plant-game","0","11","224293","0-0","","200","120","8","WHEAT CROP","Left","200","160","8","THISTLE WEED","practice","5","1,2,3,4,5,6,7,8","120,138.7054346319225,135.48840251265835,171.6705072393323,182.78475990044197,197.97136255644887,202.45814184301707,228.88239459505792","8,7,6,5,4,3,2,1","WHEAT CROP,WHEAT CROP,WHEAT CROP,WHEAT CROP,WHEAT CROP,WHEAT CROP,WHEAT CROP,WHEAT CROP","160,186.9841082901968,135.46416958959205,145.7455283593929,221.95020057554535,227.84259084974963,228.43532463487003,251.58164464719786","8,7,6,5,4,3,2,1","THISTLE WEED,THISTLE WEED,THISTLE WEED,THISTLE WEED,THISTLE WEED,THISTLE WEED,THISTLE WEED,THISTLE WEED","20,20,20,20,20,20,20,20","20,20,20,20,20,20,20,20","10,10,10,10,10,10,10,10","20,20,20,20,20,20,20,20","0,0,0,0,0,0,0,0","20,20,20,20,20,20,20,20","20,20,20,20,20,20,20,20","20,20,20,20,20,20,20,20","10,10,10,10,10,10,10,10","20,20,20,20,20,20,20,20","0,0,0,0,0,0,0,0","20,20,20,20,20,20,20,20","1,1,0,0,1,1,1,1","1611,4098,2147,2035,2739,1808,5458,2223","18.705434631922493,-3.217032119264127,36.18210472667394,11.114252661109662,15.186602656006897,4.48677928656821,26.42425275204085,-13.423381274080725","26.984108290196794,-51.51993870060473,10.281358769800837,76.20467221615247,5.892390274204264,0.5927337851204107,23.146320012327838,11.258882449831816","0","0"
"634","86","text","0","12","225097","0-0","","","","","","","","","","","","","","","","","","","","","","","","","","","","","","","","","","","","",""
"","","plant-game","0","13","250695","0-0","","200","180","4","WHEAT CROP","Left","200","160","4","NETTLE WEED","practice","6","1,2,3,4","180,213.10125199117834,209.73877153660354,222.6940951620763","4,3,2,1","WHEAT CROP,WHEAT CROP,WHEAT CROP,WHEAT CROP","160,189.876256409607,198.04872032542806,223.82438793719643","4,3,2,1","NETTLE WEED,NETTLE WEED,NETTLE WEED,NETTLE WEED","20,20,20,20","20,20,20,20","10,10,10,10","20,20,20,20","0,0,0,0","20,20,20,20","20,20,20,20","20,20,20,20","10,10,10,10","20,20,20,20","0,0,0,0","20,20,20,20","0,1,1,1","4891,3409,2338,2226","33.10125199117835,-3.362480454574796,12.955323625472769,-15.54512203894756","29.876256409607016,8.17246391582107,25.775667611768355,-2.1709892640324555","0","0"
"600","86","text","0","14","251455","0-0","","","","","","","","","","","","","","","","","","","","","","","","","","","","","","","","","","","","",""
"","","plant-game","0","15","273514","0-0","","200","180","2","WHEAT CROP","Left","200","190","2","NETTLE WEED","practice","7","1,2","180,180.69363315816668","2,1","WHEAT CROP,WHEAT CROP","190,197.13021800860102","2,1","NETTLE WEED,NETTLE WEED","20,20","20,20","10,10","20,20","0,0","20,20","20,20","20,20","10,10","20,20","0,0","20,20","1,1","5916,2778","0.6936331581666724,-34.88460214024454","7.1302180086010125,13.064735012445505","0","0"
"637","86","text","0","16","274341","0-0","","","","","","","","","","","","","","","","","","","","","","","","","","","","","","","","","","","","",""
"","","plant-game","0","17","337858","0-0","","200","120","4","WHEAT CROP","Right","200","120","8","NETTLE WEED","practice","8","1,2,3,4,5,6,7,8","120,118.9223231648752,128.52972887639058,132.05663432396364,141.91188902105523,164.47363674961056,143.663478193754,115.01460337094377","8,7,6,5,4,3,2,1","NETTLE WEED,NETTLE WEED,NETTLE WEED,NETTLE WEED,NETTLE WEED,NETTLE WEED,NETTLE WEED,NETTLE WEED","120,156.11298141852217,155.4992980081374,156.41406534138645,160,165.41051402385816,207.28049426042088,201.96113324346882","4,3,2,1,4,3,2,1","WHEAT CROP,WHEAT CROP,WHEAT CROP,WHEAT CROP,CORN CROP,CORN CROP,CORN CROP,CORN CROP","0,0,0,0,0,0,0,0","20,20,20,20,20,20,20,20","10,10,10,10,10,10,10,10","20,20,20,20,20,20,20,20","20,20,20,20,20,20,20,20","20,20,20,20,20,20,20,20","0,0,0,0,0,0,0,0","20,20,20,20,20,20,20,20","10,10,10,10,10,10,10,10","20,20,20,20,20,20,20,20","20,20,20,20,20,20,20,20","20,20,20,20,20,20,20,20","0,1,0,1,1,0,0,1","5182,3531,1450,5390,4774,1197,1629,4581","-1.0776768351248105,9.607405711515387,3.5269054475730566,9.855254697091585,22.56174772855532,-20.810158555856564,-28.648874822810235,20.802525109053615","36.11298141852215,-0.6136834103847768,0.9147673332490589,-20.78560145639625,5.410514023858164,41.86998023656274,-5.3193610169520635,34.34961706050136","0","0"
"709","86","text","0","18","338747","0-0","","","","","","","","","","","","","","","","","","","","","","","","","","","","","","","","","","","","",""
"","","plant-game","0","19","376710","0-0","","200","160","4","WHEAT CROP","Left","200","160","2","THISTLE WEED","practice","9","1,2,3,4","160,151.18912719883497,185.8931802750852,173.0000987162298","4,3,2,1","WHEAT CROP,WHEAT CROP,WHEAT CROP,WHEAT CROP","160,129.56742929468365,180,196.10480786060845","2,1,2,1","THISTLE WEED,THISTLE WEED,NETTLE WEED,NETTLE WEED","20,20,20,20","20,20,20,20","10,10,10,10","20,20,20,20","0,0,0,0","20,20,20,20","20,20,20,20","20,20,20,20","10,10,10,10","20,20,20,20","0,0,0,0","20,20,20,20","1,0,0,1","3988,1885,1699,2710","-8.810872801165019,34.704053076250226,-12.893081558855421,21.7020211378084","-30.43257070531635,1.9155139426836278,16.10480786060846,31.84137963468944","0","0"
"732","86","text","0","20","377622","0-0","","","","","","","","","","","","","","","","","","","","","","","","","","","","","","","","","","","","",""
"","","plant-game","0","21","406553","0-0","","200","180","2","CORN CROP","Right","200","180","1","NETTLE WEED","practice","10","1,2","180,190","1,1","NETTLE WEED,THISTLE WEED","180,235.73348149520226","2,1","CORN CROP,CORN CROP","0,0","20,20","10,10","20,20","20,20","20,20","0,0","20,20","10,10","20,20","20,20","20,20","0,0","7097,6250","1.1231629153884954,-8.727423109920153","55.73348149520225,27.586137490503994","0","0"
"615","86","text","0","22","407338","0-0","","","","","","","","","","","","","","","","","","","","","","","","","","","","","","","","","","","","",""
"","","plant-game","0","23","441667","0-0","","200","120","8","WHEAT CROP","Right","200","160","4","THISTLE WEED","practice","11","1,2,3,4,5,6,7,8","160,109.24006525418675,142.19548748777052,150.54347883037204,160,167.48483159817232,213.79220288067904,236.50125819326823","4,3,2,1,4,3,2,1","THISTLE WEED,THISTLE WEED,THISTLE WEED,THISTLE WEED,NETTLE WEED,NETTLE WEED,NETTLE WEED,NETTLE WEED","120,107.91436168056048,143.09079857765673,133.42760898867607,154.3375238918284,148.8590606466768,155.69117178899026,149.23757905091358","8,7,6,5,4,3,2,1","WHEAT CROP,WHEAT CROP,WHEAT CROP,WHEAT CROP,WHEAT CROP,WHEAT CROP,WHEAT CROP,WHEAT CROP","0,0,0,0,0,0,0,0","20,20,20,20,20,20,20,20","10,10,10,10,10,10,10,10","20,20,20,20,20,20,20,20","20,20,20,20,20,20,20,20","20,20,20,20,20,20,20,20","0,0,0,0,0,0,0,0","20,20,20,20,20,20,20,20","10,10,10,10,10,10,10,10","20,20,20,20,20,20,20,20","20,20,20,20,20,20,20,20","20,20,20,20,20,20,20,20","0,1,0,0,0,0,0,1","915,1362,1676,1251,5555,1443,1613,1794","-50.759934745813254,32.95542223358378,8.347991342601507,-9.918919911825588,7.484831598172325,46.307371282506715,22.709055312589182,44.819732877162906","-12.085638319439521,35.17643689709625,-9.663189588980659,20.909914903152323,-5.47846324515159,6.832111142313479,-6.453592738076668,31.242814242082233","0","0"
"654","86","text","0","24","442471","0-0","","","","","","","","","","","","","","","","","","","","","","","","","","","","","","","","","","","","",""
"","","plant-game","0","25","472501","0-0","","200","180","2","WHEAT CROP","Left","200","160","4","NETTLE WEED","practice","12","1,2,3,4","180,216.3778062652931,180,221.02049785584217","2,1,2,1","WHEAT CROP,WHEAT CROP,CORN CROP,CORN CROP","160,187.04437044141142,170.93539540343474,199.53835569115336","4,3,2,1","NETTLE WEED,NETTLE WEED,NETTLE WEED,NETTLE WEED","20,20,20,20","20,20,20,20","10,10,10,10","20,20,20,20","0,0,0,0","20,20,20,20","20,20,20,20","20,20,20,20","10,10,10,10","20,20,20,20","0,0,0,0","20,20,20,20","0,1,0,1","2244,1600,4462,3396","36.377806265293096,25.541301763269516,41.02049785584216,39.55698285544734","27.04437044141141,-16.108975037976688,28.60296028771863,-7.171846611508941","0","0"
"569","86","text","0","26","473230","0-0","","","","","","","","","","","","","","","","","","","","","","","","","","","","","","","","","","","","",""
"16192","86","text","0","27","490571","0-0","","","","","","","","","","","","","","","","","","","","","","","","","","","","","","","","","","","","",""
"","","plant-game","0","28","521584","0-0","","200","160","8","WHEAT CROP","Left","200","190","1","THISTLE WEED","experimental","1","1,2,3,4,5,6,7,8","160,145.50593626046899,181.59390932271404,212.58415882539134,189.74188150261327,170.45140720530554,185.31575862294704,174.2730819721696","8,7,6,5,4,3,2,1","WHEAT CROP,WHEAT CROP,WHEAT CROP,WHEAT CROP,WHEAT CROP,WHEAT CROP,WHEAT CROP,WHEAT CROP","190,130,138.9972132013931,159.80920617917272,149.69770868388096,171.66547297276495,167.7115257916173,182.40908737917812","1,7,6,5,4,3,2,1","THISTLE WEED,NETTLE WEED,NETTLE WEED,NETTLE WEED,NETTLE WEED,NETTLE WEED,NETTLE WEED,NETTLE WEED","20,20,20,20,20,20,20,20","20,20,20,20,20,20,20,20","10,10,10,10,10,10,10,10","20,20,20,20,20,20,20,20","0,0,0,0,0,0,0,0","20,20,20,20,20,20,20,20","20,20,20,20,20,20,20,20","20,20,20,20,20,20,20,20","10,10,10,10,10,10,10,10","20,20,20,20,20,20,20,20","0,0,0,0,0,0,0,0","20,20,20,20,20,20,20,20","1,0,0,1,0,1,1,0","7730,2963,1285,3362,891,841,1310,1232","-14.49406373953102,36.087973062245055,30.9902495026773,-22.84227732277808,-19.29047429730771,14.864351417641505,-11.042676650777441,34.06418419864469","-16.41693103416893,8.997213201393105,20.81199297777963,-10.111497495291745,21.967764288883995,-3.9539471811476363,14.697561587560807,21.851007680126298","0","0"
"759","86","text","0","29","522488","0-0","","","","","","","","","","","","","","","","","","","","","","","","","","","","","","","","","","","","",""
"","","plant-game","0","30","545734","0-0","","200","190","2","WHEAT CROP","Right","200","190","1","NETTLE WEED","experimental","2","1,2","190,190","1,1","NETTLE WEED,THISTLE WEED","190,214.55379286551917","2,1","WHEAT CROP,WHEAT CROP","0,0","20,20","10,10","20,20","20,20","20,20","0,0","20,20","10,10","20,20","20,20","20,20","1,0","5377,7582","21.35710701601344,-11.322765416600404","24.553792865519164,-19.365295065490447","0","0"
"773","86","text","0","31","546679","0-0","","","","","","","","","","","","","","","","","","","","","","","","","","","","","","","","","","","","",""
"","","plant-game","0","32","567775","0-0","","200","160","8","CORN CROP","Right","200","120","4","THISTLE WEED","experimental","3","1,2,3,4,5,6,7,8","120,155.788392127201,140.4836600222735,146.4486862381412,160,161.76017850943006,129.05719493853948,152.4502250005537","4,3,2,1,4,3,2,1","THISTLE WEED,THISTLE WEED,THISTLE WEED,THISTLE WEED,NETTLE WEED,NETTLE WEED,NETTLE WEED,NETTLE WEED","160,216.15422072805262,202.4557558630264,189.89362540525025,195.3458154889496,180.7111615471588,148.6346959291103,171.87608432404127","8,7,6,5,4,3,2,1","CORN CROP,CORN CROP,CORN CROP,CORN CROP,CORN CROP,CORN CROP,CORN CROP,CORN CROP","0,0,0,0,0,0,0,0","20,20,20,20,20,20,20,20","10,10,10,10,10,10,10,10","20,20,20,20,20,20,20,20","20,20,20,20,20,20,20,20","20,20,20,20,20,20,20,20","0,0,0,0,0,0,0,0","20,20,20,20,20,20,20,20","10,10,10,10,10,10,10,10","20,20,20,20,20,20,20,20","20,20,20,20,20,20,20,20","20,20,20,20,20,20,20,20","1,0,0,1,0,1,1,1","4281,1708,883,1254,2235,671,675,920","35.78839212720101,-15.304732104927483,5.965026215867678,22.010121300991475,1.7601785094300493,-32.70298357089058,23.39303006201422,-6.216102168977443","56.154220728052636,-13.698464865026217,-12.562130457776178,5.4521900836993495,-14.634653941790784,-32.076465618048516,23.241388394930972,43.33324255299424","0","0"
"500","86","text","0","33","568464","0-0","","","","","","","","","","","","","","","","","","","","","","","","","","","","","","","","","","","","",""
"","","plant-game","0","34","596378","0-0","","200","180","2","WHEAT CROP","Left","200","160","1","THISTLE WEED","experimental","4","1,2","180,180.53163811094169","2,1","WHEAT CROP,WHEAT CROP","160,190","1,1","THISTLE WEED,NETTLE WEED","20,20","20,20","10,10","20,20","0,0","20,20","20,20","20,20","10,10","20,20","0,0","20,20","1,1","5295,13358","0.5316381109416958,14.827551582215023","0.2350298032585496,-53.59558701531523","0","0"
"1180","86","text","0","35","597714","0-0","","","","","","","","","","","","","","","","","","","","","","","","","","","","","","","","","","","","",""
"","","plant-game","0","36","622529","0-0","","200","190","4","CORN CROP","Left","200","180","1","NETTLE WEED","experimental","5","1,2,3,4","190,176.08144915592146,178.70798316947912,196.62549880787523","4,3,2,1","CORN CROP,CORN CROP,CORN CROP,CORN CROP","180,170,168.7506169684539,169.92532454938797","1,3,2,1","NETTLE WEED,THISTLE WEED,THISTLE WEED,THISTLE WEED","20,20,20,20","20,20,20,20","10,10,10,10","20,20,20,20","0,0,0,0","20,20,20,20","20,20,20,20","20,20,20,20","10,10,10,10","20,20,20,20","0,0,0,0","20,20,20,20","1,0,0,0","8955,2582,1214,3686","-13.918550844078535,2.6265340135576594,17.917515638396104,-7.780080901857595","-4.81727130128353,-1.249383031546106,1.1747075809340686,54.52107037019968","0","0"
"497","86","text","0","37","623183","0-0","","","","","","","","","","","","","","","","","","","","","","","","","","","","","","","","","","","","",""
"","","plant-game","0","38","655503","0-0","","200","190","2","CORN CROP","Right","200","190","8","THISTLE WEED","experimental","6","1,2,3,4,5,6,7,8","190,219.23927171186438,241.3801481108743,211.07519632748347,230.125922119725,249.26151433014073,260.6938407751933,295.0993798096858","8,7,6,5,4,3,2,1","THISTLE WEED,THISTLE WEED,THISTLE WEED,THISTLE WEED,THISTLE WEED,THISTLE WEED,THISTLE WEED,THISTLE WEED","190,197.4448788879647,140,128.7986983086417,151.218908102837,182.5677080988984,173.15339740374534,175.56198906990582","2,1,6,5,4,3,2,1","CORN CROP,CORN CROP,WHEAT CROP,WHEAT CROP,WHEAT CROP,WHEAT CROP,WHEAT CROP,WHEAT CROP","0,0,0,0,0,0,0,0","20,20,20,20,20,20,20,20","10,10,10,10,10,10,10,10","20,20,20,20,20,20,20,20","20,20,20,20,20,20,20,20","20,20,20,20,20,20,20,20","0,0,0,0,0,0,0,0","20,20,20,20,20,20,20,20","10,10,10,10,10,10,10,10","20,20,20,20,20,20,20,20","20,20,20,20,20,20,20,20","20,20,20,20,20,20,20,20","0,0,0,0,0,0,0,1","3633,1651,7211,2098,1509,2257,3849,902","29.23927171186439,22.14087639900992,-30.304951783390834,19.05072579224154,19.135592210415727,11.43232644505254,34.405539034492506,23.960431899134406","7.444878887964698,-23.462732880068266,-11.201301691358312,22.4202097941953,31.348799996061423,-9.414310695153054,2.4085916661604765,12.942312347761806","0","0"
"661","86","text","0","39","656336","0-0","","","","","","","","","","","","","","","","","","","","","","","","","","","","","","","","","","","","",""
"","","plant-game","0","40","677866","0-0","","200","180","1","CORN CROP","Left","200","180","8","THISTLE WEED","experimental","7","1,2,3,4,5,6,7,8","180,130,142.35418415552502,143.3892552474203,152.37696224947834,156.24111576290392,162.1053636884174,182.63917229427648","1,7,6,5,4,3,2,1","CORN CROP,WHEAT CROP,WHEAT CROP,WHEAT CROP,WHEAT CROP,WHEAT CROP,WHEAT CROP,WHEAT CROP","180,187.08136663036692,182.63118933458654,212.12751329171002,226.07576469572604,226.86370602578324,221.5854619337972,229.8988320614884","8,7,6,5,4,3,2,1","THISTLE WEED,THISTLE WEED,THISTLE WEED,THISTLE WEED,THISTLE WEED,THISTLE WEED,THISTLE WEED,THISTLE WEED","20,20,20,20,20,20,20,20","20,20,20,20,20,20,20,20","10,10,10,10,10,10,10,10","20,20,20,20,20,20,20,20","0,0,0,0,0,0,0,0","20,20,20,20,20,20,20,20","20,20,20,20,20,20,20,20","20,20,20,20,20,20,20,20","10,10,10,10,10,10,10,10","20,20,20,20,20,20,20,20","0,0,0,0,0,0,0,0","20,20,20,20,20,20,20,20","0,1,1,1,1,1,0,0","3528,1855,1030,1524,2139,985,1044,1036","17.656188987929603,12.354184155525015,1.0350710918952775,8.987707002058047,3.864153513425585,5.8642479255135,20.53380860585905,26.859896948533788","7.0813666303669045,-4.45017729578037,29.496323957123487,13.948251404016023,0.7879413300572209,-5.278244091986033,8.313370127691194,6.544363343184296","0","0"
"747","86","text","0","41","678778","0-0","","","","","","","","","","","","","","","","","","","","","","","","","","","","","","","","","","","","",""
"","","plant-game","0","42","699898","0-0","","200","120","2","WHEAT CROP","Left","200","180","8","THISTLE WEED","experimental","8","1,2,3,4,5,6,7,8","120,168.404514887942,140,121.59364119072518,157.5186435825036,152.4971830418092,164.10875570131253,144.99375100208238","2,1,6,5,4,3,2,1","WHEAT CROP,WHEAT CROP,CORN CROP,CORN CROP,CORN CROP,CORN CROP,CORN CROP,CORN CROP","180,145.4228163308205,175.63506069247882,221.85776699248783,267.9149990893188,266.4186283245993,266.35834246459183,283.15233819831525","8,7,6,5,4,3,2,1","THISTLE WEED,THISTLE WEED,THISTLE WEED,THISTLE WEED,THISTLE WEED,THISTLE WEED,THISTLE WEED,THISTLE WEED","20,20,20,20,20,20,20,20","20,20,20,20,20,20,20,20","10,10,10,10,10,10,10,10","20,20,20,20,20,20,20,20","0,0,0,0,0,0,0,0","20,20,20,20,20,20,20,20","20,20,20,20,20,20,20,20","20,20,20,20,20,20,20,20","10,10,10,10,10,10,10,10","20,20,20,20,20,20,20,20","0,0,0,0,0,0,0,0","20,20,20,20,20,20,20,20","1,0,0,0,1,0,1,0","3767,1180,2609,2715,1101,569,416,735","48.404514887942014,49.15612921024464,-18.406358809274828,35.92500239177845,-5.0214605406944335,11.611572659503345,-19.11500469923014,22.3118011953727","-34.57718366917951,30.212244361658307,46.222706300009,46.05723209683099,-1.496370764719551,-0.060285860007471825,16.79399573372344,33.58788012033794","0","0"
"543","86","text","0","43","700611","0-0","","","","","","","","","","","","","","","","","","","","","","","","","","","","","","","","","","","","",""
"","","plant-game","0","44","710851","0-0","","200","180","2","WHEAT CROP","Left","200","120","2","THISTLE WEED","experimental","9","1,2","180,246.4178691580185","2,1","WHEAT CROP,WHEAT CROP","120,141.62430911680894","2,1","THISTLE WEED,THISTLE WEED","20,20","20,20","10,10","20,20","0,0","20,20","20,20","20,20","10,10","20,20","0,0","20,20","0,1","2690,3389","66.41786915801852,18.858425770569088","21.624309116808956,2.0549355995886005","0","0"
"676","86","text","0","45","711687","0-0","","","","","","","","","","","","","","","","","","","","","","","","","","","","","","","","","","","","",""
"","","plant-game","0","46","728224","0-0","","200","190","4","WHEAT CROP","Right","200","160","2","THISTLE WEED","experimental","10","1,2,3,4","160,188.91362936969261,180,182.6037255726669","2,1,2,1","THISTLE WEED,THISTLE WEED,NETTLE WEED,NETTLE WEED","190,203.27913053978665,216.53171488767873,209.82121425719242","4,3,2,1","WHEAT CROP,WHEAT CROP,WHEAT CROP,WHEAT CROP","0,0,0,0","20,20,20,20","10,10,10,10","20,20,20,20","20,20,20,20","20,20,20,20","0,0,0,0","20,20,20,20","10,10,10,10","20,20,20,20","20,20,20,20","20,20,20,20","0,1,0,0","3372,1425,2580,1516","28.913629369692618,14.920763844191594,2.6037255726668973,-14.200361319667483","13.279130539786664,13.252584347892082,-6.710500630486299,-17.94800317534629","0","0"
"2351","86","text","0","47","730725","0-0","","","","","","","","","","","","","","","","","","","","","","","","","","","","","","","","","","","","",""
"","","plant-game","0","48","747734","0-0","","200","180","1","CORN CROP","Right","200","120","4","NETTLE WEED","experimental","11","1,2,3,4","120,164.46485752398058,175.35773621599026,149.17729893545584","4,3,2,1","NETTLE WEED,NETTLE WEED,NETTLE WEED,NETTLE WEED","180,170,185.76297917294235,212.6415382076842","1,3,2,1","CORN CROP,WHEAT CROP,WHEAT CROP,WHEAT CROP","0,0,0,0","20,20,20,20","10,10,10,10","20,20,20,20","20,20,20,20","20,20,20,20","0,0,0,0","20,20,20,20","10,10,10,10","20,20,20,20","20,20,20,20","20,20,20,20","1,1,1,0","4810,2700,1439,1374","44.46485752398059,10.892878692009681,-26.180437280534406,-4.346927212824545","26.262064237185704,15.762979172942355,26.87855903474184,-2.2050609399210606","0","0"
"853","86","text","0","49","748727","0-0","","","","","","","","","","","","","","","","","","","","","","","","","","","","","","","","","","","","",""
"","","plant-game","0","50","772427","0-0","","200","160","2","CORN CROP","Left","200","180","4","NETTLE WEED","experimental","12","1,2,3,4","160,196.44491171042387,180,170.85107863935204","2,1,2,1","CORN CROP,CORN CROP,WHEAT CROP,WHEAT CROP","180,208.36840423680556,215.09938388957832,199.7892121542343","4,3,2,1","NETTLE WEED,NETTLE WEED,NETTLE WEED,NETTLE WEED","20,20,20,20","20,20,20,20","10,10,10,10","20,20,20,20","0,0,0,0","20,20,20,20","20,20,20,20","20,20,20,20","10,10,10,10","20,20,20,20","0,0,0,0","20,20,20,20","1,1,1,0","8500,1904,4403,1007","36.44491171042388,7.354594568293179,-9.148921360647957,11.235262334485409","28.368404236805567,6.730979652772748,-15.310171735344033,15.672832897734626","0","0"
"549","86","text","0","51","773056","0-0","","","","","","","","","","","","","","","","","","","","","","","","","","","","","","","","","","","","",""
"","","plant-game","0","52","796405","0-0","","200","160","2","WHEAT CROP","Right","200","190","8","THISTLE WEED","experimental","13","1,2,3,4,5,6,7,8","190,187.9110768112623,243.80896429848636,273.53309522091865,285.4647697085008,312.5168916113665,310.68027516756456,358.9499207586516","8,7,6,5,4,3,2,1","THISTLE WEED,THISTLE WEED,THISTLE WEED,THISTLE WEED,THISTLE WEED,THISTLE WEED,THISTLE WEED,THISTLE WEED","160,160.1210458823444,140,152.39106779895187,140.97321409821626,130.83888088629692,139.93503986016736,162.28590973381094","2,1,6,5,4,3,2,1","WHEAT CROP,WHEAT CROP,CORN CROP,CORN CROP,CORN CROP,CORN CROP,CORN CROP,CORN CROP","0,0,0,0,0,0,0,0","20,20,20,20,20,20,20,20","10,10,10,10,10,10,10,10","20,20,20,20,20,20,20,20","20,20,20,20,20,20,20,20","20,20,20,20,20,20,20,20","0,0,0,0,0,0,0,0","20,20,20,20,20,20,20,20","10,10,10,10,10,10,10,10","20,20,20,20,20,20,20,20","20,20,20,20,20,20,20,20","20,20,20,20,20,20,20,20","0,1,1,0,0,0,1,1","9346,1924,1491,515,577,548,400,923","-2.0889231887377138,55.897887487224075,29.724130922432288,11.931674487582157,27.05212190286568,-1.836616443801936,48.26964559108708,51.2366631715521","0.12104588234438632,6.839139601077818,12.391067798951859,-11.417853700735598,-10.134333211919337,9.096158973870448,22.350869873643575,91.92887469851429","0","0"
"572","86","text","0","53","797147","0-0","","","","","","","","","","","","","","","","","","","","","","","","","","","","","","","","","","","","",""
"","","plant-game","0","54","824156","0-0","","200","120","1","WHEAT CROP","Left","200","180","8","THISTLE WEED","experimental","14","1,2,3,4,5,6,7,8","120,130,152.56422092679261,168.6270271403085,179.03517512758307,224.56780896058893,223.56134587525136,257.95525917022104","1,7,6,5,4,3,2,1","WHEAT CROP,CORN CROP,CORN CROP,CORN CROP,CORN CROP,CORN CROP,CORN CROP,CORN CROP","180,183.26751952724936,176.0988451655368,210.37481556484482,183.2078168083526,205.05026737457757,219.2958235292364,221.829415298553","8,7,6,5,4,3,2,1","THISTLE WEED,THISTLE WEED,THISTLE WEED,THISTLE WEED,THISTLE WEED,THISTLE WEED,THISTLE WEED,THISTLE WEED","20,20,20,20,20,20,20,20","20,20,20,20,20,20,20,20","10,10,10,10,10,10,10,10","20,20,20,20,20,20,20,20","0,0,0,0,0,0,0,0","20,20,20,20,20,20,20,20","20,20,20,20,20,20,20,20","20,20,20,20,20,20,20,20","10,10,10,10,10,10,10,10","20,20,20,20,20,20,20,20","0,0,0,0,0,0,0,0","20,20,20,20,20,20,20,20","1,1,0,1,0,1,1,1","3472,2423,1387,581,974,1333,1311,884","0.45245917200608105,22.564220926792608,16.062806213515906,10.40814798727455,45.532633833005846,-1.0064630853375587,34.39391329496969,-27.281235730107017","3.267519527249352,-7.168674361712553,34.27597039930801,-27.166998756492244,21.84245056622497,14.245556154658827,2.533591769316597,-21.498849900826016","0","0"
"641","86","text","0","55","824987","0-0","","","","","","","","","","","","","","","","","","","","","","","","","","","","","","","","","","","","",""
"","","plant-game","0","56","848647","0-0","","200","190","8","WHEAT CROP","Right","200","190","2","THISTLE WEED","experimental","15","1,2,3,4,5,6,7,8","190,220.19799420668525,140,104.27907971038597,80.60278270401652,114.41467564186618,119.08136188712692,147.16539368404855","2,1,6,5,4,3,2,1","THISTLE WEED,THISTLE WEED,NETTLE WEED,NETTLE WEED,NETTLE WEED,NETTLE WEED,NETTLE WEED,NETTLE WEED","190,189.48560707597764,224.92267441895066,234.84064910851848,219.08578116567355,232.37152539478757,243.60620516939701,284.53128613402487","8,7,6,5,4,3,2,1","WHEAT CROP,WHEAT CROP,WHEAT CROP,WHEAT CROP,WHEAT CROP,WHEAT CROP,WHEAT CROP,WHEAT CROP","0,0,0,0,0,0,0,0","20,20,20,20,20,20,20,20","10,10,10,10,10,10,10,10","20,20,20,20,20,20,20,20","20,20,20,20,20,20,20,20","20,20,20,20,20,20,20,20","0,0,0,0,0,0,0,0","20,20,20,20,20,20,20,20","10,10,10,10,10,10,10,10","20,20,20,20,20,20,20,20","20,20,20,20,20,20,20,20","20,20,20,20,20,20,20,20","1,1,0,0,1,1,1,1","4943,1333,4013,628,946,535,709,884","30.19799420668525,67.455300261084,-35.72092028961403,-23.676297006369452,33.81189293784967,4.666686245260738,28.084031796921646,20.196904709273234","-0.5143929240223635,35.43706734297303,9.917974689567803,-15.754867942844939,13.28574422911403,11.234679774609459,40.925080964627846,25.089833991790528","0","0"
"550","86","text","0","57","849377","0-0","","","","","","","","","","","","","","","","","","","","","","","","","","","","","","","","","","","","",""
"","","plant-game","0","58","868577","0-0","","200","120","8","WHEAT CROP","Left","200","160","2","THISTLE WEED","experimental","16","1,2,3,4,5,6,7,8","120,127.00439523444751,132.5861349458509,151.8001427858458,182.7592998507058,205.2163781031123,243.30819930714793,278.73992676496704","8,7,6,5,4,3,2,1","WHEAT CROP,WHEAT CROP,WHEAT CROP,WHEAT CROP,WHEAT CROP,WHEAT CROP,WHEAT CROP,WHEAT CROP","160,159.7912214208337,140,129.90830268143705,133.44120598575532,126.6603027725134,143.11704925298153,125.84675841356972","2,1,6,5,4,3,2,1","THISTLE WEED,THISTLE WEED,NETTLE WEED,NETTLE WEED,NETTLE WEED,NETTLE WEED,NETTLE WEED,NETTLE WEED","20,20,20,20,20,20,20,20","20,20,20,20,20,20,20,20","10,10,10,10,10,10,10,10","20,20,20,20,20,20,20,20","0,0,0,0,0,0,0,0","20,20,20,20,20,20,20,20","20,20,20,20,20,20,20,20","20,20,20,20,20,20,20,20","10,10,10,10,10,10,10,10","20,20,20,20,20,20,20,20","0,0,0,0,0,0,0,0","20,20,20,20,20,20,20,20","1,1,0,1,0,0,1,1","3059,2046,2300,1783,935,993,426,430","7.004395234447517,5.581739711403361,19.21400783999491,30.95915706486,22.45707825240651,38.091821204035625,35.43172745781909,-8.386750287011624","-0.20877857916629827,-12.857415500322272,-10.09169731856295,3.532903304318281,-6.7809032132419205,16.456746480468126,-17.270290839411818,16.751347135237772","0","0"
"8377","86","text","0","59","877184","0-0","","","","","","","","","","","","","","","","","","","","","","","","","","","","","","","","","","","","",""
"","","plant-game","0","60","903576","0-0","","200","190","1","CORN CROP","Right","200","180","8","NETTLE WEED","experimental","17","1,2,3,4,5,6,7,8","180,182.96753458735995,179.19849816102763,177.39250743474767,178.65762581717777,189.6941829582944,216.28873294119242,236.03347527115324","8,7,6,5,4,3,2,1","NETTLE WEED,NETTLE WEED,NETTLE WEED,NETTLE WEED,NETTLE WEED,NETTLE WEED,NETTLE WEED,NETTLE WEED","190,130,108.58482402346064,130.48168413896033,98.91555929276001,106.57655190863325,122.92058893639904,127.78990769732638","1,7,6,5,4,3,2,1","CORN CROP,WHEAT CROP,WHEAT CROP,WHEAT CROP,WHEAT CROP,WHEAT CROP,WHEAT CROP,WHEAT CROP","0,0,0,0,0,0,0,0","20,20,20,20,20,20,20,20","10,10,10,10,10,10,10,10","20,20,20,20,20,20,20,20","20,20,20,20,20,20,20,20","20,20,20,20,20,20,20,20","0,0,0,0,0,0,0,0","20,20,20,20,20,20,20,20","10,10,10,10,10,10,10,10","20,20,20,20,20,20,20,20","20,20,20,20,20,20,20,20","20,20,20,20,20,20,20,20","0,0,0,0,0,1,1,1","6331,5786,941,938,518,537,533,289","2.9675345873599444,-3.769036426332309,-1.805990726279947,1.2651183824301062,11.036557141116624,26.59454998289803,19.74474232996082,49.86977948213122","5.1238026397738565,-21.415175976539352,21.896860115499702,-31.56612484620033,7.660992615873234,16.344037027765793,4.869318760927346,48.628014155157985","0","0"
"697","86","text","0","61","904393","0-0","","","","","","","","","","","","","","","","","","","","","","","","","","","","","","","","","","","","",""
"","","plant-game","0","62","914896","0-0","","200","190","4","CORN CROP","Right","200","160","4","NETTLE WEED","experimental","18","1,2,3,4","160,155.6915682277679,149.18641433654105,134.38736781531992","4,3,2,1","NETTLE WEED,NETTLE WEED,NETTLE WEED,NETTLE WEED","190,220.52397983055056,204.21200424131737,199.38768345892245","4,3,2,1","CORN CROP,CORN CROP,CORN CROP,CORN CROP","0,0,0,0","20,20,20,20","10,10,10,10","20,20,20,20","20,20,20,20","20,20,20,20","0,0,0,0","20,20,20,20","10,10,10,10","20,20,20,20","20,20,20,20","20,20,20,20","1,0,0,1","2001,1234,849,1081","-4.308431772232094,-6.50515389122686,-14.799046521221115,31.90500343717347","30.523979830550566,-16.311975589233192,-4.824320782394925,-3.4861708584301283","0","0"
"675","86","text","0","63","915721","0-0","","","","","","","","","","","","","","","","","","","","","","","","","","","","","","","","","","","","",""
"","","plant-game","0","64","935595","0-0","","200","160","8","WHEAT CROP","Left","200","190","2","THISTLE WEED","experimental","19","1,2,3,4,5,6,7,8","160,122.71922839391347,96.09583548165088,92.39809859973025,116.20804589566656,110.55799756752745,96.54959148686905,86.73189147792564","8,7,6,5,4,3,2,1","WHEAT CROP,WHEAT CROP,WHEAT CROP,WHEAT CROP,WHEAT CROP,WHEAT CROP,WHEAT CROP,WHEAT CROP","190,200.4125924740731,140,172.51475223614676,172.4085251636112,200.06671109588666,202.92470786291756,213.41903118867194","2,1,6,5,4,3,2,1","THISTLE WEED,THISTLE WEED,NETTLE WEED,NETTLE WEED,NETTLE WEED,NETTLE WEED,NETTLE WEED,NETTLE WEED","20,20,20,20,20,20,20,20","20,20,20,20,20,20,20,20","10,10,10,10,10,10,10,10","20,20,20,20,20,20,20,20","0,0,0,0,0,0,0,0","20,20,20,20,20,20,20,20","20,20,20,20,20,20,20,20","20,20,20,20,20,20,20,20","10,10,10,10,10,10,10,10","20,20,20,20,20,20,20,20","0,0,0,0,0,0,0,0","20,20,20,20,20,20,20,20","1,1,0,0,0,1,1,0","3346,1508,3624,859,911,600,577,637","-37.28077160608653,-26.623392912262585,-3.697736881920637,23.80994729593631,-5.650048328139107,-14.008406080658409,-9.817700008943408,-31.76411720994716","10.412592474073104,2.7185261056711236,32.51475223614678,-0.10622707253557095,27.65818593227548,2.8579967670308832,10.494323325754387,14.184061181817999","0","0"
"545","86","text","0","65","936300","0-0","","","","","","","","","","","","","","","","","","","","","","","","","","","","","","","","","","","","",""
"","","plant-game","0","66","944538","0-0","","200","160","2","CORN CROP","Right","200","120","2","NETTLE WEED","experimental","20","1,2","120,138.8236727330259","2,1","NETTLE WEED,NETTLE WEED","160,187.2477543054777","2,1","CORN CROP,CORN CROP","0,0","20,20","10,10","20,20","20,20","20,20","0,0","20,20","10,10","20,20","20,20","20,20","1,1","3764,967","18.823672733025894,25.749566088081252","27.247754305477727,45.63429520665644","0","0"
"931","86","text","0","67","945643","0-0","","","","","","","","","","","","","","","","","","","","","","","","","","","","","","","","","","","","",""
"","","plant-game","0","68","956420","0-0","","200","120","1","WHEAT CROP","Right","200","180","1","THISTLE WEED","experimental","21","1","180","1","THISTLE WEED","120","1","WHEAT CROP","0","20","10","20","20","20","0","20","10","20","20","20","0","6768","13.249070410473117","-0.22298848431031387","0","0"
"800","86","text","0","69","957430","0-0","","","","","","","","","","","","","","","","","","","","","","","","","","","","","","","","","","","","",""
"","","plant-game","0","70","975050","0-0","","200","120","2","WHEAT CROP","Right","200","120","4","THISTLE WEED","experimental","22","1,2,3,4","120,152.71780580024756,205.22043680441183,216.66652625650505","4,3,2,1","THISTLE WEED,THISTLE WEED,THISTLE WEED,THISTLE WEED","120,175.84469381417225,180,116.20222500779565","2,1,2,1","WHEAT CROP,WHEAT CROP,CORN CROP,CORN CROP","0,0,0,0","20,20,20,20","10,10,10,10","20,20,20,20","20,20,20,20","20,20,20,20","0,0,0,0","20,20,20,20","10,10,10,10","20,20,20,20","20,20,20,20","20,20,20,20","1,1,0,0","5930,1220,1590,1776","32.71780580024756,52.50263100416427,11.446089452093224,1.519823626753937","55.84469381417224,16.202356655940722,-63.797774992204346,28.816102541427284","0","0"
"589","86","text","0","71","975829","0-0","","","","","","","","","","","","","","","","","","","","","","","","","","","","","","","","","","","","",""
"","","plant-game","0","72","985278","0-0","","200","120","1","CORN CROP","Left","200","160","1","NETTLE WEED","experimental","23","1","120","1","CORN CROP","160","1","NETTLE WEED","20","20","10","20","0","20","20","20","10","20","0","20","1","2996","6.674149066652637","-15.345069650345476","0","0"
"800","86","text","0","73","986265","0-0","","","","","","","","","","","","","","","","","","","","","","","","","","","","","","","","","","","","",""
"","","plant-game","0","74","997496","0-0","","200","190","1","WHEAT CROP","Right","200","160","1","THISTLE WEED","experimental","24","1","160","1","THISTLE WEED","190","1","WHEAT CROP","0","20","10","20","20","20","0","20","10","20","20","20","0","6316","-26.406791982446855","8.62027493738474","0","0"
"1315","86","text","0","75","998967","0-0","","","","","","","","","","","","","","","","","","","","","","","","","","","","","","","","","","","","",""
"","","plant-game","0","76","1019871","0-0","","200","120","8","CORN CROP","Right","200","120","1","THISTLE WEED","experimental","25","1,2,3,4,5,6,7,8","120,130,127.01046350318855,131.60312887891266,154.14206023567047,109.66619518573127,63.590233141944395,72.63363767643537","1,7,6,5,4,3,2,1","THISTLE WEED,NETTLE WEED,NETTLE WEED,NETTLE WEED,NETTLE WEED,NETTLE WEED,NETTLE WEED,NETTLE WEED","120,142.45988600897553,177.59132378584826,173.49587569444847,205.00247957031127,210.66785044207379,191.32787110543708,211.04228866718313","8,7,6,5,4,3,2,1","CORN CROP,CORN CROP,CORN CROP,CORN CROP,CORN CROP,CORN CROP,CORN CROP,CORN CROP","0,0,0,0,0,0,0,0","20,20,20,20,20,20,20,20","10,10,10,10,10,10,10,10","20,20,20,20,20,20,20,20","20,20,20,20,20,20,20,20","20,20,20,20,20,20,20,20","0,0,0,0,0,0,0,0","20,20,20,20,20,20,20,20","10,10,10,10,10,10,10,10","20,20,20,20,20,20,20,20","20,20,20,20,20,20,20,20","20,20,20,20,20,20,20,20","0,1,0,1,0,0,1,1","4200,3403,1282,514,894,817,806,1195","-11.78154778793884,-2.98953649681145,4.592665375724112,22.53893135675782,-44.4758650499392,-46.07596204378687,9.043404534490971,24.67894576602758","22.45988600897554,35.13143777687272,-4.095448091399793,31.506603875862798,5.665370871762519,-19.339979336636702,19.714417561746036,22.169382149746802","0","0"
"850","86","text","0","77","1020871","0-0","","","","","","","","","","","","","","","","","","","","","","","","","","","","","","","","","","","","",""
"","","plant-game","0","78","1047413","0-0","","200","120","2","CORN CROP","Left","200","180","4","THISTLE WEED","experimental","26","1,2,3,4","120,118.14924755012527,180,218.4984903033416","2,1,2,1","CORN CROP,CORN CROP,WHEAT CROP,WHEAT CROP","180,182.99346580962313,178.8003412184474,210.00589288169965","4,3,2,1","THISTLE WEED,THISTLE WEED,THISTLE WEED,THISTLE WEED","20,20,20,20","20,20,20,20","10,10,10,10","20,20,20,20","0,0,0,0","20,20,20,20","20,20,20,20","20,20,20,20","10,10,10,10","20,20,20,20","0,0,0,0","20,20,20,20","0,1,0,1","6871,2973,7711,1925","-1.85075244987474,-0.4900823921672037,38.498490303341605,11.387150121489878","2.9934658096231423,-4.193124591175747,31.205551663252262,-6.995333596604244","0","0"
"668","86","text","0","79","1048261","0-0","","","","","","","","","","","","","","","","","","","","","","","","","","","","","","","","","","","","",""
"","","plant-game","0","80","1063468","0-0","","200","120","1","CORN CROP","Left","200","190","2","THISTLE WEED","experimental","27","1,2","120,190","1,1","CORN CROP,WHEAT CROP","190,201.25549424394026","2,1","THISTLE WEED,THISTLE WEED","20,20","20,20","10,10","20,20","0,0","20,20","20,20","20,20","10,10","20,20","0,0","20,20","0,1","6514,1737","13.857028140549545,9.884873866967958","11.255494243940253,14.14356844900762","0","0"
"601","86","text","0","81","1064209","0-0","","","","","","","","","","","","","","","","","","","","","","","","","","","","","","","","","","","","",""
"","","plant-game","0","82","1080726","0-0","","200","160","2","CORN CROP","Left","200","160","2","THISTLE WEED","experimental","28","1,2","160,171.31631060440256","2,1","CORN CROP,CORN CROP","160,195.35523439355427","2,1","THISTLE WEED,THISTLE WEED","20,20","20,20","10,10","20,20","0,0","20,20","20,20","20,20","10,10","20,20","0,0","20,20","0,1","10087,986","11.316310604402547,-2.839579580898218","35.35523439355427,-13.480708419250941","0","0"
"464","86","text","0","83","1081377","0-0","","","","","","","","","","","","","","","","","","","","","","","","","","","","","","","","","","","","",""
"","","plant-game","0","84","1103981","0-0","","200","120","8","CORN CROP","Right","200","190","1","NETTLE WEED","experimental","29","1,2,3,4,5,6,7,8","190,130,178.21107224802194,171.856681852501,210.29410019091182,234.35211098492783,209.58176662814242,218.34569739888457","1,7,6,5,4,3,2,1","NETTLE WEED,THISTLE WEED,THISTLE WEED,THISTLE WEED,THISTLE WEED,THISTLE WEED,THISTLE WEED,THISTLE WEED","120,147.0891395438522,156.23318281164987,175.42152314691089,164.2386552437335,174.23477426669947,174.2596129320909,169.44761688576517","8,7,6,5,4,3,2,1","CORN CROP,CORN CROP,CORN CROP,CORN CROP,CORN CROP,CORN CROP,CORN CROP,CORN CROP","0,0,0,0,0,0,0,0","20,20,20,20,20,20,20,20","10,10,10,10,10,10,10,10","20,20,20,20,20,20,20,20","20,20,20,20,20,20,20,20","20,20,20,20,20,20,20,20","0,0,0,0,0,0,0,0","20,20,20,20,20,20,20,20","10,10,10,10,10,10,10,10","20,20,20,20,20,20,20,20","20,20,20,20,20,20,20,20","20,20,20,20,20,20,20,20","0,1,0,1,0,0,0,1","3906,1126,1124,815,2753,1369,1210,2428","-10.92584757300888,48.21107224802195,-6.354390395520943,38.437418338410836,24.058010794016017,-24.77034435678543,8.76393077074214,-36.144617100670686","27.08913954385222,9.14404326779765,19.188340335261014,-11.182867903177389,9.996119022965983,0.02483866539144224,-4.811996046325744,56.239145400228125","0","0"
"624","86","text","0","85","1104765","0-0","","","","","","","","","","","","","","","","","","","","","","","","","","","","","","","","","","","","",""
"","","plant-game","0","86","1115090","0-0","","200","180","1","WHEAT CROP","Left","200","180","1","THISTLE WEED","experimental","30","1","180","1","WHEAT CROP","180","1","THISTLE WEED","20","20","10","20","0","20","20","20","10","20","0","20","0","7058","8.89997906744461","-3.031631756580385","0","0"
"643","86","text","0","87","1115873","0-0","","","","","","","","","","","","","","","","","","","","","","","","","","","","","","","","","","","","",""
"","","plant-game","0","88","1135266","0-0","","200","120","2","WHEAT CROP","Right","200","190","4","NETTLE WEED","experimental","31","1,2,3,4","190,196.75178366301603,219.79362448799378,239.78918575123382","4,3,2,1","NETTLE WEED,NETTLE WEED,NETTLE WEED,NETTLE WEED","120,137.6235548864127,180,209.6599402237608","2,1,2,1","WHEAT CROP,WHEAT CROP,CORN CROP,CORN CROP","0,0,0,0","20,20,20,20","10,10,10,10","20,20,20,20","20,20,20,20","20,20,20,20","0,0,0,0","20,20,20,20","10,10,10,10","20,20,20,20","20,20,20,20","20,20,20,20","1,1,0,0","7793,971,2828,1198","6.751783663016015,23.041840824977765,19.99556126324003,-12.284724711829805","17.62355488641272,20.823065885821578,29.6599402237608,-13.72472433199388","0","0"
"573","86","text","0","89","1135981","0-0","","","","","","","","","","","","","","","","","","","","","","","","","","","","","","","","","","","","",""
"","","plant-game","0","90","1150976","0-0","","200","120","1","CORN CROP","Right","200","160","2","NETTLE WEED","experimental","32","1,2","160,149.91692327832808","2,1","NETTLE WEED,NETTLE WEED","120,190","1,1","CORN CROP,WHEAT CROP","0,0","20,20","10,10","20,20","20,20","20,20","0,0","20,20","10,10","20,20","20,20","20,20","0,0","5526,1190","-10.083076721671919,15.907817967177408","7.285833109116016,-4.622379659936188","0","0"
"4814","86","text","0","91","1155962","0-0","","","","","","","","","","","","","","","","","","","","","","","","","","","","","","","","","","","","",""
"","","plant-game","0","92","1167525","0-0","","200","180","2","WHEAT CROP","Right","200","180","2","THISTLE WEED","experimental","33","1,2","180,182.25673376388613","2,1","THISTLE WEED,THISTLE WEED","180,177.51628891877286","2,1","WHEAT CROP,WHEAT CROP","0,0","20,20","10,10","20,20","20,20","20,20","0,0","20,20","10,10","20,20","20,20","20,20","1,1","5289,2771","2.2567337638861176,54.02663492090018","-2.4837110812271526,1.9779791873464667","0","0"
"1463","86","text","0","93","1169148","0-0","","","","","","","","","","","","","","","","","","","","","","","","","","","","","","","","","","","","",""
"","","plant-game","0","94","1184463","0-0","","200","120","4","CORN CROP","Right","200","160","1","THISTLE WEED","experimental","34","1,2,3,4","160,170,199.01856439892362,207.533565357382","1,3,2,1","THISTLE WEED,NETTLE WEED,NETTLE WEED,NETTLE WEED","120,103.55227527723189,151.67460996101323,151.0780213794774","4,3,2,1","CORN CROP,CORN CROP,CORN CROP,CORN CROP","0,0,0,0","20,20,20,20","10,10,10,10","20,20,20,20","20,20,20,20","20,20,20,20","0,0,0,0","20,20,20,20","10,10,10,10","20,20,20,20","20,20,20,20","20,20,20,20","0,1,1,1","3580,3096,1418,1495","18.841507782295253,29.01856439892361,8.515000958458385,30.171501409385762","-16.447724722768115,48.12233468378136,-0.5965885815358192,35.156059617878775","0","0"
"590","86","text","0","95","1185221","0-0","","","","","","","","","","","","","","","","","","","","","","","","","","","","","","","","","","","","",""
"","","plant-game","0","96","1200755","0-0","","200","190","4","WHEAT CROP","Right","200","190","2","THISTLE WEED","experimental","35","1,2,3,4","190,186.35054780395566,180,228.8488054995902","2,1,2,1","THISTLE WEED,THISTLE WEED,NETTLE WEED,NETTLE WEED","190,164.59582840518706,158.18356301473568,200.06842444790755","4,3,2,1","WHEAT CROP,WHEAT CROP,WHEAT CROP,WHEAT CROP","0,0,0,0","20,20,20,20","10,10,10,10","20,20,20,20","20,20,20,20","20,20,20,20","0,0,0,0","20,20,20,20","10,10,10,10","20,20,20,20","20,20,20,20","20,20,20,20","0,0,1,0","3750,1224,2230,2445","-3.6494521960443227,-2.8209462308757893,48.848805499590206,1.4981898668259808","-25.40417159481293,-6.412265390451384,41.884861433171864,21.631847218585136","0","0"
"727","86","text","0","97","1201642","0-0","","","","","","","","","","","","","","","","","","","","","","","","","","","","","","","","","","","","",""
"","","plant-game","0","98","1220345","0-0","","200","180","1","CORN CROP","Right","200","120","8","THISTLE WEED","experimental","36","1,2,3,4,5,6,7,8","120,166.63537567296967,147.49303979843458,159.14473519075443,217.350021818742,190.70139018492074,183.32901737532086,193.5418917484786","8,7,6,5,4,3,2,1","THISTLE WEED,THISTLE WEED,THISTLE WEED,THISTLE WEED,THISTLE WEED,THISTLE WEED,THISTLE WEED,THISTLE WEED","180,130,110.93478331824916,126.60505259960746,108.52963480279902,143.03008308570696,181.28803046244846,218.59978740819287","1,7,6,5,4,3,2,1","CORN CROP,WHEAT CROP,WHEAT CROP,WHEAT CROP,WHEAT CROP,WHEAT CROP,WHEAT CROP,WHEAT CROP","0,0,0,0,0,0,0,0","20,20,20,20,20,20,20,20","10,10,10,10,10,10,10,10","20,20,20,20,20,20,20,20","20,20,20,20,20,20,20,20","20,20,20,20,20,20,20,20","0,0,0,0,0,0,0,0","20,20,20,20,20,20,20,20","10,10,10,10,10,10,10,10","20,20,20,20,20,20,20,20","20,20,20,20,20,20,20,20","20,20,20,20,20,20,20,20","1,0,1,1,0,1,1,0","4445,3017,477,753,597,1050,981,1274","46.63537567296967,-19.142335874535103,11.651695392319866,58.20528662798755,-26.648631633821264,-7.372372809599877,10.212874373157753,-2.8595701142061367","-8.865407258682772,-19.065216681750844,15.670269281358305,-18.075417796808438,34.50044828290795,38.25794737674149,37.3117569457444,18.22245946727748","0","0"
"174","86","text","0","99","1220691","0-0","","","","","","","","","","","","","","","","","","","","","","","","","","","","","","","","","","","","",""
"","","plant-game","0","100","1237321","0-0","","200","160","8","CORN CROP","Right","200","120","2","NETTLE WEED","experimental","37","1,2,3,4,5,6,7,8","120,84.45898405907744,140,146.0818304980413,114.96982235964067,104.0527413588265,116.42216938669418,122.52062082480161","2,1,6,5,4,3,2,1","NETTLE WEED,NETTLE WEED,THISTLE WEED,THISTLE WEED,THISTLE WEED,THISTLE WEED,THISTLE WEED,THISTLE WEED","160,151.09253210298002,161.04417269413855,208.258307095598,217.880520380689,227.21392009937358,206.22032564540757,191.7963307962227","8,7,6,5,4,3,2,1","CORN CROP,CORN CROP,CORN CROP,CORN CROP,CORN CROP,CORN CROP,CORN CROP,CORN CROP","0,0,0,0,0,0,0,0","20,20,20,20,20,20,20,20","10,10,10,10,10,10,10,10","20,20,20,20,20,20,20,20","20,20,20,20,20,20,20,20","20,20,20,20,20,20,20,20","0,0,0,0,0,0,0,0","20,20,20,20,20,20,20,20","10,10,10,10,10,10,10,10","20,20,20,20,20,20,20,20","20,20,20,20,20,20,20,20","20,20,20,20,20,20,20,20","0,0,1,0,0,0,0,1","2730,574,2672,1052,528,480,570,489","-35.541015940922556,5.096265479624283,6.081830498041327,-31.112008138400636,-10.917081000814182,12.369428027867677,6.098451438107433,25.563263011427473","-8.90746789701999,9.951640591158528,47.21413440145947,9.622213285090979,9.333399718684566,-20.99359445396602,-14.423994849184872,40.233783863662325","0","0"
"7149","86","text","0","101","1244630","0-0","","","","","","","","","","","","","","","","","","","","","","","","","","","","","","","","","","","","",""
"","","plant-game","0","102","1257680","0-0","","200","190","1","CORN CROP","Right","200","160","2","NETTLE WEED","experimental","38","1,2","160,183.28762774359222","2,1","NETTLE WEED,NETTLE WEED","190,190","1,1","CORN CROP,WHEAT CROP","0,0","20,20","10,10","20,20","20,20","20,20","0,0","20,20","10,10","20,20","20,20","20,20","1,1","2395,5258","23.28762774359221,20.078791574544393","21.1094372343874,62.29902946491683","0","0"
"640","86","text","0","103","1258511","0-0","","","","","","","","","","","","","","","","","","","","","","","","","","","","","","","","","","","","",""
"","","plant-game","0","104","1272228","0-0","","200","180","2","CORN CROP","Left","200","190","1","THISTLE WEED","experimental","39","1,2","180,210.07176634786322","2,1","CORN CROP,CORN CROP","190,190","1,1","THISTLE WEED,NETTLE WEED","20,20","20,20","10,10","20,20","0,0","20,20","20,20","20,20","10,10","20,20","0,0","20,20","0,1","5497,2875","30.07176634786321,14.02161306664318","39.039890266695465,-11.773462967942079","0","0"
"6473","86","text","0","105","1278821","0-0","","","","","","","","","","","","","","","","","","","","","","","","","","","","","","","","","","","","",""
"","","plant-game","0","106","1296783","0-0","","200","180","2","CORN CROP","Left","200","190","4","NETTLE WEED","experimental","40","1,2,3,4","180,227.13484559208354,180,197.40105115254744","2,1,2,1","CORN CROP,CORN CROP,WHEAT CROP,WHEAT CROP","190,190.40748101762114,223.18693335082057,188.37727687737703","4,3,2,1","NETTLE WEED,NETTLE WEED,NETTLE WEED,NETTLE WEED","20,20,20,20","20,20,20,20","10,10,10,10","20,20,20,20","0,0,0,0","20,20,20,20","20,20,20,20","20,20,20,20","10,10,10,10","20,20,20,20","0,0,0,0","20,20,20,20","0,0,1,1","4552,3074,2883,1200","47.134845592083536,33.088589800470174,17.401051152547453,12.452843277934015","0.4074810176211443,32.77945233319944,-34.809656473443546,32.66408792775727","0","0"
"631","86","text","0","107","1297634","0-0","","","","","","","","","","","","","","","","","","","","","","","","","","","","","","","","","","","","",""
"","","plant-game","0","108","1317813","0-0","","200","160","8","WHEAT CROP","Left","200","120","1","NETTLE WEED","experimental","41","1,2,3,4,5,6,7,8","160,192.6049896128443,191.47442638802653,200.32662464991142,239.51272032315995,239.98483703212145,218.1004130298847,218.04593839939676","8,7,6,5,4,3,2,1","WHEAT CROP,WHEAT CROP,WHEAT CROP,WHEAT CROP,WHEAT CROP,WHEAT CROP,WHEAT CROP,WHEAT CROP","120,130,151.1900082840182,144.9225290376411,176.12693067906366,134.3541235457729,170.4641949034778,207.16500844190475","1,7,6,5,4,3,2,1","NETTLE WEED,THISTLE WEED,THISTLE WEED,THISTLE WEED,THISTLE WEED,THISTLE WEED,THISTLE WEED,THISTLE WEED","20,20,20,20,20,20,20,20","20,20,20,20,20,20,20,20","10,10,10,10,10,10,10,10","20,20,20,20,20,20,20,20","0,0,0,0,0,0,0,0","20,20,20,20,20,20,20,20","20,20,20,20,20,20,20,20","20,20,20,20,20,20,20,20","10,10,10,10,10,10,10,10","20,20,20,20,20,20,20,20","0,0,0,0,0,0,0,0","20,20,20,20,20,20,20,20","1,1,1,0,1,0,1,1","4842,2007,387,2391,596,1133,531,2291","32.6049896128443,-1.1305632248177635,8.852198261884897,39.186095673248516,0.47211670896148666,-21.88442400223675,-0.054474630487943584,-3.668084525624473","18.169390631822548,21.190008284018205,-6.2674792463771025,31.204401641422542,-41.772807133290755,36.11007135770491,36.700813538426964,14.753841544821098","0","0"
"494","86","text","0","109","1318468","0-0","","","","","","","","","","","","","","","","","","","","","","","","","","","","","","","","","","","","",""
"","","plant-game","0","110","1337289","0-0","","200","120","2","WHEAT CROP","Left","200","190","1","NETTLE WEED","experimental","42","1,2","120,110.53066578527954","2,1","WHEAT CROP,WHEAT CROP","190,190","1,1","NETTLE WEED,THISTLE WEED","20,20","20,20","10,10","20,20","0,0","20,20","20,20","20,20","10,10","20,20","0,0","20,20","1,1","924,5233","-9.469334214720462,9.116468558618392","24.15369366671181,14.152430221793757","0","0"
"500","86","text","0","111","1337949","0-0","","","","","","","","","","","","","","","","","","","","","","","","","","","","","","","","","","","","",""
"","","plant-game","0","112","1369090","0-0","","200","120","4","CORN CROP","Right","200","180","8","NETTLE WEED","experimental","43","1,2,3,4,5,6,7,8","180,190.76242704270805,206.01089733997583,230.26790955051433,238.93889345865944,255.05255597583374,253.56068093288184,224.20796394045936","8,7,6,5,4,3,2,1","NETTLE WEED,NETTLE WEED,NETTLE WEED,NETTLE WEED,NETTLE WEED,NETTLE WEED,NETTLE WEED,NETTLE WEED","120,136.5514882799137,147.305129095421,162.3162688610061,160,121.52358309891102,124.12455733257832,123.05908885804112","4,3,2,1,4,3,2,1","CORN CROP,CORN CROP,CORN CROP,CORN CROP,WHEAT CROP,WHEAT CROP,WHEAT CROP,WHEAT CROP","0,0,0,0,0,0,0,0","20,20,20,20,20,20,20,20","10,10,10,10,10,10,10,10","20,20,20,20,20,20,20,20","20,20,20,20,20,20,20,20","20,20,20,20,20,20,20,20","0,0,0,0,0,0,0,0","20,20,20,20,20,20,20,20","10,10,10,10,10,10,10,10","20,20,20,20,20,20,20,20","20,20,20,20,20,20,20,20","20,20,20,20,20,20,20,20","0,1,1,1,0,0,0,0","9554,2760,1706,1364,3939,1740,1725,1442","10.762427042708058,15.248470297267772,24.257012210538498,8.670983908145093,16.11366251717431,-1.4918750429519136,-29.352716992422486,21.145827242159964","16.551488279913702,10.753640815507294,15.011139765585117,34.401649952927215,-38.476416901088974,2.600974233667301,-1.0654684745372043,-0.44075355402006067","0","0"
"233","86","text","0","113","1369448","0-0","","","","","","","","","","","","","","","","","","","","","","","","","","","","","","","","","","","","",""
"","","plant-game","0","114","1386029","0-0","","200","190","2","CORN CROP","Right","200","180","4","NETTLE WEED","experimental","44","1,2,3,4","180,202.99509447110637,242.39163880082282,246.67377039231306","4,3,2,1","NETTLE WEED,NETTLE WEED,NETTLE WEED,NETTLE WEED","190,234.87275076268037,180,201.23846930333292","2,1,2,1","CORN CROP,CORN CROP,WHEAT CROP,WHEAT CROP","0,0,0,0","20,20,20,20","10,10,10,10","20,20,20,20","20,20,20,20","20,20,20,20","0,0,0,0","20,20,20,20","10,10,10,10","20,20,20,20","20,20,20,20","20,20,20,20","1,1,0,0","4103,2176,1214,2280","22.995094471106356,39.39654432971645,4.282131591490229,6.245324359346939","44.87275076268038,-5.557484548637074,21.23846930333293,-28.29286705807243","0","0"
"468","86","text","0","115","1386667","0-0","","","","","","","","","","","","","","","","","","","","","","","","","","","","","","","","","","","","",""
"","","plant-game","0","116","1412288","0-0","","200","120","2","WHEAT CROP","Left","200","190","8","NETTLE WEED","experimental","45","1,2,3,4,5,6,7,8","120,147.3209241958131,140,121.887372262987,134.76385717804172,133.21737193910496,123.70010327254394,140.78538917122117","2,1,6,5,4,3,2,1","WHEAT CROP,WHEAT CROP,CORN CROP,CORN CROP,CORN CROP,CORN CROP,CORN CROP,CORN CROP","190,213.4299944325679,194.44541302486147,182.21926521568435,170.4359619442327,181.02119332708264,155.1216109458351,150.04568822332175","8,7,6,5,4,3,2,1","NETTLE WEED,NETTLE WEED,NETTLE WEED,NETTLE WEED,NETTLE WEED,NETTLE WEED,NETTLE WEED,NETTLE WEED","20,20,20,20,20,20,20,20","20,20,20,20,20,20,20,20","10,10,10,10,10,10,10,10","20,20,20,20,20,20,20,20","0,0,0,0,0,0,0,0","20,20,20,20,20,20,20,20","20,20,20,20,20,20,20,20","20,20,20,20,20,20,20,20","10,10,10,10,10,10,10,10","20,20,20,20,20,20,20,20","0,0,0,0,0,0,0,0","20,20,20,20,20,20,20,20","0,0,1,1,1,1,0,0","6935,735,6223,1217,1171,1034,448,985","27.320924195813088,19.590547505316575,-18.112627737012996,12.876484915054727,-1.5464852389367487,-9.517268666561016,17.085285898677235,18.292380000428587","23.429994432567902,-18.984581407706422,-12.226147809177121,-11.78330327145163,10.585231382849953,-25.89958238124754,-5.075922722513354,7.881217826981873","0","0"
"551","86","text","0","117","1413010","0-0","","","","","","","","","","","","","","","","","","","","","","","","","","","","","","","","","","","","",""
"","","plant-game","0","118","1430000","0-0","","200","120","4","WHEAT CROP","Left","200","180","1","NETTLE WEED","experimental","46","1,2,3,4","120,130.8698846300401,131.682320276571,143.78620638539556","4,3,2,1","WHEAT CROP,WHEAT CROP,WHEAT CROP,WHEAT CROP","180,170,177.45247928056406,184.54271865633476","1,3,2,1","NETTLE WEED,THISTLE WEED,THISTLE WEED,THISTLE WEED","20,20,20,20","20,20,20,20","10,10,10,10","20,20,20,20","0,0,0,0","20,20,20,20","20,20,20,20","20,20,20,20","10,10,10,10","20,20,20,20","0,0,0,0","20,20,20,20","1,1,0,1","3800,3603,556,718","10.869884630040104,0.8124356465309119,12.103886108824558,16.19558408108751","-12.118739249766534,7.452479280564064,7.090239375770695,15.18926558204871","0","0"
"559","86","text","0","119","1430731","0-0","","","","","","","","","","","","","","","","","","","","","","","","","","","","","","","","","","","","",""
"","","plant-game","0","120","1438870","0-0","","200","160","1","WHEAT CROP","Right","200","120","1","NETTLE WEED","experimental","47","1","120","1","NETTLE WEED","160","1","WHEAT CROP","0","20","10","20","20","20","0","20","10","20","20","20","1","4549","21.843047378544675","0.3306315733894394","0","0"
"505","86","text","0","121","1439563","0-0","","","","","","","","","","","","","","","","","","","","","","","","","","","","","","","","","","","","",""
"","","plant-game","0","122","1454884","0-0","","200","160","2","CORN CROP","Left","200","120","1","NETTLE WEED","experimental","48","1,2","160,164.96167669649353","2,1","CORN CROP,CORN CROP","120,190","1,1","NETTLE WEED,THISTLE WEED","20,20","20,20","10,10","20,20","0,0","20,20","20,20","20,20","10,10","20,20","0,0","20,20","0,1","5436,3929","4.96167669649353,-12.43328697636276","41.348058365068496,2.0737485765586503","0","0"
"5786","86","text","0","123","1460841","0-0","","","","","","","","","","","","","","","","","","","","","","","","","","","","","","","","","","","","",""
"","","plant-game","0","124","1474886","0-0","","200","190","4","WHEAT CROP","Left","200","120","4","NETTLE WEED","experimental","49","1,2,3,4","190,192.27774256356423,226.9746203229182,211.2416038818377","4,3,2,1","WHEAT CROP,WHEAT CROP,WHEAT CROP,WHEAT CROP","120,153.90720803593325,188.00012573830432,188.04288576770793","4,3,2,1","NETTLE WEED,NETTLE WEED,NETTLE WEED,NETTLE WEED","20,20,20,20","20,20,20,20","10,10,10,10","20,20,20,20","0,0,0,0","20,20,20,20","20,20,20,20","20,20,20,20","10,10,10,10","20,20,20,20","0,0,0,0","20,20,20,20","0,0,1,1","4158,911,1668,2042","2.2777425635642317,34.69687775935397,-15.733016441080498,-7.111352294355147","33.90720803593325,34.09291770237106,0.042760029403604995,-6.384172840185855","1","0"
"465","86","text","0","125","1475521","0-0","","","","","","","","","","","","","","","","","","","","","","","","","","","","","","","","","","","","",""
"","","plant-game","0","126","1487207","0-0","","200","190","4","WHEAT CROP","Left","200","120","1","THISTLE WEED","experimental","50","1,2,3,4","190,175.00563163039263,185.6033767620213,191.49944573287746","4,3,2,1","WHEAT CROP,WHEAT CROP,WHEAT CROP,WHEAT CROP","120,170,198.7716211758277,185.57639491967745","1,3,2,1","THISTLE WEED,NETTLE WEED,NETTLE WEED,NETTLE WEED","20,20,20,20","20,20,20,20","10,10,10,10","20,20,20,20","0,0,0,0","20,20,20,20","20,20,20,20","20,20,20,20","10,10,10,10","20,20,20,20","0,0,0,0","20,20,20,20","1,0,1,0","2282,1859,1205,1270","-14.994368369607384,10.597745131628665,5.896068970856162,7.798594989018895","30.297474923271675,28.77162117582772,-13.195226256150256,29.46108855177031","0","0"
"175","86","text","0","127","1487542","0-0","","","","","","","","","","","","","","","","","","","","","","","","","","","","","","","","","","","","",""
"","","plant-game","0","128","1506390","0-0","","200","120","8","WHEAT CROP","Right","200","120","4","THISTLE WEED","experimental","51","1,2,3,4,5,6,7,8","120,132.42394632229693,116.61405577519736,131.70066569439243,160,189.44675346055243,219.03776486277667,258.9650778027393","4,3,2,1,4,3,2,1","THISTLE WEED,THISTLE WEED,THISTLE WEED,THISTLE WEED,NETTLE WEED,NETTLE WEED,NETTLE WEED,NETTLE WEED","120,120.73896664383496,109.33876345482184,116.99104988581199,102.62522564608092,139.36777308933063,128.19293165060162,135.64416730283082","8,7,6,5,4,3,2,1","WHEAT CROP,WHEAT CROP,WHEAT CROP,WHEAT CROP,WHEAT CROP,WHEAT CROP,WHEAT CROP,WHEAT CROP","0,0,0,0,0,0,0,0","20,20,20,20,20,20,20,20","10,10,10,10,10,10,10,10","20,20,20,20,20,20,20,20","20,20,20,20,20,20,20,20","20,20,20,20,20,20,20,20","0,0,0,0,0,0,0,0","20,20,20,20,20,20,20,20","10,10,10,10,10,10,10,10","20,20,20,20,20,20,20,20","20,20,20,20,20,20,20,20","20,20,20,20,20,20,20,20","0,0,0,1,1,0,1,1","5830,686,675,934,2176,938,830,684","12.423946322296937,-15.80989054709957,15.08660991919508,30.901133580835488,29.446753460552436,29.591011402224247,39.927312939962626,32.35116800109194","0.7389666438349595,-11.400203189013112,7.652286430990141,-14.365824239731069,36.74254744324969,-11.174841438729013,7.451235652229208,-11.004239138977585","0","0"
"659","86","text","0","129","1507119","0-0","","","","","","","","","","","","","","","","","","","","","","","","","","","","","","","","","","","","",""
"","","plant-game","0","130","1529016","0-0","","200","180","2","CORN CROP","Left","200","120","1","THISTLE WEED","experimental","52","1,2","180,212.51920066607147","2,1","CORN CROP,CORN CROP","120,190","1,1","THISTLE WEED,NETTLE WEED","20,20","20,20","10,10","20,20","0,0","20,20","20,20","20,20","10,10","20,20","0,0","20,20","0,1","5306,2028","32.519200666071455,-1.626482151144468","7.583898989160534,25.209193635725757","0","0"
"649","86","text","0","131","1529825","0-0","","","","","","","","","","","","","","","","","","","","","","","","","","","","","","","","","","","","",""
"","","plant-game","0","132","1548560","0-0","","200","190","4","WHEAT CROP","Right","200","120","2","NETTLE WEED","experimental","53","1,2,3,4","120,138.74879770011523,180,194.06670977687122","2,1,2,1","NETTLE WEED,NETTLE WEED,THISTLE WEED,THISTLE WEED","190,191.81016202185455,170.98199666595858,166.81806366071947","4,3,2,1","WHEAT CROP,WHEAT CROP,WHEAT CROP,WHEAT CROP","0,0,0,0","20,20,20,20","10,10,10,10","20,20,20,20","20,20,20,20","20,20,20,20","0,0,0,0","20,20,20,20","10,10,10,10","20,20,20,20","20,20,20,20","20,20,20,20","1,1,0,0","7040,1329,4605,1188","18.748797700115233,-25.686087660266423,14.066709776871228,-8.037930374861373","1.8101620218545413,-20.828165355895976,-4.163933005239107,-1.6990078486111437","0","0"
"494","86","text","0","133","1549195","0-0","","","","","","","","","","","","","","","","","","","","","","","","","","","","","","","","","","","","",""
"","","plant-game","0","134","1565629","0-0","","200","120","4","CORN CROP","Right","200","190","1","NETTLE WEED","experimental","54","1,2,3,4","190,170,200.56773630835053,215.36961781926848","1,3,2,1","NETTLE WEED,THISTLE WEED,THISTLE WEED,THISTLE WEED","120,86.76361958887205,154.05597243236767,166.0113785380255","4,3,2,1","CORN CROP,CORN CROP,CORN CROP,CORN CROP","0,0,0,0","20,20,20,20","10,10,10,10","20,20,20,20","20,20,20,20","20,20,20,20","0,0,0,0","20,20,20,20","10,10,10,10","20,20,20,20","20,20,20,20","20,20,20,20","0,1,1,1","3181,2701,1665,2275","-10.50488074790855,30.56773630835053,14.801881510917951,-14.831480264200337","-33.23638041112795,67.29235284349562,11.955406105657826,34.77692812685142","0","0"
"489","86","text","0","135","1566292","0-0","","","","","","","","","","","","","","","","","","","","","","","","","","","","","","","","","","","","",""
"","","plant-game","0","136","1583525","0-0","","200","180","4","CORN CROP","Right","200","160","2","NETTLE WEED","experimental","55","1,2,3,4","160,141.10686103222702,180,164.2549414386562","2,1,2,1","NETTLE WEED,NETTLE WEED,THISTLE WEED,THISTLE WEED","180,177.04192488894893,203.67644775628534,187.75227278614742","4,3,2,1","CORN CROP,CORN CROP,CORN CROP,CORN CROP","0,0,0,0","20,20,20,20","10,10,10,10","20,20,20,20","20,20,20,20","20,20,20,20","0,0,0,0","20,20,20,20","10,10,10,10","20,20,20,20","20,20,20,20","20,20,20,20","0,1,0,1","6043,1872,2625,1432","-18.89313896777297,-14.71032654400738,-15.745058561343795,19.056833644720626","-2.9580751110510746,26.634522867336422,-15.924174970137921,-0.6012187426330975","0","0"
"485","86","text","0","137","1584150","0-0","","","","","","","","","","","","","","","","","","","","","","","","","","","","","","","","","","","","",""
"","","plant-game","0","138","1596655","0-0","","200","190","2","WHEAT CROP","Right","200","180","2","THISTLE WEED","experimental","56","1,2","180,200.92604790462198","2,1","THISTLE WEED,THISTLE WEED","190,196.49128902134493","2,1","WHEAT CROP,WHEAT CROP","0,0","20,20","10,10","20,20","20,20","20,20","0,0","20,20","10,10","20,20","20,20","20,20","1,0","6010,1520","20.92604790462197,-53.10008672965001","6.491289021344915,9.10854708108838","0","0"
"3925","86","text","0","139","1600720","0-0","","","","","","","","","","","","","","","","","","","","","","","","","","","","","","","","","","","","",""
"","","plant-game","0","140","1618819","0-0","","200","180","8","WHEAT CROP","Left","200","180","8","THISTLE WEED","experimental","57","1,2,3,4,5,6,7,8","180,185.01868678769452,160.44668961882164,162.19705659419662,172.03177038502605,202.8194101977397,197.9147055638493,223.01011733555984","8,7,6,5,4,3,2,1","WHEAT CROP,WHEAT CROP,WHEAT CROP,WHEAT CROP,WHEAT CROP,WHEAT CROP,WHEAT CROP,WHEAT CROP","180,210.0830334916982,189.08536454446784,216.9559126996896,226.83002845037663,248.528499676238,276.9322877069262,310.42163406390887","8,7,6,5,4,3,2,1","THISTLE WEED,THISTLE WEED,THISTLE WEED,THISTLE WEED,THISTLE WEED,THISTLE WEED,THISTLE WEED,THISTLE WEED","20,20,20,20,20,20,20,20","20,20,20,20,20,20,20,20","10,10,10,10,10,10,10,10","20,20,20,20,20,20,20,20","0,0,0,0,0,0,0,0","20,20,20,20,20,20,20,20","20,20,20,20,20,20,20,20","20,20,20,20,20,20,20,20","10,10,10,10,10,10,10,10","20,20,20,20,20,20,20,20","0,0,0,0,0,0,0,0","20,20,20,20,20,20,20,20","1,1,0,1,0,1,0,1","4736,1178,823,683,2832,981,828,890","5.0186867876945085,-24.571997168872876,1.7503669753749982,9.834713790829428,30.787639812713646,-4.904704633890378,25.09541177171052,-15.35810569603714","30.0830334916982,-20.997668947230345,27.870548155221776,9.87411575068702,21.69847122586136,28.4037880306882,33.489346356982665,-1.6721221242397784","0","0"
"4091","86","text","0","141","1623080","0-0","","","","","","","","","","","","","","","","","","","","","","","","","","","","","","","","","","","","",""
"","","plant-game","0","142","1642048","0-0","","200","120","4","WHEAT CROP","Right","200","120","2","THISTLE WEED","experimental","58","1,2,3,4","120,117.3387400907715,180,132.35133162645286","2,1,2,1","THISTLE WEED,THISTLE WEED,NETTLE WEED,NETTLE WEED","120,143.92273887322887,131.87769614095143,103.11333118151862","4,3,2,1","WHEAT CROP,WHEAT CROP,WHEAT CROP,WHEAT CROP","0,0,0,0","20,20,20,20","10,10,10,10","20,20,20,20","20,20,20,20","20,20,20,20","0,0,0,0","20,20,20,20","10,10,10,10","20,20,20,20","20,20,20,20","20,20,20,20","1,1,0,1","7347,1090,4382,692","-2.6612599092285123,53.4655163146844,-47.648668373547125,40.238184376872326","23.922738873228873,-12.045042732277437,-28.764364959432815,23.09479326959542","0","0"
"1331","86","text","0","143","1643504","0-0","","","","","","","","","","","","","","","","","","","","","","","","","","","","","","","","","","","","",""
"","","plant-game","0","144","1653252","0-0","","200","160","1","WHEAT CROP","Right","200","120","2","NETTLE WEED","experimental","59","1,2","120,156.7108927580075","2,1","NETTLE WEED,NETTLE WEED","160,190","1,1","WHEAT CROP,CORN CROP","0,0","20,20","10,10","20,20","20,20","20,20","0,0","20,20","10,10","20,20","20,20","20,20","1,0","2846,1391","36.71089275800749,5.5767139125561735","44.44327508373104,8.165570155533633","0","0"
"524","86","text","0","145","1653956","0-0","","","","","","","","","","","","","","","","","","","","","","","","","","","","","","","","","","","","",""
"","","plant-game","0","146","1665619","0-0","","200","160","4","CORN CROP","Right","200","120","4","NETTLE WEED","experimental","60","1,2,3,4","120,170.76454215860753,198.25643520937228,174.73459798503742","4,3,2,1","NETTLE WEED,NETTLE WEED,NETTLE WEED,NETTLE WEED","160,186.87140863183433,187.47849190278703,179.24219351673904","4,3,2,1","CORN CROP,CORN CROP,CORN CROP,CORN CROP","0,0,0,0","20,20,20,20","10,10,10,10","20,20,20,20","20,20,20,20","20,20,20,20","0,0,0,0","20,20,20,20","10,10,10,10","20,20,20,20","20,20,20,20","20,20,20,20","1,0,0,1","4383,1056,2014,702","50.764542158607526,27.491893050764773,-23.521837224334856,36.072494688897166","26.871408631834324,0.6070832709527113,-8.236298386047988,-13.051785411603973","0","0"
"501","86","text","0","147","1666270","0-0","","","","","","","","","","","","","","","","","","","","","","","","","","","","","","","","","","","","",""
"","","plant-game","0","148","1683148","0-0","","200","180","1","CORN CROP","Right","200","190","8","NETTLE WEED","experimental","61","1,2,3,4,5,6,7,8","190,226.40452233109775,213.31536654711775,234.68875557824455,218.5238115040208,236.17180385361763,228.24108922342583,226.95433590782883","8,7,6,5,4,3,2,1","NETTLE WEED,NETTLE WEED,NETTLE WEED,NETTLE WEED,NETTLE WEED,NETTLE WEED,NETTLE WEED,NETTLE WEED","180,130,93.03668663002851,99.76842144469774,90.71051889764853,94.12481873480385,97.09088487322879,108.08610343407838","1,7,6,5,4,3,2,1","CORN CROP,WHEAT CROP,WHEAT CROP,WHEAT CROP,WHEAT CROP,WHEAT CROP,WHEAT CROP,WHEAT CROP","0,0,0,0,0,0,0,0","20,20,20,20,20,20,20,20","10,10,10,10,10,10,10,10","20,20,20,20,20,20,20,20","20,20,20,20,20,20,20,20","20,20,20,20,20,20,20,20","0,0,0,0,0,0,0,0","20,20,20,20,20,20,20,20","10,10,10,10,10,10,10,10","20,20,20,20,20,20,20,20","20,20,20,20,20,20,20,20","20,20,20,20,20,20,20,20","1,0,0,0,0,0,0,0","4143,2896,817,473,340,416,776,577","36.404522331097745,-13.089155783980004,21.373389031126795,-16.164944074223744,17.647992349596816,-7.930714630191803,-1.2867533155970077,-7.962605501063827","25.705288379046653,-36.96331336997149,6.731734814669227,-9.057902547049215,3.414299837155327,2.96606613842493,10.995218560849594,14.688243705465014","0","0"
"558","86","text","0","149","1683866","0-0","","","","","","","","","","","","","","","","","","","","","","","","","","","","","","","","","","","","",""
"","","plant-game","0","150","1691244","0-0","","200","120","1","CORN CROP","Left","200","190","1","THISTLE WEED","experimental","62","1","120","1","CORN CROP","190","1","THISTLE WEED","20","20","10","20","0","20","20","20","10","20","0","20","1","4092","7.613957542354828","1.8514274107820605","0","0"
"839","86","text","0","151","1692255","0-0","","","","","","","","","","","","","","","","","","","","","","","","","","","","","","","","","","","","",""
"","","plant-game","0","152","1708705","0-0","","200","160","4","CORN CROP","Right","200","180","4","THISTLE WEED","experimental","63","1,2,3,4","180,167.07746989254892,180.0251507232979,205.9119454921361","4,3,2,1","THISTLE WEED,THISTLE WEED,THISTLE WEED,THISTLE WEED","160,132.42170227595818,125.63005963793813,129.13132306996107","4,3,2,1","CORN CROP,CORN CROP,CORN CROP,CORN CROP","0,0,0,0","20,20,20,20","10,10,10,10","20,20,20,20","20,20,20,20","20,20,20,20","0,0,0,0","20,20,20,20","10,10,10,10","20,20,20,20","20,20,20,20","20,20,20,20","0,0,0,0","10350,913,901,1207","-12.922530107451085,12.947680830749,25.88679476883819,15.796265156931","-27.578297724041803,-6.791642638020056,3.5012634320229448,-6.885313519858546","0","0"
"262","86","text","0","153","1709057","0-0","","","","","","","","","","","","","","","","","","","","","","","","","","","","","","","","","","","","",""
"","","plant-game","0","154","1726299","0-0","","200","160","4","CORN CROP","Left","200","180","8","THISTLE WEED","experimental","64","1,2,3,4,5,6,7,8","160,134.5623862011764,165.5275940720084,160.43962158860023,160,199.9713008128257,181.1621902177919,168.26237786445068","4,3,2,1,4,3,2,1","CORN CROP,CORN CROP,CORN CROP,CORN CROP,WHEAT CROP,WHEAT CROP,WHEAT CROP,WHEAT CROP","180,170.7115058530006,163.87390793835172,194.36569789045345,261.55040960025707,244.42048409014018,242.12100159241197,246.05705829168855","8,7,6,5,4,3,2,1","THISTLE WEED,THISTLE WEED,THISTLE WEED,THISTLE WEED,THISTLE WEED,THISTLE WEED,THISTLE WEED,THISTLE WEED","20,20,20,20,20,20,20,20","20,20,20,20,20,20,20,20","10,10,10,10,10,10,10,10","20,20,20,20,20,20,20,20","0,0,0,0,0,0,0,0","20,20,20,20,20,20,20,20","20,20,20,20,20,20,20,20","20,20,20,20,20,20,20,20","10,10,10,10,10,10,10,10","20,20,20,20,20,20,20,20","0,0,0,0,0,0,0,0","20,20,20,20,20,20,20,20","1,1,0,0,1,1,1,1","3143,581,1490,680,2002,966,938,1213","-25.437613798823612,30.965207870832003,-5.08797248340818,20.955333257790706,39.97130081282568,-18.809110595033797,-12.899812353341225,-0.07490419307155084","-9.288494146999403,-6.837597914648881,30.491789952101726,67.18471170980361,-17.129925510116898,-2.2994824977282153,3.9360566992765667,-14.20513573895635","0","0"
"1649","86","text","0","155","1728118","0-0","","","","","","","","","","","","","","","","","","","","","","","","","","","","","","","","","","","","",""
"","","plant-game","0","156","1741736","0-0","","200","120","8","CORN CROP","Left","200","180","8","NETTLE WEED","experimental","65","1,2,3,4,5,6,7,8","120,115.47332554176397,132.7812457695541,120.506063383513,157.95164491117507,167.07346199047439,161.54288222374473,155.41434130160332","8,7,6,5,4,3,2,1","CORN CROP,CORN CROP,CORN CROP,CORN CROP,CORN CROP,CORN CROP,CORN CROP,CORN CROP","180,191.52469680077206,181.33879743783382,151.74383299646794,200.472773251151,211.8577785976284,194.20888491001827,204.2915268421061","8,7,6,5,4,3,2,1","NETTLE WEED,NETTLE WEED,NETTLE WEED,NETTLE WEED,NETTLE WEED,NETTLE WEED,NETTLE WEED,NETTLE WEED","20,20,20,20,20,20,20,20","20,20,20,20,20,20,20,20","10,10,10,10,10,10,10,10","20,20,20,20,20,20,20,20","0,0,0,0,0,0,0,0","20,20,20,20,20,20,20,20","20,20,20,20,20,20,20,20","20,20,20,20,20,20,20,20","10,10,10,10,10,10,10,10","20,20,20,20,20,20,20,20","0,0,0,0,0,0,0,0","20,20,20,20,20,20,20,20","1,1,1,0,1,1,0,1","3485,655,915,1499,882,885,1146,491","-4.526674458236033,17.30792022779012,-12.275182386041099,37.44558152766208,9.121817079299307,-5.530579766729669,-6.128540922141411,17.202636037588924","11.52469680077207,-10.185899362938233,-29.59496444136588,48.72894025468307,11.3850053464774,-17.64889368761013,10.082641932087833,-42.07465566254733","0","0"
"304","86","text","0","157","1742140","0-0","","","","","","","","","","","","","","","","","","","","","","","","","","","","","","","","","","","","",""
"","","plant-game","0","158","1757853","0-0","","200","160","1","WHEAT CROP","Right","200","160","4","THISTLE WEED","experimental","66","1,2,3,4","160,207.547894789676,225.90220936802865,235.72222226726757","4,3,2,1","THISTLE WEED,THISTLE WEED,THISTLE WEED,THISTLE WEED","160,170,146.907547559487,182.40444275020235","1,3,2,1","WHEAT CROP,CORN CROP,CORN CROP,CORN CROP","0,0,0,0","20,20,20,20","10,10,10,10","20,20,20,20","20,20,20,20","20,20,20,20","0,0,0,0","20,20,20,20","10,10,10,10","20,20,20,20","20,20,20,20","20,20,20,20","1,0,0,0","5088,1545,461,1834","47.54789478967601,18.35431457835265,9.820012899238918,-20.339544796547678","7.7220440526043355,-23.092452440513004,35.49689519071535,12.905503558457362","0","0"
"541","86","text","0","159","1758555","0-0","","","","","","","","","","","","","","","","","","","","","","","","","","","","","","","","","","","","",""
"","","plant-game","0","160","1769710","0-0","","200","160","1","WHEAT CROP","Right","200","190","2","NETTLE WEED","experimental","67","1,2","190,209.4611757080317","2,1","NETTLE WEED,NETTLE WEED","160,190","1,1","WHEAT CROP,CORN CROP","0,0","20,20","10,10","20,20","20,20","20,20","0,0","20,20","10,10","20,20","20,20","20,20","1,0","2467,2604","19.461175708031714,17.056248591545785","68.99757091147906,-10.988336234362297","0","0"
"1562","86","text","0","161","1771382","0-0","","","","","","","","","","","","","","","","","","","","","","","","","","","","","","","","","","","","",""
"","","plant-game","0","162","1788708","0-0","","200","180","8","CORN CROP","Left","200","180","1","NETTLE WEED","experimental","68","1,2,3,4,5,6,7,8","180,199.81931909981904,200.20024134787943,183.68593498975466,252.51550776496674,255.7239445425086,270.86539316432686,296.2638358373699","8,7,6,5,4,3,2,1","CORN CROP,CORN CROP,CORN CROP,CORN CROP,CORN CROP,CORN CROP,CORN CROP,CORN CROP","180,130,126.77832617241238,123.47576805647135,159.4657624330085,163.9751103033325,156.2240903893189,178.9524446798942","1,7,6,5,4,3,2,1","NETTLE WEED,THISTLE WEED,THISTLE WEED,THISTLE WEED,THISTLE WEED,THISTLE WEED,THISTLE WEED,THISTLE WEED","20,20,20,20,20,20,20,20","20,20,20,20,20,20,20,20","10,10,10,10,10,10,10,10","20,20,20,20,20,20,20,20","0,0,0,0,0,0,0,0","20,20,20,20,20,20,20,20","20,20,20,20,20,20,20,20","20,20,20,20,20,20,20,20","10,10,10,10,10,10,10,10","20,20,20,20,20,20,20,20","0,0,0,0,0,0,0,0","20,20,20,20,20,20,20,20","1,1,1,0,1,1,1,1","3454,1868,970,911,734,1516,742,510","19.819319099819054,0.3809222480603785,-16.514306358124767,68.8295727752121,3.2084367775418663,15.14144862181828,25.398442673043036,16.875100251423355","-2.217649311578689,-3.2216738275876255,-3.3025581159410238,35.989994376537155,4.509347870324007,-7.751019914013622,22.728354290575297,-42.106183385158985","0","0"
"150","86","text","0","163","1789008","0-0","","","","","","","","","","","","","","","","","","","","","","","","","","","","","","","","","","","","",""
"","","plant-game","0","164","1802478","0-0","","200","120","4","WHEAT CROP","Right","200","160","2","THISTLE WEED","experimental","69","1,2,3,4","160,170.69641216207714,180,175.54352535000976","2,1,2,1","THISTLE WEED,THISTLE WEED,NETTLE WEED,NETTLE WEED","120,129.96817220005255,110.02115906878151,125.3800776939092","4,3,2,1","WHEAT CROP,WHEAT CROP,WHEAT CROP,WHEAT CROP","0,0,0,0","20,20,20,20","10,10,10,10","20,20,20,20","20,20,20,20","20,20,20,20","0,0,0,0","20,20,20,20","10,10,10,10","20,20,20,20","20,20,20,20","20,20,20,20","0,0,0,1","4295,750,1576,1252","10.696412162077124,-35.47946728516624,-4.456474649990229,14.03482405701839","9.968172200052546,-19.947013131271035,15.358918625127684,4.853375753979121","0","0"
"515","86","text","0","165","1803149","0-0","","","","","","","","","","","","","","","","","","","","","","","","","","","","","","","","","","","","",""
"","","plant-game","0","166","1819883","0-0","","200","160","4","CORN CROP","Left","200","180","2","THISTLE WEED","experimental","70","1,2,3,4","160,149.4712203154015,135.05354204710943,138.4535184108544","4,3,2,1","CORN CROP,CORN CROP,CORN CROP,CORN CROP","180,173.26211417965445,180,215.46850856608552","2,1,2,1","THISTLE WEED,THISTLE WEED,NETTLE WEED,NETTLE WEED","20,20,20,20","20,20,20,20","10,10,10,10","20,20,20,20","0,0,0,0","20,20,20,20","20,20,20,20","20,20,20,20","10,10,10,10","20,20,20,20","0,0,0,0","20,20,20,20","1,1,1,0","5533,1105,3932,1558","-10.528779684598517,-14.417678268292063,3.399976363744968,-24.018077492135284","-6.737885820345541,-25.698758302216746,35.46850856608553,38.31201534025076","0","0"
"179","86","text","0","167","1820193","0-0","","","","","","","","","","","","","","","","","","","","","","","","","","","","","","","","","","","","",""
"","","plant-game","0","168","1837594","0-0","","200","160","8","WHEAT CROP","Left","200","160","4","THISTLE WEED","experimental","71","1,2,3,4,5,6,7,8","160,194.18956256863152,212.11778564829416,236.5412484860659,259.40757963346755,292.05099283095,256.97206322247615,247.715794647388","8,7,6,5,4,3,2,1","WHEAT CROP,WHEAT CROP,WHEAT CROP,WHEAT CROP,WHEAT CROP,WHEAT CROP,WHEAT CROP,WHEAT CROP","160,160.95980992145144,168.21308490151065,180.5762881723097,160,165.50161306090433,157.07283221718274,123.51106048714244","4,3,2,1,4,3,2,1","THISTLE WEED,THISTLE WEED,THISTLE WEED,THISTLE WEED,NETTLE WEED,NETTLE WEED,NETTLE WEED,NETTLE WEED","20,20,20,20,20,20,20,20","20,20,20,20,20,20,20,20","10,10,10,10,10,10,10,10","20,20,20,20,20,20,20,20","0,0,0,0,0,0,0,0","20,20,20,20,20,20,20,20","20,20,20,20,20,20,20,20","20,20,20,20,20,20,20,20","10,10,10,10,10,10,10,10","20,20,20,20,20,20,20,20","0,0,0,0,0,0,0,0","20,20,20,20,20,20,20,20","1,1,1,1,1,1,1,1","4183,1025,675,1092,2215,1045,577,567","34.189562568631516,17.928223079662637,24.42346283777175,22.866331147401617,32.64341319748247,-35.078929608473864,-9.25626857508814,14.54845554131521","0.9598099214514288,7.2532749800592065,12.36320327079903,-12.494208764948063,5.501613060904333,-8.428780843721583,-33.56177173004029,-8.751616313682085","0","0"
"534","86","text","0","169","1838288","0-0","","","","","","","","","","","","","","","","","","","","","","","","","","","","","","","","","","","","",""
"","","plant-game","0","170","1853827","0-0","","200","160","4","WHEAT CROP","Right","200","190","4","NETTLE WEED","experimental","72","1,2,3,4","190,203.2378012613741,229.79682096406464,218.234029193433","4,3,2,1","NETTLE WEED,NETTLE WEED,NETTLE WEED,NETTLE WEED","160,151.00400959710583,141.96893059641607,129.71013484479806","4,3,2,1","WHEAT CROP,WHEAT CROP,WHEAT CROP,WHEAT CROP","0,0,0,0","20,20,20,20","10,10,10,10","20,20,20,20","20,20,20,20","20,20,20,20","0,0,0,0","20,20,20,20","10,10,10,10","20,20,20,20","20,20,20,20","20,20,20,20","0,0,1,1","8958,1213,961,931","13.237801261374095,26.559019702690524,-11.56279177063162,21.794289702938755","-8.995990402894176,-9.035079000689752,-12.258795751618024,-19.822270904858186","0","0"
"145","86","text","0","171","1854122","0-0","","","","","","","","","","","","","","","","","","","","","","","","","","","","","","","","","","","","",""
"","","plant-game","0","172","1868060","0-0","","200","120","2","CORN CROP","Left","200","160","4","THISTLE WEED","experimental","73","1,2,3,4","120,131.03371868036524,180,172.00249758341326","2,1,2,1","CORN CROP,CORN CROP,WHEAT CROP,WHEAT CROP","160,180.0353653083394,184.59675309683564,205.59980829911018","4,3,2,1","THISTLE WEED,THISTLE WEED,THISTLE WEED,THISTLE WEED","20,20,20,20","20,20,20,20","10,10,10,10","20,20,20,20","0,0,0,0","20,20,20,20","20,20,20,20","20,20,20,20","10,10,10,10","20,20,20,20","0,0,0,0","20,20,20,20","0,0,1,0","3055,1237,3443,527","11.033718680365238,34.92950044728745,-7.997502416586738,26.559667299441287","20.035365308339408,4.561387788496225,21.00305520227453,71.97059745059846","0","0"
"1245","86","text","0","173","1869475","0-0","","","","","","","","","","","","","","","","","","","","","","","","","","","","","","","","","","","","",""
"","","plant-game","0","174","1881817","0-0","","200","190","1","WHEAT CROP","Left","200","190","2","THISTLE WEED","experimental","74","1,2","190,190","1,1","WHEAT CROP,CORN CROP","190,186.5649851870674","2,1","THISTLE WEED,THISTLE WEED","20,20","20,20","10,10","20,20","0,0","20,20","20,20","20,20","10,10","20,20","0,0","20,20","1,1","2720,3016","17.60516195505608,3.759901033353654","-3.4350148129325815,17.629517239526717","0","0"
"1432","86","text","0","175","1883385","0-0","","","","","","","","","","","","","","","","","","","","","","","","","","","","","","","","","","","","",""
"","","plant-game","0","176","1901347","0-0","","200","180","4","WHEAT CROP","Right","200","190","2","THISTLE WEED","experimental","75","1,2,3,4","190,178.71053350626917,180,184.20962279079276","2,1,2,1","THISTLE WEED,THISTLE WEED,NETTLE WEED,NETTLE WEED","180,154.16823573045104,133.52755000141542,159.72567773770467","4,3,2,1","WHEAT CROP,WHEAT CROP,WHEAT CROP,WHEAT CROP","0,0,0,0","20,20,20,20","10,10,10,10","20,20,20,20","20,20,20,20","20,20,20,20","0,0,0,0","20,20,20,20","10,10,10,10","20,20,20,20","20,20,20,20","20,20,20,20","0,0,0,0","5509,3685,2332,929","-11.289466493730822,4.837034210829867,4.209622790792754,24.439315961952467","-25.83176426954897,-20.640685729035635,26.19812773628926,-21.275301595252355","0","0"
"490","86","text","0","177","1901997","0-0","","","","","","","","","","","","","","","","","","","","","","","","","","","","","","","","","","","","",""
"","","plant-game","0","178","1920555","0-0","","200","120","4","WHEAT CROP","Right","200","120","1","THISTLE WEED","experimental","76","1,2,3,4","120,170,189.49692141699703,194.06031707621113","1,3,2,1","THISTLE WEED,NETTLE WEED,NETTLE WEED,NETTLE WEED","120,155.92360258891904,146.82355807941994,163.51732329591118","4,3,2,1","WHEAT CROP,WHEAT CROP,WHEAT CROP,WHEAT CROP","0,0,0,0","20,20,20,20","10,10,10,10","20,20,20,20","20,20,20,20","20,20,20,20","0,0,0,0","20,20,20,20","10,10,10,10","20,20,20,20","20,20,20,20","20,20,20,20","1,0,1,1","6825,2265,2137,1653","76.77934048450678,19.49692141699703,4.5633956592141,49.12906384065148","35.92360258891905,-9.100044509499106,16.693765216491254,70.59183499958634","0","0"
"509","86","text","0","179","1921224","0-0","","","","","","","","","","","","","","","","","","","","","","","","","","","","","","","","","","","","",""
"","","plant-game","0","180","1944734","0-0","","200","180","8","CORN CROP","Left","200","120","2","NETTLE WEED","experimental","77","1,2,3,4,5,6,7,8","180,144.96212098055577,138.16809148721902,147.90023213696745,145.0750554334389,139.53829561491528,134.01225226865878,135.90791610158257","8,7,6,5,4,3,2,1","CORN CROP,CORN CROP,CORN CROP,CORN CROP,CORN CROP,CORN CROP,CORN CROP,CORN CROP","120,111.3168894850019,140,181.124294200486,215.44889532036547,212.08911697509825,209.8750586871429,192.87072395179538","2,1,6,5,4,3,2,1","NETTLE WEED,NETTLE WEED,THISTLE WEED,THISTLE WEED,THISTLE WEED,THISTLE WEED,THISTLE WEED,THISTLE WEED","20,20,20,20,20,20,20,20","20,20,20,20,20,20,20,20","10,10,10,10,10,10,10,10","20,20,20,20,20,20,20,20","0,0,0,0,0,0,0,0","20,20,20,20,20,20,20,20","20,20,20,20,20,20,20,20","20,20,20,20,20,20,20,20","10,10,10,10,10,10,10,10","20,20,20,20,20,20,20,20","0,0,0,0,0,0,0,0","20,20,20,20,20,20,20,20","1,0,0,1,1,1,1,0","8119,1728,2890,966,1198,986,937,906","-35.03787901944423,-6.794029493336744,9.732140649748418,-2.825176703528534,-5.536759818523623,-5.526043346256499,1.8956638329238005,10.208529622278768","-8.683110514998104,23.737657648746538,41.12429420048599,34.32460111987949,-3.359778345267219,-2.2140582879553525,-17.00433473534753,40.7740969915941","0","0"
"426","86","text","0","181","1945280","0-0","","","","","","","","","","","","","","","","","","","","","","","","","","","","","","","","","","","","",""
"","","plant-game","0","182","1957577","0-0","","200","180","4","WHEAT CROP","Right","200","190","4","NETTLE WEED","experimental","78","1,2,3,4","190,195.50830493899275,197.0574935779612,196.97603056999225","4,3,2,1","NETTLE WEED,NETTLE WEED,NETTLE WEED,NETTLE WEED","180,188.5547574431661,183.61693465216896,168.19541437449791","4,3,2,1","WHEAT CROP,WHEAT CROP,WHEAT CROP,WHEAT CROP","0,0,0,0","20,20,20,20","10,10,10,10","20,20,20,20","20,20,20,20","20,20,20,20","0,0,0,0","20,20,20,20","10,10,10,10","20,20,20,20","20,20,20,20","20,20,20,20","0,0,0,0","6172,750,561,735","5.5083049389927465,1.549188638968439,-0.08146300796895259,-3.619349674019918","8.55475744316609,-4.9378227909971315,-15.421520277671037,15.044066462525578","0","0"
"477","86","text","0","183","1958194","0-0","","","","","","","","","","","","","","","","","","","","","","","","","","","","","","","","","","","","",""
"","","plant-game","0","184","1972865","0-0","","200","180","4","WHEAT CROP","Right","200","180","2","NETTLE WEED","experimental","79","1,2,3,4","180,166.8446075738188,180,191.88416861254285","2,1,2,1","NETTLE WEED,NETTLE WEED,THISTLE WEED,THISTLE WEED","180,177.39904831263038,158.63212493689295,193.17456717812894","4,3,2,1","WHEAT CROP,WHEAT CROP,WHEAT CROP,WHEAT CROP","0,0,0,0","20,20,20,20","10,10,10,10","20,20,20,20","20,20,20,20","20,20,20,20","0,0,0,0","20,20,20,20","10,10,10,10","20,20,20,20","20,20,20,20","20,20,20,20","0,0,1,0","6736,820,1758,1030","-13.155392426181201,6.497488227603024,11.884168612542858,-22.28127728330696","-2.6009516873696183,-18.76692337573743,34.54244224123599,-12.755573859738503","0","0"
"264","86","text","0","185","1973207","0-0","","","","","","","","","","","","","","","","","","","","","","","","","","","","","","","","","","","","",""
"","","plant-game","0","186","1979984","0-0","","200","120","1","CORN CROP","Right","200","120","1","NETTLE WEED","experimental","80","1","120","1","NETTLE WEED","120","1","CORN CROP","0","20","10","20","20","20","0","20","10","20","20","20","1","3840","-28.57114267383008","13.119292028084294","0","0"
"943","86","text","0","187","1981067","0-0","","","","","","","","","","","","","","","","","","","","","","","","","","","","","","","","","","","","",""
"","","plant-game","0","188","1992526","0-0","","200","180","4","WHEAT CROP","Left","200","180","4","NETTLE WEED","experimental","81","1,2,3,4","180,145.75216170513139,142.89455359970884,173.77344284085012","4,3,2,1","WHEAT CROP,WHEAT CROP,WHEAT CROP,WHEAT CROP","180,170.59517102778935,141.75987207273164,148.99666106989605","4,3,2,1","NETTLE WEED,NETTLE WEED,NETTLE WEED,NETTLE WEED","20,20,20,20","20,20,20,20","10,10,10,10","20,20,20,20","0,0,0,0","20,20,20,20","20,20,20,20","20,20,20,20","10,10,10,10","20,20,20,20","0,0,0,0","20,20,20,20","1,1,0,0","5450,592,1161,1038","-34.247838294868615,-2.8576081054225466,30.878889241141277,28.19003598695101","-9.404828972210641,-28.835298955057695,7.236788997164398,-28.13602795469003","0","0"
"479","86","text","0","189","1993165","0-0","","","","","","","","","","","","","","","","","","","","","","","","","","","","","","","","","","","","",""
"","","plant-game","0","190","2011120","0-0","","200","120","4","CORN CROP","Left","200","120","8","NETTLE WEED","experimental","82","1,2,3,4,5,6,7,8","120,183.35617767909685,208.98879892880942,220.80782759502645,160,144.35453722530016,162.92594156276752,146.10164594455193","4,3,2,1,4,3,2,1","CORN CROP,CORN CROP,CORN CROP,CORN CROP,WHEAT CROP,WHEAT CROP,WHEAT CROP,WHEAT CROP","120,139.43625043828777,117.18473155047542,128.28030356109042,166.13948885606317,166.83284816483533,161.2716516461798,159.58457235025384","8,7,6,5,4,3,2,1","NETTLE WEED,NETTLE WEED,NETTLE WEED,NETTLE WEED,NETTLE WEED,NETTLE WEED,NETTLE WEED,NETTLE WEED","20,20,20,20,20,20,20,20","20,20,20,20,20,20,20,20","10,10,10,10,10,10,10,10","20,20,20,20,20,20,20,20","0,0,0,0,0,0,0,0","20,20,20,20,20,20,20,20","20,20,20,20,20,20,20,20","20,20,20,20,20,20,20,20","10,10,10,10,10,10,10,10","20,20,20,20,20,20,20,20","0,0,0,0,0,0,0,0","20,20,20,20,20,20,20,20","0,0,0,0,0,1,1,0","3332,902,1353,575,4479,950,1002,554","63.356177679096845,25.63262124971258,11.819028666217031,-9.335109743645923,-15.64546277469983,18.57140433746736,-16.824295618215576,32.413917438100064","19.436250438287768,-22.251518887812345,11.095572010615003,37.85918529497273,0.6933593087721555,-5.56119651865552,-1.687079295925972,-1.5491524824335698","0","0"
"100","86","text","0","191","2011320","0-0","","","","","","","","","","","","","","","","","","","","","","","","","","","","","","","","","","","","",""
"","","plant-game","0","192","2018564","0-0","","200","180","2","WHEAT CROP","Right","200","160","2","NETTLE WEED","experimental","83","1,2","160,192.4740551719686","2,1","NETTLE WEED,NETTLE WEED","180,201.8816282236179","2,1","WHEAT CROP,WHEAT CROP","0,0","20,20","10,10","20,20","20,20","20,20","0,0","20,20","10,10","20,20","20,20","20,20","1,0","3566,1119","32.47405517196858,25.07039114934293","21.88162822361788,-30.096795925389337","0","0"
"74","86","text","0","193","2018758","0-0","","","","","","","","","","","","","","","","","","","","","","","","","","","","","","","","","","","","",""
"","","plant-game","0","194","2033224","0-0","","200","160","1","CORN CROP","Right","200","190","8","NETTLE WEED","experimental","84","1,2,3,4,5,6,7,8","190,221.8134789959876,186.1168897261282,167.33333423927903,159.15192824790574,189.4575225054029,213.89040535327837,207.64427730513668","8,7,6,5,4,3,2,1","NETTLE WEED,NETTLE WEED,NETTLE WEED,NETTLE WEED,NETTLE WEED,NETTLE WEED,NETTLE WEED,NETTLE WEED","160,130,84.6092489909687,59.904261433524205,77.4146842769683,113.52005151123541,103.22942815632331,77.10567440921292","1,7,6,5,4,3,2,1","CORN CROP,WHEAT CROP,WHEAT CROP,WHEAT CROP,WHEAT CROP,WHEAT CROP,WHEAT CROP,WHEAT CROP","0,0,0,0,0,0,0,0","20,20,20,20,20,20,20,20","10,10,10,10,10,10,10,10","20,20,20,20,20,20,20,20","20,20,20,20,20,20,20,20","20,20,20,20,20,20,20,20","0,0,0,0,0,0,0,0","20,20,20,20,20,20,20,20","10,10,10,10,10,10,10,10","20,20,20,20,20,20,20,20","20,20,20,20,20,20,20,20","20,20,20,20,20,20,20,20","1,0,0,1,1,1,0,1","2443,2777,403,904,532,766,657,599","31.813478995987584,-35.696589269859416,-18.783555486849167,-8.181405991373268,30.305594257497134,24.432882847875476,-6.2461280481416805,24.57827447285731","7.139073071204145,-45.390751009031305,-24.70498755744449,17.510422843444093,36.105367234267106,-10.290623354912107,-26.123753747110392,14.00595951057853","0","0"
"100","86","text","0","195","2033464","0-0","","","","","","","","","","","","","","","","","","","","","","","","","","","","","","","","","","","","",""
"","","plant-game","0","196","2057911","0-0","","200","160","1","WHEAT CROP","Right","200","180","8","THISTLE WEED","experimental","85","1,2,3,4,5,6,7,8","180,211.97200808794997,192.90187427042974,173.66446603397324,210.9083716279254,200.86707190804543,166.1763905678172,157.99352301235058","8,7,6,5,4,3,2,1","THISTLE WEED,THISTLE WEED,THISTLE WEED,THISTLE WEED,THISTLE WEED,THISTLE WEED,THISTLE WEED,THISTLE WEED","160,130,139.69453818886367,139.1730646177075,158.30621621788106,135.7867357125439,133.12735706544686,154.6588746019279","1,7,6,5,4,3,2,1","WHEAT CROP,CORN CROP,CORN CROP,CORN CROP,CORN CROP,CORN CROP,CORN CROP,CORN CROP","0,0,0,0,0,0,0,0","20,20,20,20,20,20,20,20","10,10,10,10,10,10,10,10","20,20,20,20,20,20,20,20","20,20,20,20,20,20,20,20","20,20,20,20,20,20,20,20","0,0,0,0,0,0,0,0","20,20,20,20,20,20,20,20","10,10,10,10,10,10,10,10","20,20,20,20,20,20,20,20","20,20,20,20,20,20,20,20","20,20,20,20,20,20,20,20","1,0,0,1,0,0,1,1","2558,9814,1232,845,542,490,663,1122","31.97200808794998,-19.070133817520222,-19.237408236456513,37.24390559395215,-10.041299719879946,-34.690681340228224,-8.182867555466615,11.20120968203807","42.887041492685604,9.694538188863662,-0.5214735711561838,19.133151600173555,-22.519480505337167,-2.6593786470970535,21.531517536481047,14.705932432640505","0","0"
"388","86","text","0","197","2058459","0-0","","","","","","","","","","","","","","","","","","","","","","","","","","","","","","","","","","","","",""
"","","plant-game","0","198","2071330","0-0","","200","120","1","WHEAT CROP","Left","200","120","2","NETTLE WEED","experimental","86","1,2","120,190","1,1","WHEAT CROP,CORN CROP","120,148.5077395787483","2,1","NETTLE WEED,NETTLE WEED","20,20","20,20","10,10","20,20","0,0","20,20","20,20","20,20","10,10","20,20","0,0","20,20","0,0","3922,4290","23.349136786793515,34.45091683215272","28.507739578748293,32.79094366479876","0","0"
"4475","86","text","0","199","2075985","0-0","","","","","","","","","","","","","","","","","","","","","","","","","","","","","","","","","","","","",""
"","","plant-game","0","200","2082458","0-0","","200","160","1","WHEAT CROP","Left","200","190","1","THISTLE WEED","experimental","87","1","160","1","WHEAT CROP","190","1","THISTLE WEED","20","20","10","20","0","20","20","20","10","20","0","20","1","3928","9.579933101537646","-5.123425075813554","0","0"
"678","86","text","0","201","2083326","0-0","","","","","","","","","","","","","","","","","","","","","","","","","","","","","","","","","","","","",""
"","","plant-game","0","202","2101826","0-0","","200","160","8","WHEAT CROP","Right","200","160","2","NETTLE WEED","experimental","88","1,2,3,4,5,6,7,8","160,195.16946726035238,140,168.84084995017156,196.49051000991832,184.6797386587858,198.0276455048044,219.60951990532686","2,1,6,5,4,3,2,1","NETTLE WEED,NETTLE WEED,THISTLE WEED,THISTLE WEED,THISTLE WEED,THISTLE WEED,THISTLE WEED,THISTLE WEED","160,198.9056355639719,227.8241435608579,188.82232703509993,197.16321465838413,198.97689107574038,220.36114641420411,238.53031947468122","8,7,6,5,4,3,2,1","WHEAT CROP,WHEAT CROP,WHEAT CROP,WHEAT CROP,WHEAT CROP,WHEAT CROP,WHEAT CROP,WHEAT CROP","0,0,0,0,0,0,0,0","20,20,20,20,20,20,20,20","10,10,10,10,10,10,10,10","20,20,20,20,20,20,20,20","20,20,20,20,20,20,20,20","20,20,20,20,20,20,20,20","0,0,0,0,0,0,0,0","20,20,20,20,20,20,20,20","10,10,10,10,10,10,10,10","20,20,20,20,20,20,20,20","20,20,20,20,20,20,20,20","20,20,20,20,20,20,20,20","1,0,1,1,0,0,0,0","2458,2699,2883,807,858,874,1433,1111","35.169467260352384,16.85429811489212,28.84084995017156,27.649660059746772,-11.810771351132521,13.347906846018605,21.581874400522437,13.648593141367133","38.90563556397191,28.918507996885985,-39.00181652575796,8.340887623284202,1.813676417356235,21.384255338463728,18.16917306047711,-12.231271198214479","0","0"
"516","86","text","0","203","2102482","0-0","","","","","","","","","","","","","","","","","","","","","","","","","","","","","","","","","","","","",""
