"rt","key_press","trial_type","trial_index","trial_index_global","time_elapsed","internal_chunk_id","responses","experimental_goal_height","experimental_start_height","experimental_weeks_total","experimental_crop_type","experimental_crop_side","fixed_goal_height","fixed_start_height","fixed_weeks_total","fixed_crop_type","trial_kind","trial_number","stage","left_current_height","left_weeks_remaining","left_crop_type","right_current_height","right_weeks_remaining","right_crop_type","mean_left_growth_given_left","sd_left_growth_given_left","mean_left_growth_given_middle","sd_left_growth_given_middle","mean_left_growth_given_right","sd_left_growth_given_right","mean_right_growth_given_left","sd_right_growth_given_left","mean_right_growth_given_middle","sd_right_growth_given_middle","mean_right_growth_given_right","sd_right_growth_given_right","response","response_time","left_growth","right_growth","other_key_pressed","mouse_clicked"
"3069415","77","text","0","0","3069573","0-0","","","","","","","","","","","","","","","","","","","","","","","","","","","","","","","","","","","","",""
"4640","","survey-text","0","1","3075222","0-0","{""Q0"":""20""}","","","","","","","","","","","","","","","","","","","","","","","","","","","","","","","","","","","",""
"5658","86","text","0","2","5720","0-0","","","","","","","","","","","","","","","","","","","","","","","","","","","","","","","","","","","","",""
"","","plant-game","0","3","73624","0-0","","200","120","8","WHEAT CROP","Left","200","120","8","THISTLE WEED","practice","1","1,2,3,4,5,6,7,8","120,125.84555276270612,144.35583277436453,205.05015676689823,229.06745618630967,248.53941395044126,258.65110692722857,281.7015795331042","8,7,6,5,4,3,2,1","WHEAT CROP,WHEAT CROP,WHEAT CROP,WHEAT CROP,WHEAT CROP,WHEAT CROP,WHEAT CROP,WHEAT CROP","120,122.45357983471075,164.88991887778235,200.5186132731607,207.37816345874643,176.14542880731963,149.1623327058345,182.18129150685968","8,7,6,5,4,3,2,1","THISTLE WEED,THISTLE WEED,THISTLE WEED,THISTLE WEED,THISTLE WEED,THISTLE WEED,THISTLE WEED,THISTLE WEED","20,20,20,20,20,20,20,20","20,20,20,20,20,20,20,20","10,10,10,10,10,10,10,10","20,20,20,20,20,20,20,20","0,0,0,0,0,0,0,0","20,20,20,20,20,20,20,20","20,20,20,20,20,20,20,20","20,20,20,20,20,20,20,20","10,10,10,10,10,10,10,10","20,20,20,20,20,20,20,20","0,0,0,0,0,0,0,0","20,20,20,20,20,20,20,20","0,0,0,1,1,1,0,0","7242,5043,5369,2997,2077,4339,2186,1630","5.845552762706115,18.510280011658416,60.69432399253369,24.017299419411447,19.471957764131577,10.111692976787287,23.05047260587568,-3.415806885855549","2.4535798347107445,42.4363390430716,35.628694395378346,6.85955018558573,-31.232734651426803,-26.98309610148514,33.018958801025164,22.75067869782228","0","1"
"1454","86","text","0","4","75228","0-0","","","","","","","","","","","","","","","","","","","","","","","","","","","","","","","","","","","","",""
"","","plant-game","0","5","98605","0-0","","200","160","4","CORN CROP","Right","200","160","4","THISTLE WEED","practice","2","1,2,3,4","160,185.36374958547268,193.72931033932824,187.98136254164993","4,3,2,1","THISTLE WEED,THISTLE WEED,THISTLE WEED,THISTLE WEED","160,171.35665729860764,147.86953229540669,169.53850623687435","4,3,2,1","CORN CROP,CORN CROP,CORN CROP,CORN CROP","0,0,0,0","20,20,20,20","10,10,10,10","20,20,20,20","20,20,20,20","20,20,20,20","0,0,0,0","20,20,20,20","10,10,10,10","20,20,20,20","20,20,20,20","20,20,20,20","1,1,1,1","2999,1188,2061,2172","25.363749585472675,8.365560753855556,-5.747947797678307,7.40054701255638","11.356657298607635,-23.48712500320096,21.668973941467662,34.83371309521881","0","0"
"561","86","text","0","6","99306","0-0","","","","","","","","","","","","","","","","","","","","","","","","","","","","","","","","","","","","",""
"","","plant-game","0","7","121915","0-0","","200","180","2","WHEAT CROP","Right","200","180","2","THISTLE WEED","practice","3","1,2","180,199.4720843906852","2,1","THISTLE WEED,THISTLE WEED","180,197.5645465393352","2,1","WHEAT CROP,WHEAT CROP","0,0","20,20","10,10","20,20","20,20","20,20","0,0","20,20","10,10","20,20","20,20","20,20","1,0","6988,1978","19.472084390685197,-26.68396112179313","17.564546539335193,-18.636444534160972","0","0"
"509","86","text","0","8","122595","0-0","","","","","","","","","","","","","","","","","","","","","","","","","","","","","","","","","","","","",""
"","","plant-game","0","9","142228","0-0","","200","190","1","CORN CROP","Right","200","190","1","NETTLE WEED","practice","4","1","190","1","NETTLE WEED","190","1","CORN CROP","0","20","10","20","20","20","0","20","10","20","20","20","0","9987","14.637768317598221","0.03594268222435213","0","0"
"780","86","text","0","10","143151","0-0","","","","","","","","","","","","","","","","","","","","","","","","","","","","","","","","","","","","",""
"","","plant-game","0","11","163639","0-0","","200","120","8","CORN CROP","Right","200","160","8","THISTLE WEED","practice","5","1,2,3,4,5,6,7,8","160,176.9977829580348,165.8037775797284,182.98783655721417,187.60893588671405,177.23365066674182,160.4805225320423,149.37850480747394","8,7,6,5,4,3,2,1","THISTLE WEED,THISTLE WEED,THISTLE WEED,THISTLE WEED,THISTLE WEED,THISTLE WEED,THISTLE WEED,THISTLE WEED","120,151.5665360690715,174.16483735777823,208.82408300582455,221.68555187208364,262.4928337922262,237.58729377318116,254.75290163650303","8,7,6,5,4,3,2,1","CORN CROP,CORN CROP,CORN CROP,CORN CROP,CORN CROP,CORN CROP,CORN CROP,CORN CROP","0,0,0,0,0,0,0,0","20,20,20,20,20,20,20,20","10,10,10,10,10,10,10,10","20,20,20,20,20,20,20,20","20,20,20,20,20,20,20,20","20,20,20,20,20,20,20,20","0,0,0,0,0,0,0,0","20,20,20,20,20,20,20,20","10,10,10,10,10,10,10,10","20,20,20,20,20,20,20,20","20,20,20,20,20,20,20,20","20,20,20,20,20,20,20,20","1,1,1,0,0,0,0,0","3754,995,1047,1663,1752,1128,1291,1299","16.997782958034804,-11.19400537830639,17.184058977485765,4.62109932949989,-10.375285219972234,-16.75312813469951,-11.102017724568343,42.82922547517628","31.56653606907151,22.598301288706715,34.65924564804632,12.861468866259095,40.80728192014252,-24.90554001904502,17.165607863321874,-2.5945876193794626","0","0"
"100","86","text","0","12","163859","0-0","","","","","","","","","","","","","","","","","","","","","","","","","","","","","","","","","","","","",""
"","","plant-game","0","13","178856","0-0","","200","180","4","WHEAT CROP","Left","200","160","4","THISTLE WEED","practice","6","1,2,3,4","180,182.52495208866887,190.7998249285095,200.43763099923888","4,3,2,1","WHEAT CROP,WHEAT CROP,WHEAT CROP,WHEAT CROP","160,148.0602909156743,152.14162881905867,120.9843773602032","4,3,2,1","THISTLE WEED,THISTLE WEED,THISTLE WEED,THISTLE WEED","20,20,20,20","20,20,20,20","10,10,10,10","20,20,20,20","0,0,0,0","20,20,20,20","20,20,20,20","20,20,20,20","10,10,10,10","20,20,20,20","0,0,0,0","20,20,20,20","1,1,1,1","2943,1228,869,1702","2.5249520886688774,8.274872839840643,9.637806070729363,-18.468282048218995","-11.9397090843257,4.0813379033843695,-31.157251458855466,15.623451979037014","0","0"
"810","86","text","0","14","179786","0-0","","","","","","","","","","","","","","","","","","","","","","","","","","","","","","","","","","","","",""
"","","plant-game","0","15","195166","0-0","","200","180","2","WHEAT CROP","Right","200","190","2","THISTLE WEED","practice","7","1,2","190,218.5196960170245","2,1","THISTLE WEED,THISTLE WEED","180,153.91165053156664","2,1","WHEAT CROP,WHEAT CROP","0,0","20,20","10,10","20,20","20,20","20,20","0,0","20,20","10,10","20,20","20,20","20,20","0,0","3690,2803","28.519696017024486,-19.18796845873761","-26.08834946843338,-8.544366557792053","0","0"
"863","86","text","0","16","196209","0-0","","","","","","","","","","","","","","","","","","","","","","","","","","","","","","","","","","","","",""
"","","plant-game","0","17","231430","0-0","","200","120","4","WHEAT CROP","Right","200","120","8","THISTLE WEED","practice","8","1,2,3,4,5,6,7,8","120,164.62157022507637,181.21838222302353,238.07110069462163,262.6309077454281,247.67977693591806,258.0529965956449,250.80871406259496","8,7,6,5,4,3,2,1","THISTLE WEED,THISTLE WEED,THISTLE WEED,THISTLE WEED,THISTLE WEED,THISTLE WEED,THISTLE WEED,THISTLE WEED","120,154.71350363731858,170.88052857021336,223.54908444194177,160,138.2773160311847,109.21092899730988,141.86405688103713","4,3,2,1,4,3,2,1","WHEAT CROP,WHEAT CROP,WHEAT CROP,WHEAT CROP,CORN CROP,CORN CROP,CORN CROP,CORN CROP","0,0,0,0,0,0,0,0","20,20,20,20,20,20,20,20","10,10,10,10,10,10,10,10","20,20,20,20,20,20,20,20","20,20,20,20,20,20,20,20","20,20,20,20,20,20,20,20","0,0,0,0,0,0,0,0","20,20,20,20,20,20,20,20","10,10,10,10,10,10,10,10","20,20,20,20,20,20,20,20","20,20,20,20,20,20,20,20","20,20,20,20,20,20,20,20","1,1,1,0,0,0,0,0","1821,1134,616,1886,1080,1248,2209,988","44.62157022507637,16.59681199794716,56.852718471598095,24.55980705080644,-14.951130809510037,10.37321965972686,-7.244282533049967,12.290859555362275","34.71350363731859,16.167024932894787,52.66855587172841,-0.761955110263629,-21.722683968815296,-29.06638703387483,32.65312788372724,-12.029788392224049","0","0"
"413","86","text","0","18","231983","0-0","","","","","","","","","","","","","","","","","","","","","","","","","","","","","","","","","","","","",""
"","","plant-game","0","19","257074","0-0","","200","160","4","WHEAT CROP","Right","200","160","2","NETTLE WEED","practice","9","1,2,3,4","160,175.14353970609667,180,195.8208584506451","2,1,2,1","NETTLE WEED,NETTLE WEED,THISTLE WEED,THISTLE WEED","160,186.10067215537245,209.60384658154527,204.7666999375015","4,3,2,1","WHEAT CROP,WHEAT CROP,WHEAT CROP,WHEAT CROP","0,0,0,0","20,20,20,20","10,10,10,10","20,20,20,20","20,20,20,20","20,20,20,20","0,0,0,0","20,20,20,20","10,10,10,10","20,20,20,20","20,20,20,20","20,20,20,20","1,1,0,0","1834,974,1735,1953","15.143539706096675,22.6128388995891,15.820858450645083,10.7259767849667","26.10067215537246,23.50317442617283,-4.837146644043761,-7.648798409351635","0","0"
"88","86","text","0","20","257239","0-0","","","","","","","","","","","","","","","","","","","","","","","","","","","","","","","","","","","","",""
"","","plant-game","0","21","281326","0-0","","200","180","2","CORN CROP","Right","200","180","1","THISTLE WEED","practice","10","1,2","180,190","1,1","THISTLE WEED,NETTLE WEED","180,169.8159112550188","2,1","CORN CROP,CORN CROP","0,0","20,20","10,10","20,20","20,20","20,20","0,0","20,20","10,10","20,20","20,20","20,20","1,0","968,3563","6.550940659228591,19.733773739627246","-10.184088744981217,-23.19559643362173","0","0"
"717","86","text","0","22","282193","0-0","","","","","","","","","","","","","","","","","","","","","","","","","","","","","","","","","","","","",""
"","","plant-game","0","23","307670","0-0","","200","120","8","WHEAT CROP","Right","200","160","4","THISTLE WEED","practice","11","1,2,3,4,5,6,7,8","160,180.53688356767645,165.14298651053514,231.24625240496738,160,195.94634741511047,233.44149672204313,206.81735639034986","4,3,2,1,4,3,2,1","THISTLE WEED,THISTLE WEED,THISTLE WEED,THISTLE WEED,NETTLE WEED,NETTLE WEED,NETTLE WEED,NETTLE WEED","120,148.17258522116876,145.95425610768012,159.3954638852639,145.8457743721686,148.76202145434996,158.61536238698278,140.1599052627213","8,7,6,5,4,3,2,1","WHEAT CROP,WHEAT CROP,WHEAT CROP,WHEAT CROP,WHEAT CROP,WHEAT CROP,WHEAT CROP,WHEAT CROP","0,0,0,0,0,0,0,0","20,20,20,20,20,20,20,20","10,10,10,10,10,10,10,10","20,20,20,20,20,20,20,20","20,20,20,20,20,20,20,20","20,20,20,20,20,20,20,20","0,0,0,0,0,0,0,0","20,20,20,20,20,20,20,20","10,10,10,10,10,10,10,10","20,20,20,20,20,20,20,20","20,20,20,20,20,20,20,20","20,20,20,20,20,20,20,20","1,0,1,0,1,0,0,0","2621,1343,1981,951,1839,1902,1472,741","20.536883567676455,-15.39389705714131,66.10326589443223,-7.578355624445693,35.94634741511047,37.49514930693267,-26.624140331693255,35.802834997274736","28.172585221168767,-2.2183291134886334,13.44120777758377,-13.549689513095295,2.916247082181364,9.853340932632811,-18.455457124261475,-12.567774345456256","0","0"
"677","86","text","0","24","308507","0-0","","","","","","","","","","","","","","","","","","","","","","","","","","","","","","","","","","","","",""
"","","plant-game","0","25","332280","0-0","","200","180","2","CORN CROP","Left","200","160","4","NETTLE WEED","practice","12","1,2,3,4","180,222.97648511952485,180,199.2504327955355","2,1,2,1","CORN CROP,CORN CROP,WHEAT CROP,WHEAT CROP","160,184.14830917090063,188.76353950884555,175.72096812794857","4,3,2,1","NETTLE WEED,NETTLE WEED,NETTLE WEED,NETTLE WEED","20,20,20,20","20,20,20,20","10,10,10,10","20,20,20,20","0,0,0,0","20,20,20,20","20,20,20,20","20,20,20,20","10,10,10,10","20,20,20,20","0,0,0,0","20,20,20,20","0,1,1,0","2905,3367,1534,2362","42.97648511952485,-14.5917008625889,19.2504327955355,-11.250787326571388","24.148309170900642,4.615230337944913,-13.042571380896977,41.21478853474765","0","0"
"91","86","text","0","26","332481","0-0","","","","","","","","","","","","","","","","","","","","","","","","","","","","","","","","","","","","",""
"5237","86","text","0","27","338868","0-0","","","","","","","","","","","","","","","","","","","","","","","","","","","","","","","","","","","","",""
"","","plant-game","0","28","359010","0-0","","200","160","4","CORN CROP","Right","200","180","2","THISTLE WEED","experimental","1","1,2,3,4","180,183.24083440596314,180,182.29120847091357","2,1,2,1","THISTLE WEED,THISTLE WEED,NETTLE WEED,NETTLE WEED","160,208.29727512869962,218.3875211255893,262.43371316191843","4,3,2,1","CORN CROP,CORN CROP,CORN CROP,CORN CROP","0,0,0,0","20,20,20,20","10,10,10,10","20,20,20,20","20,20,20,20","20,20,20,20","0,0,0,0","20,20,20,20","10,10,10,10","20,20,20,20","20,20,20,20","20,20,20,20","1,0,0,0","6698,2119,2328,1623","3.2408344059631418,6.45832645402197,2.2912084709135847,14.17133255572045","48.297275128699624,10.090245996889678,44.04619203632913,-13.908800465597222","0","0"
"771","86","text","0","29","359961","0-0","","","","","","","","","","","","","","","","","","","","","","","","","","","","","","","","","","","","",""
"","","plant-game","0","30","378708","0-0","","200","180","4","WHEAT CROP","Left","200","160","1","NETTLE WEED","experimental","2","1,2,3,4","180,178.53640684998516,157.33022392151125,194.59610056121232","4,3,2,1","WHEAT CROP,WHEAT CROP,WHEAT CROP,WHEAT CROP","160,170,173.4273667432056,193.30473937108312","1,3,2,1","NETTLE WEED,THISTLE WEED,THISTLE WEED,THISTLE WEED","20,20,20,20","20,20,20,20","10,10,10,10","20,20,20,20","0,0,0,0","20,20,20,20","20,20,20,20","20,20,20,20","10,10,10,10","20,20,20,20","0,0,0,0","20,20,20,20","1,1,0,1","5461,2225,1782,1220","-1.463593150014858,-21.206182928473897,37.265876639701084,-16.223234476411562","-18.63458913061711,3.4273667432055848,19.877372627877516,-1.4897800730200106","0","0"
"624","86","text","0","31","379488","0-0","","","","","","","","","","","","","","","","","","","","","","","","","","","","","","","","","","","","",""
"","","plant-game","0","32","394247","0-0","","200","120","1","WHEAT CROP","Right","200","120","2","NETTLE WEED","experimental","3","1,2","120,150.1367287570068","2,1","NETTLE WEED,NETTLE WEED","120,190","1,1","WHEAT CROP,CORN CROP","0,0","20,20","10,10","20,20","20,20","20,20","0,0","20,20","10,10","20,20","20,20","20,20","1,1","4825,3349","30.13672875700681,10.522374907071198","42.43044509898179,31.425697686347768","0","0"
"103","86","text","0","33","394450","0-0","","","","","","","","","","","","","","","","","","","","","","","","","","","","","","","","","","","","",""
"","","plant-game","0","34","421136","0-0","","200","160","2","WHEAT CROP","Left","200","190","8","NETTLE WEED","experimental","4","1,2,3,4,5,6,7,8","160,150.20575275226014,140,137.46317781982316,161.49924606804467,171.4032877937988,187.21751714420495,217.1063588439471","2,1,6,5,4,3,2,1","WHEAT CROP,WHEAT CROP,CORN CROP,CORN CROP,CORN CROP,CORN CROP,CORN CROP,CORN CROP","190,163.5393574760089,157.6070204070845,140.58366321349686,154.355383659505,143.9128376545196,142.1700116624653,194.3546422476134","8,7,6,5,4,3,2,1","NETTLE WEED,NETTLE WEED,NETTLE WEED,NETTLE WEED,NETTLE WEED,NETTLE WEED,NETTLE WEED,NETTLE WEED","20,20,20,20,20,20,20,20","20,20,20,20,20,20,20,20","10,10,10,10,10,10,10,10","20,20,20,20,20,20,20,20","0,0,0,0,0,0,0,0","20,20,20,20,20,20,20,20","20,20,20,20,20,20,20,20","20,20,20,20,20,20,20,20","10,10,10,10,10,10,10,10","20,20,20,20,20,20,20,20","0,0,0,0,0,0,0,0","20,20,20,20,20,20,20,20","1,0,1,0,0,0,0,1","5896,3232,2592,1274,1203,1300,970,1718","-9.794247247739868,9.201482995103857,-2.536822180176837,24.036068248221504,9.90404172575413,15.814229350406151,29.88884169974215,-48.00464113951588","-26.46064252399111,-5.932337068924397,-17.02335719358764,13.77172044600814,-10.44254600498542,-1.7428259920543034,52.18463058514811,-4.517301065276118","0","0"
"555","86","text","0","35","421841","0-0","","","","","","","","","","","","","","","","","","","","","","","","","","","","","","","","","","","","",""
"","","plant-game","0","36","436779","0-0","","200","190","2","WHEAT CROP","Right","200","120","4","THISTLE WEED","experimental","5","1,2,3,4","120,129.365607613516,125.59987325383815,138.67582424341413","4,3,2,1","THISTLE WEED,THISTLE WEED,THISTLE WEED,THISTLE WEED","190,199.77017784168115,180,206.9264749024254","2,1,2,1","WHEAT CROP,WHEAT CROP,CORN CROP,CORN CROP","0,0,0,0","20,20,20,20","10,10,10,10","20,20,20,20","20,20,20,20","20,20,20,20","0,0,0,0","20,20,20,20","10,10,10,10","20,20,20,20","20,20,20,20","20,20,20,20","1,1,1,1","2766,1310,2579,1505","9.365607613516001,-3.765734359677854,13.075950989575972,8.538085355975332","9.770177841681146,31.640900782358457,26.926474902425415,14.429065999059006","0","0"
"600","86","text","0","37","437579","0-0","","","","","","","","","","","","","","","","","","","","","","","","","","","","","","","","","","","","",""
"","","plant-game","0","38","451821","0-0","","200","120","4","WHEAT CROP","Right","200","180","4","THISTLE WEED","experimental","6","1,2,3,4","180,179.93434285735324,149.45120371583752,174.46275834949154","4,3,2,1","THISTLE WEED,THISTLE WEED,THISTLE WEED,THISTLE WEED","120,102.90190859408811,106.90318359950342,111.20603550914609","4,3,2,1","WHEAT CROP,WHEAT CROP,WHEAT CROP,WHEAT CROP","0,0,0,0","20,20,20,20","10,10,10,10","20,20,20,20","20,20,20,20","20,20,20,20","0,0,0,0","20,20,20,20","10,10,10,10","20,20,20,20","20,20,20,20","20,20,20,20","0,0,0,0","2535,1463,3649,1239","-0.06565714264674424,-30.48313914151571,25.011554633654015,21.827654634114943","-17.098091405911884,4.0012750054153114,4.30285190964267,-18.75655143709164","0","0"
"559","86","text","0","39","452583","0-0","","","","","","","","","","","","","","","","","","","","","","","","","","","","","","","","","","","","",""
"","","plant-game","0","40","484281","0-0","","200","190","8","CORN CROP","Left","200","160","2","THISTLE WEED","experimental","7","1,2,3,4,5,6,7,8","190,207.67665192744514,190.49631127421478,167.32480610988495,154.0577850632726,146.82242540492956,171.93273276238818,153.07299116391448","8,7,6,5,4,3,2,1","CORN CROP,CORN CROP,CORN CROP,CORN CROP,CORN CROP,CORN CROP,CORN CROP,CORN CROP","160,184.0010739417759,140,146.63597556707896,141.15594102232802,155.504702794434,187.4603204118883,203.9034029486483","2,1,6,5,4,3,2,1","THISTLE WEED,THISTLE WEED,NETTLE WEED,NETTLE WEED,NETTLE WEED,NETTLE WEED,NETTLE WEED,NETTLE WEED","20,20,20,20,20,20,20,20","20,20,20,20,20,20,20,20","10,10,10,10,10,10,10,10","20,20,20,20,20,20,20,20","0,0,0,0,0,0,0,0","20,20,20,20,20,20,20,20","20,20,20,20,20,20,20,20","20,20,20,20,20,20,20,20","10,10,10,10,10,10,10,10","20,20,20,20,20,20,20,20","0,0,0,0,0,0,0,0","20,20,20,20,20,20,20,20","0,1,1,1,0,0,1,1","5059,4834,3654,3233,1331,2077,944,1702","17.67665192744514,-17.180340653230367,-23.171505164329833,-13.267021046612353,-7.235359658343057,25.110307357458616,-18.859741598473704,63.58959134791307","24.00107394177591,0.010170962485983098,6.635975567078949,-5.480034544750928,14.34876177210598,31.955617617454287,16.44308253676001,-10.841561378734099","0","0"
"4919","86","text","0","41","489300","0-0","","","","","","","","","","","","","","","","","","","","","","","","","","","","","","","","","","","","",""
"","","plant-game","0","42","507736","0-0","","200","120","2","CORN CROP","Left","200","160","1","NETTLE WEED","experimental","8","1,2","120,147.8384338303087","2,1","CORN CROP,CORN CROP","160,190","1,1","NETTLE WEED,THISTLE WEED","20,20","20,20","10,10","20,20","0,0","20,20","20,20","20,20","10,10","20,20","0,0","20,20","0,1","6052,2627","27.838433830308706,16.729444544787842","9.09339759324717,22.39724210847877","0","0"
"587","86","text","0","43","508493","0-0","","","","","","","","","","","","","","","","","","","","","","","","","","","","","","","","","","","","",""
"","","plant-game","0","44","516503","0-0","","200","190","1","WHEAT CROP","Right","200","120","1","NETTLE WEED","experimental","9","1","120","1","NETTLE WEED","190","1","WHEAT CROP","0","20","10","20","20","20","0","20","10","20","20","20","1","2712","11.818076769474038","-1.985325428204714","0","0"
"817","86","text","0","45","517520","0-0","","","","","","","","","","","","","","","","","","","","","","","","","","","","","","","","","","","","",""
"","","plant-game","0","46","538035","0-0","","200","190","8","WHEAT CROP","Right","200","180","1","NETTLE WEED","experimental","10","1,2,3,4,5,6,7,8","180,130,93.42703971012232,100.1959058545054,148.231186318416,186.1243051537831,229.2635749044009,207.63346228259357","1,7,6,5,4,3,2,1","NETTLE WEED,THISTLE WEED,THISTLE WEED,THISTLE WEED,THISTLE WEED,THISTLE WEED,THISTLE WEED,THISTLE WEED","190,195.59534719975952,172.1124918313734,176.63373518233416,202.5430798637435,173.03895795573243,177.92041828162937,209.8380971544072","8,7,6,5,4,3,2,1","WHEAT CROP,WHEAT CROP,WHEAT CROP,WHEAT CROP,WHEAT CROP,WHEAT CROP,WHEAT CROP,WHEAT CROP","0,0,0,0,0,0,0,0","20,20,20,20,20,20,20,20","10,10,10,10,10,10,10,10","20,20,20,20,20,20,20,20","20,20,20,20,20,20,20,20","20,20,20,20,20,20,20,20","0,0,0,0,0,0,0,0","20,20,20,20,20,20,20,20","10,10,10,10,10,10,10,10","20,20,20,20,20,20,20,20","20,20,20,20,20,20,20,20","20,20,20,20,20,20,20,20","0,0,1,1,1,1,1,0","3930,2203,1492,563,1364,1023,1007,1183","-19.17230255460833,-36.572960289877685,6.768866144383082,48.035280463910624,37.893118835367076,43.13926975061782,-21.630112621807342,-6.509467743925899","5.595347199759528,-23.48285536838612,4.521243350960768,25.909344681409323,-29.504121908011065,4.881460325896946,31.917678872777813,-18.648913819950447","0","0"
"570","86","text","0","47","538785","0-0","","","","","","","","","","","","","","","","","","","","","","","","","","","","","","","","","","","","",""
"","","plant-game","0","48","550077","0-0","","200","160","2","CORN CROP","Left","200","180","1","THISTLE WEED","experimental","11","1,2","160,151.12471054682797","2,1","CORN CROP,CORN CROP","180,190","1,1","THISTLE WEED,NETTLE WEED","20,20","20,20","10,10","20,20","0,0","20,20","20,20","20,20","10,10","20,20","0,0","20,20","1,0","2641,2426","-8.87528945317204,31.25919935279299","-23.661327589131194,-4.9431308249274934","0","0"
"480","86","text","0","49","550687","0-0","","","","","","","","","","","","","","","","","","","","","","","","","","","","","","","","","","","","",""
"","","plant-game","0","50","568071","0-0","","200","190","4","WHEAT CROP","Right","200","160","8","NETTLE WEED","experimental","12","1,2,3,4,5,6,7,8","160,200.0960506649596,255.3681993225997,275.16575894899626,296.49836548870275,300.02449955810397,307.46782481011263,329.68748390412605","8,7,6,5,4,3,2,1","NETTLE WEED,NETTLE WEED,NETTLE WEED,NETTLE WEED,NETTLE WEED,NETTLE WEED,NETTLE WEED,NETTLE WEED","190,162.27525926589908,197.49498449934939,226.43299494382183,160,148.72956486193874,148.887255224473,140.78201566911133","4,3,2,1,4,3,2,1","WHEAT CROP,WHEAT CROP,WHEAT CROP,WHEAT CROP,CORN CROP,CORN CROP,CORN CROP,CORN CROP","0,0,0,0,0,0,0,0","20,20,20,20,20,20,20,20","10,10,10,10,10,10,10,10","20,20,20,20,20,20,20,20","20,20,20,20,20,20,20,20","20,20,20,20,20,20,20,20","0,0,0,0,0,0,0,0","20,20,20,20,20,20,20,20","10,10,10,10,10,10,10,10","20,20,20,20,20,20,20,20","20,20,20,20,20,20,20,20","20,20,20,20,20,20,20,20","1,1,1,0,0,0,0,0","2507,1368,797,1671,928,452,87,98","40.096050664959606,55.272148657640116,19.79755962639653,21.332606539706475,3.52613406940124,7.443325252008676,22.219659094013405,24.94089696633667","-27.724740734100912,35.219725233450305,28.938010444472425,0.45700424220201463,-11.270435138061256,0.15769036253425417,-8.105239555361653,-15.29482912787103","0","0"
"904","86","text","0","51","569135","0-0","","","","","","","","","","","","","","","","","","","","","","","","","","","","","","","","","","","","",""
"","","plant-game","0","52","588422","0-0","","200","180","2","CORN CROP","Right","200","160","4","THISTLE WEED","experimental","13","1,2,3,4","160,148.60167430485495,170.68057319097784,180.5450863151457","4,3,2,1","THISTLE WEED,THISTLE WEED,THISTLE WEED,THISTLE WEED","180,193.1381952234829,180,174.596695916376","2,1,2,1","CORN CROP,CORN CROP,WHEAT CROP,WHEAT CROP","0,0,0,0","20,20,20,20","10,10,10,10","20,20,20,20","20,20,20,20","20,20,20,20","0,0,0,0","20,20,20,20","10,10,10,10","20,20,20,20","20,20,20,20","20,20,20,20","0,1,0,1","4072,5266,2289,2424","-11.398325695145047,22.078898886122882,9.864513124167864,39.29429221272943","13.138195223482924,1.020328310607816,-5.403304083624,11.372853022738106","0","0"
"123","86","text","0","53","588655","0-0","","","","","","","","","","","","","","","","","","","","","","","","","","","","","","","","","","","","",""
"","","plant-game","0","54","605088","0-0","","200","160","8","CORN CROP","Right","200","120","8","THISTLE WEED","experimental","14","1,2,3,4,5,6,7,8","120,154.30921316326007,161.7467637119447,147.18872661440992,178.19960992313497,161.17546935590093,199.2369994219657,177.21118820552857","8,7,6,5,4,3,2,1","THISTLE WEED,THISTLE WEED,THISTLE WEED,THISTLE WEED,THISTLE WEED,THISTLE WEED,THISTLE WEED,THISTLE WEED","160,179.50006433886114,182.4151127621574,284.8184803752606,318.0790063603324,312.426244881681,323.36102369815546,287.5364563098086","8,7,6,5,4,3,2,1","CORN CROP,CORN CROP,CORN CROP,CORN CROP,CORN CROP,CORN CROP,CORN CROP,CORN CROP","0,0,0,0,0,0,0,0","20,20,20,20,20,20,20,20","10,10,10,10,10,10,10,10","20,20,20,20,20,20,20,20","20,20,20,20,20,20,20,20","20,20,20,20,20,20,20,20","0,0,0,0,0,0,0,0","20,20,20,20,20,20,20,20","10,10,10,10,10,10,10,10","20,20,20,20,20,20,20,20","20,20,20,20,20,20,20,20","20,20,20,20,20,20,20,20","1,1,1,0,0,0,0,0","3156,595,773,2019,1150,1646,1020,1268","34.309213163260075,7.437550548684655,-14.558037097534807,31.010883308725067,-17.024140567234042,38.06153006606477,-22.025811216437113,3.666970472436496","19.50006433886115,2.915048423296259,102.40336761310319,33.2605259850718,-5.652761478651408,10.934778816474456,-35.82456738834686,-10.729734216190199","0","0"
"131","86","text","0","55","605319","0-0","","","","","","","","","","","","","","","","","","","","","","","","","","","","","","","","","","","","",""
"","","plant-game","0","56","626162","0-0","","200","120","4","WHEAT CROP","Left","200","180","2","NETTLE WEED","experimental","15","1,2,3,4","120,90.63993953142202,97.20128199786235,93.15191664822414","4,3,2,1","WHEAT CROP,WHEAT CROP,WHEAT CROP,WHEAT CROP","180,145.45694394261125,180,163.7029449023844","2,1,2,1","NETTLE WEED,NETTLE WEED,THISTLE WEED,THISTLE WEED","20,20,20,20","20,20,20,20","10,10,10,10","20,20,20,20","0,0,0,0","20,20,20,20","20,20,20,20","20,20,20,20","10,10,10,10","20,20,20,20","0,0,0,0","20,20,20,20","0,1,1,0","1641,3271,3346,2559","-29.360060468577977,6.561342466440338,-4.049365349638202,10.48350641176879","-34.543056057388746,-13.27059540159794,-16.29705509761561,10.109327957137111","0","0"
"965","86","text","0","57","627236","0-0","","","","","","","","","","","","","","","","","","","","","","","","","","","","","","","","","","","","",""
"","","plant-game","0","58","646186","0-0","","200","180","2","CORN CROP","Left","200","190","4","THISTLE WEED","experimental","16","1,2,3,4","180,227.8884650713547,180,177.53579224464892","2,1,2,1","CORN CROP,CORN CROP,WHEAT CROP,WHEAT CROP","190,233.71960029764648,233.53326662992788,216.01402345714513","4,3,2,1","THISTLE WEED,THISTLE WEED,THISTLE WEED,THISTLE WEED","20,20,20,20","20,20,20,20","10,10,10,10","20,20,20,20","0,0,0,0","20,20,20,20","20,20,20,20","20,20,20,20","10,10,10,10","20,20,20,20","0,0,0,0","20,20,20,20","0,1,1,1","2562,2783,3720,1382","47.88846507135467,31.38590656766807,-2.464207755351071,22.468690001468712","43.71960029764648,-0.18633366771859733,-17.519243172782744,33.22724401262941","0","0"
"2915","86","text","0","59","649261","0-0","","","","","","","","","","","","","","","","","","","","","","","","","","","","","","","","","","","","",""
"","","plant-game","0","60","665031","0-0","","200","180","1","WHEAT CROP","Right","200","160","4","THISTLE WEED","experimental","17","1,2,3,4","160,173.54825792253362,159.59233429157325,200.57592645854558","4,3,2,1","THISTLE WEED,THISTLE WEED,THISTLE WEED,THISTLE WEED","180,170,160.27727607574113,132.46045856727724","1,3,2,1","WHEAT CROP,CORN CROP,CORN CROP,CORN CROP","0,0,0,0","20,20,20,20","10,10,10,10","20,20,20,20","20,20,20,20","20,20,20,20","0,0,0,0","20,20,20,20","10,10,10,10","20,20,20,20","20,20,20,20","20,20,20,20","1,0,1,0","4693,2500,1403,857","13.54825792253362,-13.955923630960378,40.98359216697233,-19.831088875143397","28.018922240458238,-9.72272392425886,-27.816817508463892,-0.9309329353200444","0","0"
"535","86","text","0","61","665751","0-0","","","","","","","","","","","","","","","","","","","","","","","","","","","","","","","","","","","","",""
"","","plant-game","0","62","686622","0-0","","200","190","1","WHEAT CROP","Right","200","180","8","THISTLE WEED","experimental","18","1,2,3,4,5,6,7,8","180,157.48487047873442,141.04097439613986,150.08444789428242,160.40666670382768,180.26977740907577,160.13831665705692,201.44100342582044","8,7,6,5,4,3,2,1","THISTLE WEED,THISTLE WEED,THISTLE WEED,THISTLE WEED,THISTLE WEED,THISTLE WEED,THISTLE WEED,THISTLE WEED","190,130,138.83492550834214,145.6501347866843,169.49766223258104,159.04539887346934,173.49689140795184,211.30670656413741","1,7,6,5,4,3,2,1","WHEAT CROP,CORN CROP,CORN CROP,CORN CROP,CORN CROP,CORN CROP,CORN CROP,CORN CROP","0,0,0,0,0,0,0,0","20,20,20,20,20,20,20,20","10,10,10,10,10,10,10,10","20,20,20,20,20,20,20,20","20,20,20,20,20,20,20,20","20,20,20,20,20,20,20,20","0,0,0,0,0,0,0,0","20,20,20,20,20,20,20,20","10,10,10,10,10,10,10,10","20,20,20,20,20,20,20,20","20,20,20,20,20,20,20,20","20,20,20,20,20,20,20,20","0,0,0,0,0,0,1,0","4042,2047,1143,975,1329,1116,1545,1223","-22.515129521265592,-16.443896082594563,9.04347349814255,10.32221880954527,19.863110705248083,-20.131460752018864,41.302686768763536,-9.163263172377562","10.953688382216136,8.83492550834214,6.815209278342179,23.847527445896723,-10.45226335911169,14.451492534482487,37.809815156185586,-18.904657601126573","0","0"
"743","86","text","0","63","687526","0-0","","","","","","","","","","","","","","","","","","","","","","","","","","","","","","","","","","","","",""
"","","plant-game","0","64","708587","0-0","","200","190","4","CORN CROP","Left","200","190","8","NETTLE WEED","experimental","19","1,2,3,4,5,6,7,8","190,148.35806597566105,135.00963564532248,150.7027184959359,160,177.29746230221994,159.783360343085,133.36787093378715","4,3,2,1,4,3,2,1","CORN CROP,CORN CROP,CORN CROP,CORN CROP,WHEAT CROP,WHEAT CROP,WHEAT CROP,WHEAT CROP","190,148.6026376563926,165.2747492661736,218.90379499698088,207.3583301225937,214.9323447883673,225.1255542547817,223.24717360906502","8,7,6,5,4,3,2,1","NETTLE WEED,NETTLE WEED,NETTLE WEED,NETTLE WEED,NETTLE WEED,NETTLE WEED,NETTLE WEED,NETTLE WEED","20,20,20,20,20,20,20,20","20,20,20,20,20,20,20,20","10,10,10,10,10,10,10,10","20,20,20,20,20,20,20,20","0,0,0,0,0,0,0,0","20,20,20,20,20,20,20,20","20,20,20,20,20,20,20,20","20,20,20,20,20,20,20,20","10,10,10,10,10,10,10,10","20,20,20,20,20,20,20,20","0,0,0,0,0,0,0,0","20,20,20,20,20,20,20,20","1,0,0,1,0,1,1,1","3351,3020,1864,944,3389,637,694,685","-41.64193402433895,-13.348430330338587,15.693082850613418,33.69240043588719,17.297462302219948,-17.51410195913492,-26.415489409297855,-2.7163054840800314","-41.39736234360739,16.67211160978098,53.62904573080728,-11.545464874387168,7.574014665773568,10.193209466414404,-1.8783806457166798,5.934077917338545","0","0"
"114","86","text","0","65","708771","0-0","","","","","","","","","","","","","","","","","","","","","","","","","","","","","","","","","","","","",""
"","","plant-game","0","66","723927","0-0","","200","160","4","CORN CROP","Left","200","180","1","NETTLE WEED","experimental","20","1,2,3,4","160,168.07894278544674,206.80451923430593,238.406684698971","4,3,2,1","CORN CROP,CORN CROP,CORN CROP,CORN CROP","180,170,192.40995048425577,218.16629294979634","1,3,2,1","NETTLE WEED,THISTLE WEED,THISTLE WEED,THISTLE WEED","20,20,20,20","20,20,20,20","10,10,10,10","20,20,20,20","0,0,0,0","20,20,20,20","20,20,20,20","20,20,20,20","10,10,10,10","20,20,20,20","0,0,0,0","20,20,20,20","0,0,1,1","3574,3073,1074,1394","8.078942785446735,38.72557644885917,31.602165464665074,55.67080882621356","31.958085067041193,22.40995048425576,25.75634246554058,10.937982470560925","0","0"
"143","86","text","0","67","724206","0-0","","","","","","","","","","","","","","","","","","","","","","","","","","","","","","","","","","","","",""
"","","plant-game","0","68","742430","0-0","","200","120","8","WHEAT CROP","Left","200","180","4","NETTLE WEED","experimental","21","1,2,3,4,5,6,7,8","120,91.73061754793608,114.25135013716302,99.11632663879756,72.88965503251262,115.76151518536561,146.15969645006507,165.02606305845228","8,7,6,5,4,3,2,1","WHEAT CROP,WHEAT CROP,WHEAT CROP,WHEAT CROP,WHEAT CROP,WHEAT CROP,WHEAT CROP,WHEAT CROP","180,172.22557881853513,211.15691931162303,239.73198075621806,160,180.7830001923726,195.51214398972974,193.35959791714657","4,3,2,1,4,3,2,1","NETTLE WEED,NETTLE WEED,NETTLE WEED,NETTLE WEED,THISTLE WEED,THISTLE WEED,THISTLE WEED,THISTLE WEED","20,20,20,20,20,20,20,20","20,20,20,20,20,20,20,20","10,10,10,10,10,10,10,10","20,20,20,20,20,20,20,20","0,0,0,0,0,0,0,0","20,20,20,20,20,20,20,20","20,20,20,20,20,20,20,20","20,20,20,20,20,20,20,20","10,10,10,10,10,10,10,10","20,20,20,20,20,20,20,20","0,0,0,0,0,0,0,0","20,20,20,20,20,20,20,20","1,1,1,1,0,1,1,0","2664,654,801,575,1316,1027,2109,2018","-28.26938245206392,22.52073258922694,-15.135023498365452,-26.22667160628494,42.87186015285299,30.398181264699463,18.86636660838721,13.015764258266682","-7.774421181464863,38.93134049308791,28.575061444595047,9.042202288177737,20.783000192372622,14.729143797357123,-2.1525460725831778,6.477725255426671","0","0"
"217","86","text","0","69","742767","0-0","","","","","","","","","","","","","","","","","","","","","","","","","","","","","","","","","","","","",""
"","","plant-game","0","70","758573","0-0","","200","160","2","CORN CROP","Left","200","180","4","NETTLE WEED","experimental","22","1,2,3,4","160,147.0870722109764,180,204.8683369981427","2,1,2,1","CORN CROP,CORN CROP,WHEAT CROP,WHEAT CROP","180,205.73885494407165,214.74204512128443,206.98398279120454","4,3,2,1","NETTLE WEED,NETTLE WEED,NETTLE WEED,NETTLE WEED","20,20,20,20","20,20,20,20","10,10,10,10","20,20,20,20","0,0,0,0","20,20,20,20","20,20,20,20","20,20,20,20","10,10,10,10","20,20,20,20","0,0,0,0","20,20,20,20","0,1,1,1","4068,1984,1555,1587","-12.912927789023591,-15.896286434102269,24.868336998142702,-0.9581926893791519","25.738854944071647,9.003190177212788,-7.758062330079892,-8.68120937674261","0","0"
"84","86","text","0","71","758767","0-0","","","","","","","","","","","","","","","","","","","","","","","","","","","","","","","","","","","","",""
"","","plant-game","0","72","779654","0-0","","200","180","1","WHEAT CROP","Right","200","190","4","NETTLE WEED","experimental","23","1,2,3,4","190,218.99318179854353,219.18219884990893,235.50482408192593","4,3,2,1","NETTLE WEED,NETTLE WEED,NETTLE WEED,NETTLE WEED","180,170,187.50342302902345,195.06248733440955","1,3,2,1","WHEAT CROP,CORN CROP,CORN CROP,CORN CROP","0,0,0,0","20,20,20,20","10,10,10,10","20,20,20,20","20,20,20,20","20,20,20,20","0,0,0,0","20,20,20,20","10,10,10,10","20,20,20,20","20,20,20,20","20,20,20,20","0,0,0,0","5360,5452,1587,808","28.99318179854353,0.1890170513653987,16.322625232017014,-19.86734318129013","24.205332035572006,17.503423029023452,7.559064305386089,-18.08007350012568","1","0"
"797","86","text","0","73","780601","0-0","","","","","","","","","","","","","","","","","","","","","","","","","","","","","","","","","","","","",""
"","","plant-game","0","74","795945","0-0","","200","160","4","CORN CROP","Right","200","120","1","NETTLE WEED","experimental","24","1,2,3,4","120,170,159.21617025476718,171.3604564487218","1,3,2,1","NETTLE WEED,THISTLE WEED,THISTLE WEED,THISTLE WEED","160,153.16290349726253,158.09580908060525,183.61866119933867","4,3,2,1","CORN CROP,CORN CROP,CORN CROP,CORN CROP","0,0,0,0","20,20,20,20","10,10,10,10","20,20,20,20","20,20,20,20","20,20,20,20","0,0,0,0","20,20,20,20","10,10,10,10","20,20,20,20","20,20,20,20","20,20,20,20","1,0,1,1","2372,2273,1332,1052","19.12926589272076,-10.783829745232811,12.144286193954636,88.25517370308633","-6.837096502737467,4.93290558334273,25.522852118733432,41.663001990489164","0","0"
"397","86","text","0","75","796514","0-0","","","","","","","","","","","","","","","","","","","","","","","","","","","","","","","","","","","","",""
"","","plant-game","0","76","818560","0-0","","200","120","1","CORN CROP","Left","200","180","4","NETTLE WEED","experimental","25","1,2,3,4","120,170,192.76595840348165,188.27633368009143","1,3,2,1","CORN CROP,WHEAT CROP,WHEAT CROP,WHEAT CROP","180,205.98135865960495,224.7765413749927,200.36511196614745","4,3,2,1","NETTLE WEED,NETTLE WEED,NETTLE WEED,NETTLE WEED","20,20,20,20","20,20,20,20","10,10,10,10","20,20,20,20","0,0,0,0","20,20,20,20","20,20,20,20","20,20,20,20","10,10,10,10","20,20,20,20","0,0,0,0","20,20,20,20","0,1,1,1","6625,4504,1434,2051","-16.73883966805822,22.76595840348164,-4.489624723390219,-29.700193382797686","25.981358659604943,18.795182715387725,-24.41142940884523,-25.646510513263138","0","0"
"131","86","text","0","77","818791","0-0","","","","","","","","","","","","","","","","","","","","","","","","","","","","","","","","","","","","",""
"","","plant-game","0","78","843430","0-0","","200","160","8","CORN CROP","Right","200","160","2","THISTLE WEED","experimental","26","1,2,3,4,5,6,7,8","160,164.8167494189869,140,169.16462886200094,178.39416956851028,188.7792075791536,195.6112834698141,219.8214552154003","2,1,6,5,4,3,2,1","THISTLE WEED,THISTLE WEED,NETTLE WEED,NETTLE WEED,NETTLE WEED,NETTLE WEED,NETTLE WEED,NETTLE WEED","160,126.36696106370715,106.52839007935965,155.36299072984943,107.37891392601165,104.00046677243654,80.25955852165549,112.60673827330395","8,7,6,5,4,3,2,1","CORN CROP,CORN CROP,CORN CROP,CORN CROP,CORN CROP,CORN CROP,CORN CROP,CORN CROP","0,0,0,0,0,0,0,0","20,20,20,20,20,20,20,20","10,10,10,10,10,10,10,10","20,20,20,20,20,20,20,20","20,20,20,20,20,20,20,20","20,20,20,20,20,20,20,20","0,0,0,0,0,0,0,0","20,20,20,20,20,20,20,20","10,10,10,10,10,10,10,10","20,20,20,20,20,20,20,20","20,20,20,20,20,20,20,20","20,20,20,20,20,20,20,20","0,0,1,0,0,0,0,0","5904,716,3798,697,668,771,940,833","4.81674941898688,40.36063020146958,29.16462886200094,9.229540706509344,10.385038010643326,6.83207589066053,24.21017174558618,2.570746083906503","-33.633038936292856,-19.8385709843475,48.834600650489776,-47.98407680383779,-3.3784471535751157,-23.74090825078104,32.347179751648454,-4.174482042636728","0","0"
"620","86","text","0","79","844240","0-0","","","","","","","","","","","","","","","","","","","","","","","","","","","","","","","","","","","","",""
"","","plant-game","0","80","861558","0-0","","200","160","2","WHEAT CROP","Left","200","160","4","NETTLE WEED","experimental","27","1,2,3,4","160,196.52150108305378,180,199.48037135729138","2,1,2,1","WHEAT CROP,WHEAT CROP,CORN CROP,CORN CROP","160,174.31892876447597,206.45636372914458,202.7877517231479","4,3,2,1","NETTLE WEED,NETTLE WEED,NETTLE WEED,NETTLE WEED","20,20,20,20","20,20,20,20","10,10,10,10","20,20,20,20","0,0,0,0","20,20,20,20","20,20,20,20","20,20,20,20","10,10,10,10","20,20,20,20","0,0,0,0","20,20,20,20","0,0,1,1","6203,272,3323,2152","36.52150108305377,21.513717077516326,19.480371357291368,-22.839716661646023","14.318928764475956,32.1374349646686,-3.668612005996682,33.23782775713293","0","0"
"104","86","text","0","81","861792","0-0","","","","","","","","","","","","","","","","","","","","","","","","","","","","","","","","","","","","",""
"","","plant-game","0","82","875884","0-0","","200","160","4","WHEAT CROP","Left","200","160","4","THISTLE WEED","experimental","28","1,2,3,4","160,150.93044489169804,187.5648924734077,214.0913467501531","4,3,2,1","WHEAT CROP,WHEAT CROP,WHEAT CROP,WHEAT CROP","160,156.1136549719684,164.21886202359855,190.58061507387544","4,3,2,1","THISTLE WEED,THISTLE WEED,THISTLE WEED,THISTLE WEED","20,20,20,20","20,20,20,20","10,10,10,10","20,20,20,20","0,0,0,0","20,20,20,20","20,20,20,20","20,20,20,20","10,10,10,10","20,20,20,20","0,0,0,0","20,20,20,20","1,0,0,1","4379,1151,2453,1447","-9.069555108301966,36.63444758170965,26.526454276745383,5.507522844065989","-3.886345028031606,8.105207051630142,26.36175305027689,39.09071082701623","0","0"
"137","86","text","0","83","876151","0-0","","","","","","","","","","","","","","","","","","","","","","","","","","","","","","","","","","","","",""
"","","plant-game","0","84","892384","0-0","","200","190","1","WHEAT CROP","Left","200","180","4","NETTLE WEED","experimental","29","1,2,3,4","190,170,171.70664083800014,186.6378440711431","1,3,2,1","WHEAT CROP,CORN CROP,CORN CROP,CORN CROP","180,213.47482732873004,221.45041088160468,240.72313048136954","4,3,2,1","NETTLE WEED,NETTLE WEED,NETTLE WEED,NETTLE WEED","20,20,20,20","20,20,20,20","10,10,10,10","20,20,20,20","0,0,0,0","20,20,20,20","20,20,20,20","20,20,20,20","10,10,10,10","20,20,20,20","0,0,0,0","20,20,20,20","0,1,0,0","2273,4329,1056,680","23.924489980733426,1.7066408380001417,14.931203233142952,14.08827473649574","33.47482732873006,7.975583552874642,19.27271959976484,47.564147444529496","0","0"
"1291","86","text","0","85","893865","0-0","","","","","","","","","","","","","","","","","","","","","","","","","","","","","","","","","","","","",""
"","","plant-game","0","86","910028","0-0","","200","120","2","CORN CROP","Left","200","190","1","NETTLE WEED","experimental","30","1,2","120,146.07281872966064","2,1","CORN CROP,CORN CROP","190,190","1,1","NETTLE WEED,THISTLE WEED","20,20","20,20","10,10","20,20","0,0","20,20","20,20","20,20","10,10","20,20","0,0","20,20","1,0","3750,4767","26.072818729660643,12.364395888622688","-1.2443964736307336,39.947411867426275","0","0"
"107","86","text","0","87","910255","0-0","","","","","","","","","","","","","","","","","","","","","","","","","","","","","","","","","","","","",""
"","","plant-game","0","88","928596","0-0","","200","180","2","WHEAT CROP","Right","200","180","4","THISTLE WEED","experimental","31","1,2,3,4","180,206.8426923932878,218.80254951536324,261.88215762659627","4,3,2,1","THISTLE WEED,THISTLE WEED,THISTLE WEED,THISTLE WEED","180,181.15730914048495,180,180.52017662865995","2,1,2,1","WHEAT CROP,WHEAT CROP,CORN CROP,CORN CROP","0,0,0,0","20,20,20,20","10,10,10,10","20,20,20,20","20,20,20,20","20,20,20,20","0,0,0,0","20,20,20,20","10,10,10,10","20,20,20,20","20,20,20,20","20,20,20,20","1,1,0,1","3173,3680,4629,1416","26.842692393287795,11.959857122075446,43.07960811123306,29.37770816798656","1.1573091404849443,11.777501291865805,0.5201766286599411,35.224295926740176","0","0"
"120","86","text","0","89","928826","0-0","","","","","","","","","","","","","","","","","","","","","","","","","","","","","","","","","","","","",""
"","","plant-game","0","90","942004","0-0","","200","160","2","CORN CROP","Right","200","190","4","THISTLE WEED","experimental","32","1,2,3,4","190,205.1948341368874,235.99384501361882,245.89176640290424","4,3,2,1","THISTLE WEED,THISTLE WEED,THISTLE WEED,THISTLE WEED","160,148.07106860512687,180,209.34357599941012","2,1,2,1","CORN CROP,CORN CROP,WHEAT CROP,WHEAT CROP","0,0,0,0","20,20,20,20","10,10,10,10","20,20,20,20","20,20,20,20","20,20,20,20","0,0,0,0","20,20,20,20","10,10,10,10","20,20,20,20","20,20,20,20","20,20,20,20","0,1,1,1","2119,2471,2002,513","15.194834136887419,30.79901087673141,9.897921389285404,42.18725407443642","-11.928931394873137,45.057808614102875,29.343575999410135,21.404718370363312","0","0"
"223","86","text","0","91","942387","0-0","","","","","","","","","","","","","","","","","","","","","","","","","","","","","","","","","","","","",""
"","","plant-game","0","92","950744","0-0","","200","180","1","CORN CROP","Right","200","180","1","NETTLE WEED","experimental","33","1","180","1","NETTLE WEED","180","1","CORN CROP","0","20","10","20","20","20","0","20","10","20","20","20","1","2580","10.381222515792984","16.359626724450006","0","0"
"637","86","text","0","93","951551","0-0","","","","","","","","","","","","","","","","","","","","","","","","","","","","","","","","","","","","",""
"","","plant-game","0","94","974237","0-0","","200","190","8","WHEAT CROP","Left","200","160","8","NETTLE WEED","experimental","34","1,2,3,4,5,6,7,8","190,207.53592746374682,180.28703424729068,221.56518497138808,223.06873729186344,237.79486078416653,209.4999089949233,244.92706127775685","8,7,6,5,4,3,2,1","WHEAT CROP,WHEAT CROP,WHEAT CROP,WHEAT CROP,WHEAT CROP,WHEAT CROP,WHEAT CROP,WHEAT CROP","160,178.71330428651905,156.8198531983238,152.06135190231592,176.3011602045905,164.00729488521426,152.83168294246835,164.33118431600758","8,7,6,5,4,3,2,1","NETTLE WEED,NETTLE WEED,NETTLE WEED,NETTLE WEED,NETTLE WEED,NETTLE WEED,NETTLE WEED,NETTLE WEED","20,20,20,20,20,20,20,20","20,20,20,20,20,20,20,20","10,10,10,10,10,10,10,10","20,20,20,20,20,20,20,20","0,0,0,0,0,0,0,0","20,20,20,20,20,20,20,20","20,20,20,20,20,20,20,20","20,20,20,20,20,20,20,20","10,10,10,10,10,10,10,10","20,20,20,20,20,20,20,20","0,0,0,0,0,0,0,0","20,20,20,20,20,20,20,20","0,1,0,0,1,1,0,1","4301,2077,837,1525,784,1273,880,2744","17.53592746374681,-27.24889321645614,41.278150724097394,1.5035523204753645,14.726123492303103,-28.294951789243253,35.42715228283356,10.369810331785807","18.713304286519058,-21.89345108819523,-4.7585012960079,24.239808302274575,-12.293865319376225,-11.175611942745912,11.499501373539239,-22.75797995187628","0","0"
"97","86","text","0","95","974488","0-0","","","","","","","","","","","","","","","","","","","","","","","","","","","","","","","","","","","","",""
"","","plant-game","0","96","1003623","0-0","","200","160","8","CORN CROP","Left","200","120","4","THISTLE WEED","experimental","35","1,2,3,4,5,6,7,8","160,174.3313033791105,180.54422184957855,173.77415272683032,197.96820247955148,196.88340768274622,203.24770621821054,215.37557486081434","8,7,6,5,4,3,2,1","CORN CROP,CORN CROP,CORN CROP,CORN CROP,CORN CROP,CORN CROP,CORN CROP,CORN CROP","120,108.77110121442571,111.57333583373732,129.99050932058037,160,156.00487761087854,170.27060405549304,158.89878082356023","4,3,2,1,4,3,2,1","THISTLE WEED,THISTLE WEED,THISTLE WEED,THISTLE WEED,NETTLE WEED,NETTLE WEED,NETTLE WEED,NETTLE WEED","20,20,20,20,20,20,20,20","20,20,20,20,20,20,20,20","10,10,10,10,10,10,10,10","20,20,20,20,20,20,20,20","0,0,0,0,0,0,0,0","20,20,20,20,20,20,20,20","20,20,20,20,20,20,20,20","20,20,20,20,20,20,20,20","10,10,10,10,10,10,10,10","20,20,20,20,20,20,20,20","0,0,0,0,0,0,0,0","20,20,20,20,20,20,20,20","1,0,0,0,1,0,0,1","5222,3721,1080,1190,4277,1003,3264,1514","14.331303379110485,6.212918470468047,-6.7700691227482395,24.194049752721156,-1.0847947968052598,6.364298535464323,12.127868642603808,25.99048644409839","-11.228898785574286,2.8022346193116086,18.417173486843055,23.413927555909204,-3.995122389121464,14.265726444614495,-11.371823231932797,-41.636559924924654","0","0"
"90","86","text","0","97","1003823","0-0","","","","","","","","","","","","","","","","","","","","","","","","","","","","","","","","","","","","",""
"","","plant-game","0","98","1011315","0-0","","200","190","2","WHEAT CROP","Left","200","190","2","NETTLE WEED","experimental","36","1,2","190,207.04841265820738","2,1","WHEAT CROP,WHEAT CROP","190,184.0516928657944","2,1","NETTLE WEED,NETTLE WEED","20,20","20,20","10,10","20,20","0,0","20,20","20,20","20,20","10,10","20,20","0,0","20,20","0,1","2576,1538","17.048412658207386,-6.95663778367525","-5.948307134205606,-24.80702540729113","0","0"
"447","86","text","0","99","1011922","0-0","","","","","","","","","","","","","","","","","","","","","","","","","","","","","","","","","","","","",""
"","","plant-game","0","100","1027035","0-0","","200","190","1","WHEAT CROP","Right","200","120","4","NETTLE WEED","experimental","37","1,2,3,4","120,148.60673945746058,141.28424251600575,168.8311017664064","4,3,2,1","NETTLE WEED,NETTLE WEED,NETTLE WEED,NETTLE WEED","190,170,178.9688204931686,185.2813478319461","1,3,2,1","WHEAT CROP,CORN CROP,CORN CROP,CORN CROP","0,0,0,0","20,20,20,20","10,10,10,10","20,20,20,20","20,20,20,20","20,20,20,20","0,0,0,0","20,20,20,20","10,10,10,10","20,20,20,20","20,20,20,20","20,20,20,20","1,1,1,1","2718,3202,404,412","28.606739457460577,-7.32249694145483,27.54685925040063,13.179751527492524","2.502647892965644,8.968820493168622,6.312527338777494,31.502461558155286","0","0"
"3925","86","text","0","101","1031070","0-0","","","","","","","","","","","","","","","","","","","","","","","","","","","","","","","","","","","","",""
"","","plant-game","0","102","1049723","0-0","","200","160","8","WHEAT CROP","Left","200","120","2","THISTLE WEED","experimental","38","1,2,3,4,5,6,7,8","160,166.87866644902164,191.12281686722656,190.46690110804158,212.91152710617217,226.15217092607296,260.04851900431134,283.4206683041762","8,7,6,5,4,3,2,1","WHEAT CROP,WHEAT CROP,WHEAT CROP,WHEAT CROP,WHEAT CROP,WHEAT CROP,WHEAT CROP,WHEAT CROP","120,109.63345884295266,140,127.40229316420914,151.7279375012095,152.00503556510245,131.48804068258423,156.72894290819866","2,1,6,5,4,3,2,1","THISTLE WEED,THISTLE WEED,NETTLE WEED,NETTLE WEED,NETTLE WEED,NETTLE WEED,NETTLE WEED,NETTLE WEED","20,20,20,20,20,20,20,20","20,20,20,20,20,20,20,20","10,10,10,10,10,10,10,10","20,20,20,20,20,20,20,20","0,0,0,0,0,0,0,0","20,20,20,20,20,20,20,20","20,20,20,20,20,20,20,20","20,20,20,20,20,20,20,20","10,10,10,10,10,10,10,10","20,20,20,20,20,20,20,20","0,0,0,0,0,0,0,0","20,20,20,20,20,20,20,20","0,0,0,0,1,1,0,1","2634,1619,1603,1018,1696,1162,1218,1316","6.878666449021635,24.244150418204924,-0.6559157591849818,22.444625998130583,13.240643819900775,33.896348078238375,23.37214929986487,-2.4635102603599486","-10.366541157047337,32.57440711175839,-12.59770683579086,24.32564433700036,0.2770980638929255,-20.51699488251821,25.240902225614445,-32.195808999306216","0","0"
"82","86","text","0","103","1049885","0-0","","","","","","","","","","","","","","","","","","","","","","","","","","","","","","","","","","","","",""
"","","plant-game","0","104","1074957","0-0","","200","120","2","CORN CROP","Right","200","180","8","THISTLE WEED","experimental","39","1,2,3,4,5,6,7,8","180,223.9451523179568,214.63949585183275,221.38862856282168,212.89944956950933,247.74105815296372,258.46915837759735,262.56841306181525","8,7,6,5,4,3,2,1","THISTLE WEED,THISTLE WEED,THISTLE WEED,THISTLE WEED,THISTLE WEED,THISTLE WEED,THISTLE WEED,THISTLE WEED","120,84.19308916468643,140,158.48762866375083,184.3803823962424,228.76778848751536,253.33530047006235,245.266291929237","2,1,6,5,4,3,2,1","CORN CROP,CORN CROP,WHEAT CROP,WHEAT CROP,WHEAT CROP,WHEAT CROP,WHEAT CROP,WHEAT CROP","0,0,0,0,0,0,0,0","20,20,20,20,20,20,20,20","10,10,10,10,10,10,10,10","20,20,20,20,20,20,20,20","20,20,20,20,20,20,20,20","20,20,20,20,20,20,20,20","0,0,0,0,0,0,0,0","20,20,20,20,20,20,20,20","10,10,10,10,10,10,10,10","20,20,20,20,20,20,20,20","20,20,20,20,20,20,20,20","20,20,20,20,20,20,20,20","0,0,0,0,1,0,0,0","3975,1841,3645,3026,1615,1693,1901,959","43.94515231795679,-9.305656466124047,6.749132710988918,-8.489178993312358,34.84160858345439,10.728100224633648,4.099254684217902,-1.8450776413616556","-35.80691083531358,15.406322246720967,18.48762866375082,25.892753732491585,44.38740609127295,24.567511982546996,-8.06900854082533,36.97819178263795","0","0"
"79","86","text","0","105","1075126","0-0","","","","","","","","","","","","","","","","","","","","","","","","","","","","","","","","","","","","",""
"","","plant-game","0","106","1094292","0-0","","200","180","4","WHEAT CROP","Left","200","180","1","THISTLE WEED","experimental","40","1,2,3,4","180,148.3938349955647,180.26796176359665,203.87476504354464","4,3,2,1","WHEAT CROP,WHEAT CROP,WHEAT CROP,WHEAT CROP","180,170,240.14290323178705,246.2291922245699","1,3,2,1","THISTLE WEED,NETTLE WEED,NETTLE WEED,NETTLE WEED","20,20,20,20","20,20,20,20","10,10,10,10","20,20,20,20","0,0,0,0","20,20,20,20","20,20,20,20","20,20,20,20","10,10,10,10","20,20,20,20","0,0,0,0","20,20,20,20","1,0,1,0","6348,4135,1272,1508","-31.606165004435283,31.874126768031953,23.606803279948004,-9.6868022624991","-1.7569683776960787,70.14290323178705,6.086288992782873,6.5269077210733695","0","0"
"699","86","text","0","107","1095101","0-0","","","","","","","","","","","","","","","","","","","","","","","","","","","","","","","","","","","","",""
"","","plant-game","0","108","1112846","0-0","","200","120","8","WHEAT CROP","Left","200","180","8","NETTLE WEED","experimental","41","1,2,3,4,5,6,7,8","120,103.006382478648,87.08965318695172,120.33380402674045,102.6438027247119,79.32930994177423,94.63327669271101,77.21023565381894","8,7,6,5,4,3,2,1","WHEAT CROP,WHEAT CROP,WHEAT CROP,WHEAT CROP,WHEAT CROP,WHEAT CROP,WHEAT CROP,WHEAT CROP","180,164.45470804187863,147.45821308172523,177.43653408500086,187.83096622599027,171.98688755345532,185.4423185797932,236.97097889774162","8,7,6,5,4,3,2,1","NETTLE WEED,NETTLE WEED,NETTLE WEED,NETTLE WEED,NETTLE WEED,NETTLE WEED,NETTLE WEED,NETTLE WEED","20,20,20,20,20,20,20,20","20,20,20,20,20,20,20,20","10,10,10,10,10,10,10,10","20,20,20,20,20,20,20,20","0,0,0,0,0,0,0,0","20,20,20,20,20,20,20,20","20,20,20,20,20,20,20,20","20,20,20,20,20,20,20,20","10,10,10,10,10,10,10,10","20,20,20,20,20,20,20,20","0,0,0,0,0,0,0,0","20,20,20,20,20,20,20,20","1,1,0,1,1,1,1,1","2708,1422,1089,885,1385,1708,1077,1295","-16.993617521351997,-15.916729291696283,33.24415083978873,-17.690001302028552,-23.314492782937684,15.303966750936784,-17.423041038892066,-43.775870644293455","-15.545291958121378,-16.996494960153395,29.978321003275628,10.394432140989412,-15.844078672534943,13.455431026337903,51.52866031794841,15.94588526401649","0","0"
"323","86","text","0","109","1113289","0-0","","","","","","","","","","","","","","","","","","","","","","","","","","","","","","","","","","","","",""
"","","plant-game","0","110","1128826","0-0","","200","160","4","CORN CROP","Right","200","160","2","THISTLE WEED","experimental","42","1,2,3,4","160,154.07732996395407,180,198.82762513877734","2,1,2,1","THISTLE WEED,THISTLE WEED,NETTLE WEED,NETTLE WEED","160,225.99883505226646,207.5289194092102,245.20952081340084","4,3,2,1","CORN CROP,CORN CROP,CORN CROP,CORN CROP","0,0,0,0","20,20,20,20","10,10,10,10","20,20,20,20","20,20,20,20","20,20,20,20","0,0,0,0","20,20,20,20","10,10,10,10","20,20,20,20","20,20,20,20","20,20,20,20","1,0,0,0","3306,2464,3027,1769","-5.922670036045933,-10.424183368488018,18.827625138777336,-7.361254810024067","65.99883505226646,-18.469915643056247,37.68060140419064,2.188856111540152","0","0"
"73","86","text","0","111","1128989","0-0","","","","","","","","","","","","","","","","","","","","","","","","","","","","","","","","","","","","",""
"","","plant-game","0","112","1135983","0-0","","200","190","2","WHEAT CROP","Left","200","120","2","THISTLE WEED","experimental","43","1,2","190,196.52696297579206","2,1","WHEAT CROP,WHEAT CROP","120,112.55737584238472","2,1","THISTLE WEED,THISTLE WEED","20,20","20,20","10,10","20,20","0,0","20,20","20,20","20,20","10,10","20,20","0,0","20,20","0,0","2944,1102","6.526962975792065,-11.083475186803412","-7.442624157615278,11.796870096858106","0","0"
"480","86","text","0","113","1136541","0-0","","","","","","","","","","","","","","","","","","","","","","","","","","","","","","","","","","","","",""
"","","plant-game","0","114","1155462","0-0","","200","180","2","CORN CROP","Left","200","180","8","THISTLE WEED","experimental","44","1,2,3,4,5,6,7,8","180,201.0260505777093,140,114.54480141413646,131.8656725791327,148.4989611047443,188.03626237419527,185.37983557465643","2,1,6,5,4,3,2,1","CORN CROP,CORN CROP,WHEAT CROP,WHEAT CROP,WHEAT CROP,WHEAT CROP,WHEAT CROP,WHEAT CROP","180,247.99760354921673,278.18209624428704,287.57071008309566,312.2772172100047,339.3530909991187,310.50706761475976,341.676423575829","8,7,6,5,4,3,2,1","THISTLE WEED,THISTLE WEED,THISTLE WEED,THISTLE WEED,THISTLE WEED,THISTLE WEED,THISTLE WEED,THISTLE WEED","20,20,20,20,20,20,20,20","20,20,20,20,20,20,20,20","10,10,10,10,10,10,10,10","20,20,20,20,20,20,20,20","0,0,0,0,0,0,0,0","20,20,20,20,20,20,20,20","20,20,20,20,20,20,20,20","20,20,20,20,20,20,20,20","10,10,10,10,10,10,10,10","20,20,20,20,20,20,20,20","0,0,0,0,0,0,0,0","20,20,20,20,20,20,20,20","0,0,1,0,0,0,0,0","2751,667,2003,3847,318,84,79,85","21.0260505777093,11.237359734970573,-25.455198585863535,17.32087116499625,16.633288525611604,39.537301269450985,-2.6564267995388526,21.3900521961603","67.99760354921673,30.18449269507032,9.388613838808636,24.706507126909038,27.075873789114,-28.846023384358958,31.16935596106923,15.736269716261589","0","0"
"87","86","text","0","115","1155679","0-0","","","","","","","","","","","","","","","","","","","","","","","","","","","","","","","","","","","","",""
"","","plant-game","0","116","1168056","0-0","","200","190","2","WHEAT CROP","Right","200","120","1","NETTLE WEED","experimental","45","1,2","120,190","1,1","NETTLE WEED,THISTLE WEED","190,214.14950604549392","2,1","WHEAT CROP,WHEAT CROP","0,0","20,20","10,10","20,20","20,20","20,20","0,0","20,20","10,10","20,20","20,20","20,20","1,0","4597,2563","19.928303546535716,-10.367320637391522","24.149506045493933,-6.544296781440906","0","0"
"61","86","text","0","117","1168227","0-0","","","","","","","","","","","","","","","","","","","","","","","","","","","","","","","","","","","","",""
"","","plant-game","0","118","1179572","0-0","","200","160","1","CORN CROP","Left","200","180","2","NETTLE WEED","experimental","46","1,2","160,190","1,1","CORN CROP,WHEAT CROP","180,134.64482216157143","2,1","NETTLE WEED,NETTLE WEED","20,20","20,20","10,10","20,20","0,0","20,20","20,20","20,20","10,10","20,20","0,0","20,20","1,0","3836,1405","2.4652402560631836,32.42181585347421","-45.35517783842856,12.968756862135013","0","0"
"74","86","text","0","119","1179736","0-0","","","","","","","","","","","","","","","","","","","","","","","","","","","","","","","","","","","","",""
"","","plant-game","0","120","1194953","0-0","","200","190","4","WHEAT CROP","Left","200","190","2","NETTLE WEED","experimental","47","1,2,3,4","190,182.96753381406606,205.9257653791238,256.3603952982835","4,3,2,1","WHEAT CROP,WHEAT CROP,WHEAT CROP,WHEAT CROP","190,188.7973793897128,180,206.27523464330483","2,1,2,1","NETTLE WEED,NETTLE WEED,THISTLE WEED,THISTLE WEED","20,20,20,20","20,20,20,20","10,10,10,10","20,20,20,20","0,0,0,0","20,20,20,20","20,20,20,20","20,20,20,20","10,10,10,10","20,20,20,20","0,0,0,0","20,20,20,20","1,1,0,1","4167,781,2707,1182","-7.03246618593394,22.958231565057737,50.434629919159704,-20.2617057300507","-1.2026206102871937,-7.766513743147253,26.275234643304827,-8.731185037469025","0","0"
"82","86","text","0","121","1195135","0-0","","","","","","","","","","","","","","","","","","","","","","","","","","","","","","","","","","","","",""
"","","plant-game","0","122","1208077","0-0","","200","160","4","WHEAT CROP","Left","200","120","4","NETTLE WEED","experimental","48","1,2,3,4","160,173.36742980612533,223.56272920596018,244.02010127498153","4,3,2,1","WHEAT CROP,WHEAT CROP,WHEAT CROP,WHEAT CROP","120,161.8144887842882,151.8601880355889,158.64216722382554","4,3,2,1","NETTLE WEED,NETTLE WEED,NETTLE WEED,NETTLE WEED","20,20,20,20","20,20,20,20","10,10,10,10","20,20,20,20","0,0,0,0","20,20,20,20","20,20,20,20","20,20,20,20","10,10,10,10","20,20,20,20","0,0,0,0","20,20,20,20","0,0,0,1","4133,2619,2399,667","13.367429806125338,50.195299399834866,20.457372069021332,30.532556831145634","41.814488784288194,-9.95430074869929,6.781979188236637,8.350241545326954","0","0"
"67","86","text","0","123","1208254","0-0","","","","","","","","","","","","","","","","","","","","","","","","","","","","","","","","","","","","",""
"","","plant-game","0","124","1214859","0-0","","200","160","1","CORN CROP","Right","200","120","1","NETTLE WEED","experimental","49","1","120","1","NETTLE WEED","160","1","CORN CROP","0","20","10","20","20","20","0","20","10","20","20","20","1","3486","-28.369207483971465","33.88999949877483","0","0"
"74","86","text","0","125","1215023","0-0","","","","","","","","","","","","","","","","","","","","","","","","","","","","","","","","","","","","",""
"","","plant-game","0","126","1224536","0-0","","200","160","1","CORN CROP","Right","200","120","2","THISTLE WEED","experimental","50","1,2","120,155.4766377987578","2,1","THISTLE WEED,THISTLE WEED","160,190","1,1","CORN CROP,WHEAT CROP","0,0","20,20","10,10","20,20","20,20","20,20","0,0","20,20","10,10","20,20","20,20","20,20","1,1","2046,2268","35.47663779875779,6.118378313650858","32.183243560964975,24.214918250029633","0","0"
"184","86","text","0","127","1224870","0-0","","","","","","","","","","","","","","","","","","","","","","","","","","","","","","","","","","","","",""
"","","plant-game","0","128","1247071","0-0","","200","120","1","WHEAT CROP","Right","200","120","8","THISTLE WEED","experimental","51","1,2,3,4,5,6,7,8","120,95.12457443943858,89.41477787919645,100.30314046299259,141.91972779266814,154.29539998453052,207.73671242706598,205.06008239748544","8,7,6,5,4,3,2,1","THISTLE WEED,THISTLE WEED,THISTLE WEED,THISTLE WEED,THISTLE WEED,THISTLE WEED,THISTLE WEED,THISTLE WEED","120,130,95.4611272336038,124.34101445438935,157.84826927441554,202.5998181416484,195.69725235066926,254.12980342611863","1,7,6,5,4,3,2,1","WHEAT CROP,CORN CROP,CORN CROP,CORN CROP,CORN CROP,CORN CROP,CORN CROP,CORN CROP","0,0,0,0,0,0,0,0","20,20,20,20,20,20,20,20","10,10,10,10,10,10,10,10","20,20,20,20,20,20,20,20","20,20,20,20,20,20,20,20","20,20,20,20,20,20,20,20","0,0,0,0,0,0,0,0","20,20,20,20,20,20,20,20","10,10,10,10,10,10,10,10","20,20,20,20,20,20,20,20","20,20,20,20,20,20,20,20","20,20,20,20,20,20,20,20","0,1,1,1,1,1,1,0","4903,2926,2715,1209,630,1290,988,814","-24.87542556056143,-5.7097965602421255,10.888362583796141,41.61658732967555,12.375672191862389,53.44131244253547,-2.67663002958054,6.136797956252783","15.189081435814991,-34.53887276639619,28.87988722078554,33.50725482002618,44.751548867232856,-6.902565790979153,58.43255107544936,7.828707347584886","0","0"
"130","86","text","0","129","1247335","0-0","","","","","","","","","","","","","","","","","","","","","","","","","","","","","","","","","","","","",""
"","","plant-game","0","130","1264126","0-0","","200","190","1","CORN CROP","Right","200","160","8","NETTLE WEED","experimental","52","1,2,3,4,5,6,7,8","160,178.05398510955595,176.25606920378425,149.5854057799956,228.94841333622603,233.38020767480833,254.79574436232684,296.70417022446435","8,7,6,5,4,3,2,1","NETTLE WEED,NETTLE WEED,NETTLE WEED,NETTLE WEED,NETTLE WEED,NETTLE WEED,NETTLE WEED,NETTLE WEED","190,130,123.80360630154195,143.33087828813393,173.75444881366866,176.10871622976086,179.401394492695,195.68103780048764","1,7,6,5,4,3,2,1","CORN CROP,WHEAT CROP,WHEAT CROP,WHEAT CROP,WHEAT CROP,WHEAT CROP,WHEAT CROP,WHEAT CROP","0,0,0,0,0,0,0,0","20,20,20,20,20,20,20,20","10,10,10,10,10,10,10,10","20,20,20,20,20,20,20,20","20,20,20,20,20,20,20,20","20,20,20,20,20,20,20,20","0,0,0,0,0,0,0,0","20,20,20,20,20,20,20,20","10,10,10,10,10,10,10,10","20,20,20,20,20,20,20,20","20,20,20,20,20,20,20,20","20,20,20,20,20,20,20,20","1,0,0,1,0,1,1,1","2668,2515,852,1307,1611,1216,76,52","18.05398510955595,-1.7979159057716887,-26.670663423788646,79.36300755623043,4.431794338582321,21.415536687518525,41.908425862137506,33.54949961660182","1.6125317644676116,-6.196393698458046,19.527271986591987,30.423570525534714,2.354267416092209,3.2926782629341425,16.279643307792647,18.59104235120431","0","0"
"674","86","text","0","131","1264950","0-0","","","","","","","","","","","","","","","","","","","","","","","","","","","","","","","","","","","","",""
"","","plant-game","0","132","1285880","0-0","","200","120","8","CORN CROP","Left","200","120","2","NETTLE WEED","experimental","53","1,2,3,4,5,6,7,8","120,105.78017346712274,70.3657966601329,78.38203160352387,106.10624267808288,134.3320558130094,155.4076308743648,147.07911165551263","8,7,6,5,4,3,2,1","CORN CROP,CORN CROP,CORN CROP,CORN CROP,CORN CROP,CORN CROP,CORN CROP,CORN CROP","120,174.00682017647654,140,165.52900509761662,180.78367897430746,170.67177992782692,177.15866652814293,191.52794101413895","2,1,6,5,4,3,2,1","NETTLE WEED,NETTLE WEED,THISTLE WEED,THISTLE WEED,THISTLE WEED,THISTLE WEED,THISTLE WEED,THISTLE WEED","20,20,20,20,20,20,20,20","20,20,20,20,20,20,20,20","10,10,10,10,10,10,10,10","20,20,20,20,20,20,20,20","0,0,0,0,0,0,0,0","20,20,20,20,20,20,20,20","20,20,20,20,20,20,20,20","20,20,20,20,20,20,20,20","10,10,10,10,10,10,10,10","20,20,20,20,20,20,20,20","0,0,0,0,0,0,0,0","20,20,20,20,20,20,20,20","1,1,0,0,1,0,1,1","2048,5399,1085,1058,595,957,779,2037","-14.219826532877264,-35.414376806989836,8.01623494339097,27.724211074559005,28.22581313492652,21.075575061355398,-8.328519218852167,30.349552908760813","54.00682017647653,14.94463909174334,25.529005097616626,15.254673876690841,-10.111899046480548,6.486886600316025,14.369274485996018,-7.245644881762496","0","0"
"702","86","text","0","133","1286738","0-0","","","","","","","","","","","","","","","","","","","","","","","","","","","","","","","","","","","","",""
"","","plant-game","0","134","1304132","0-0","","200","160","4","CORN CROP","Right","200","160","1","NETTLE WEED","experimental","54","1,2,3,4","160,170,194.9910336303894,227.02741974641228","1,3,2,1","NETTLE WEED,THISTLE WEED,THISTLE WEED,THISTLE WEED","160,176.32070201901263,163.71078302922848,212.15763925715288","4,3,2,1","CORN CROP,CORN CROP,CORN CROP,CORN CROP","0,0,0,0","20,20,20,20","10,10,10,10","20,20,20,20","20,20,20,20","20,20,20,20","0,0,0,0","20,20,20,20","10,10,10,10","20,20,20,20","20,20,20,20","20,20,20,20","1,0,1,0","3566,3180,1861,2056","15.756777053110634,24.991033630389413,32.036386116022875,23.60371471971599","16.320702019012625,-12.609918989784163,48.446856227924414,5.985130151092211","0","0"
"89","86","text","0","135","1304321","0-0","","","","","","","","","","","","","","","","","","","","","","","","","","","","","","","","","","","","",""
"","","plant-game","0","136","1321475","0-0","","200","120","2","CORN CROP","Right","200","180","4","THISTLE WEED","experimental","55","1,2,3,4","180,224.35655795910878,185.07485978238242,222.6868143548709","4,3,2,1","THISTLE WEED,THISTLE WEED,THISTLE WEED,THISTLE WEED","120,112.92095718666842,180,173.60290448991282","2,1,2,1","CORN CROP,CORN CROP,WHEAT CROP,WHEAT CROP","0,0,0,0","20,20,20,20","10,10,10,10","20,20,20,20","20,20,20,20","20,20,20,20","0,0,0,0","20,20,20,20","10,10,10,10","20,20,20,20","20,20,20,20","20,20,20,20","1,0,1,1","2258,4501,2017,2496","44.356557959108784,-39.28169817672635,37.61195457248848,22.449568268919485","-7.079042813331586,38.45820621897793,-6.397095510087183,10.242638029774861","0","0"
"608","86","text","0","137","1322213","0-0","","","","","","","","","","","","","","","","","","","","","","","","","","","","","","","","","","","","",""
"","","plant-game","0","138","1342732","0-0","","200","190","8","CORN CROP","Left","200","190","4","NETTLE WEED","experimental","56","1,2,3,4,5,6,7,8","190,195.5916595358741,209.06849205079544,226.76088327809288,236.41568577667803,220.41845334312407,270.6858687842071,319.29134009932545","8,7,6,5,4,3,2,1","CORN CROP,CORN CROP,CORN CROP,CORN CROP,CORN CROP,CORN CROP,CORN CROP,CORN CROP","190,204.4561918675048,206.3134323529618,174.09418310951014,160,139.90214337102856,136.42363713305946,148.12798775066113","4,3,2,1,4,3,2,1","NETTLE WEED,NETTLE WEED,NETTLE WEED,NETTLE WEED,THISTLE WEED,THISTLE WEED,THISTLE WEED,THISTLE WEED","20,20,20,20,20,20,20,20","20,20,20,20,20,20,20,20","10,10,10,10,10,10,10,10","20,20,20,20,20,20,20,20","0,0,0,0,0,0,0,0","20,20,20,20,20,20,20,20","20,20,20,20,20,20,20,20","20,20,20,20,20,20,20,20","10,10,10,10,10,10,10,10","20,20,20,20,20,20,20,20","0,0,0,0,0,0,0,0","20,20,20,20,20,20,20,20","1,1,1,1,1,0,0,1","3148,656,783,2239,3587,743,1659,1489","5.591659535874104,13.476832514921327,17.69239122729742,9.654802498585163,-15.997232433553968,50.26741544108307,48.605471315118336,-30.99487917114287","14.456191867504792,1.8572404854570097,-32.21924924345167,-0.5956541377885901,-20.097856628971435,-3.478506237969114,11.704350617601673,0.38878924500296175","0","0"
"63","86","text","0","139","1342915","0-0","","","","","","","","","","","","","","","","","","","","","","","","","","","","","","","","","","","","",""
"","","plant-game","0","140","1362208","0-0","","200","190","8","CORN CROP","Right","200","160","1","THISTLE WEED","experimental","57","1,2,3,4,5,6,7,8","160,130,115.90593558272664,121.54676024989696,114.35265961088847,148.28027393103207,163.90100577258863,188.82326409083225","1,7,6,5,4,3,2,1","THISTLE WEED,NETTLE WEED,NETTLE WEED,NETTLE WEED,NETTLE WEED,NETTLE WEED,NETTLE WEED,NETTLE WEED","190,218.9071548507322,250.5436581581278,255.17375860602525,267.2854510004811,250.0144741465428,269.2032204735317,278.34814383635285","8,7,6,5,4,3,2,1","CORN CROP,CORN CROP,CORN CROP,CORN CROP,CORN CROP,CORN CROP,CORN CROP,CORN CROP","0,0,0,0,0,0,0,0","20,20,20,20,20,20,20,20","10,10,10,10,10,10,10,10","20,20,20,20,20,20,20,20","20,20,20,20,20,20,20,20","20,20,20,20,20,20,20,20","0,0,0,0,0,0,0,0","20,20,20,20,20,20,20,20","10,10,10,10,10,10,10,10","20,20,20,20,20,20,20,20","20,20,20,20,20,20,20,20","20,20,20,20,20,20,20,20","0,1,1,0,0,1,0,0","4557,1774,1393,726,1090,646,1636,1040","-8.968716622286871,-14.094064417273358,5.640824667170325,-7.194100639008493,33.927614320143604,15.620731841556553,24.922258318243628,29.44029461625147","28.907154850732212,31.636503307395603,4.630100447897425,12.111692394455849,-17.270976853938283,19.188746326988916,9.144923362821128,27.43022872707597","0","0"
"75","86","text","0","141","1362383","0-0","","","","","","","","","","","","","","","","","","","","","","","","","","","","","","","","","","","","",""
"","","plant-game","0","142","1369861","0-0","","200","160","2","CORN CROP","Right","200","180","2","THISTLE WEED","experimental","58","1,2","180,203.533541750508","2,1","THISTLE WEED,THISTLE WEED","160,151.02806182103086","2,1","CORN CROP,CORN CROP","0,0","20,20","10,10","20,20","20,20","20,20","0,0","20,20","10,10","20,20","20,20","20,20","1,1","3195,579","23.53354175050798,1.3269829146019525","-8.97193817896914,2.8032159310328026","0","0"
"583","86","text","0","143","1370587","0-0","","","","","","","","","","","","","","","","","","","","","","","","","","","","","","","","","","","","",""
"","","plant-game","0","144","1375875","0-0","","200","180","2","CORN CROP","Right","200","160","2","THISTLE WEED","experimental","59","1,2","160,174.12986613478088","2,1","THISTLE WEED,THISTLE WEED","180,202.08704031465783","2,1","CORN CROP,CORN CROP","0,0","20,20","10,10","20,20","20,20","20,20","0,0","20,20","10,10","20,20","20,20","20,20","1,1","2148,108","14.129866134780887,22.232051778526742","22.087040314657813,42.928238038640814","0","0"
"244","86","text","0","145","1376269","0-0","","","","","","","","","","","","","","","","","","","","","","","","","","","","","","","","","","","","",""
"","","plant-game","0","146","1388796","0-0","","200","180","8","CORN CROP","Left","200","120","8","THISTLE WEED","experimental","60","1,2,3,4,5,6,7,8","180,170.91592473790013,174.6775260892335,182.62344746317063,172.82050956813555,209.64237667360032,203.64720377641936,268.0857865579942","8,7,6,5,4,3,2,1","CORN CROP,CORN CROP,CORN CROP,CORN CROP,CORN CROP,CORN CROP,CORN CROP,CORN CROP","120,81.88814049626205,98.95421691775024,49.246762448825294,90.47821092084749,92.26793400724057,138.39477879110615,145.0117436886672","8,7,6,5,4,3,2,1","THISTLE WEED,THISTLE WEED,THISTLE WEED,THISTLE WEED,THISTLE WEED,THISTLE WEED,THISTLE WEED,THISTLE WEED","20,20,20,20,20,20,20,20","20,20,20,20,20,20,20,20","10,10,10,10,10,10,10,10","20,20,20,20,20,20,20,20","0,0,0,0,0,0,0,0","20,20,20,20,20,20,20,20","20,20,20,20,20,20,20,20","20,20,20,20,20,20,20,20","10,10,10,10,10,10,10,10","20,20,20,20,20,20,20,20","0,0,0,0,0,0,0,0","20,20,20,20,20,20,20,20","1,1,1,0,0,0,0,0","2131,755,695,1590,609,841,916,1323","-9.08407526209986,3.761601351333392,7.945921373937126,-9.802937895035086,36.82186710546479,-5.995172897180954,64.43858278157487,19.555761312204215","-38.11185950373794,17.06607642148819,-49.70745446892495,41.2314484720222,1.789723086393078,46.12684478386557,6.616964897561035,-4.625195173292596","0","0"
"80","86","text","0","147","1388956","0-0","","","","","","","","","","","","","","","","","","","","","","","","","","","","","","","","","","","","",""
"","","plant-game","0","148","1395081","0-0","","200","160","1","WHEAT CROP","Right","200","160","1","THISTLE WEED","experimental","61","1","160","1","THISTLE WEED","160","1","WHEAT CROP","0","20","10","20","20","20","0","20","10","20","20","20","1","2997","1.8886421670827787","14.339890002262095","0","0"
"134","86","text","0","149","1395325","0-0","","","","","","","","","","","","","","","","","","","","","","","","","","","","","","","","","","","","",""
"","","plant-game","0","150","1403550","0-0","","200","120","2","CORN CROP","Left","200","190","2","THISTLE WEED","experimental","62","1,2","120,109.27280432650808","2,1","CORN CROP,CORN CROP","190,194.95019891766145","2,1","THISTLE WEED,THISTLE WEED","20,20","20,20","10,10","20,20","0,0","20,20","20,20","20,20","10,10","20,20","0,0","20,20","1,1","2239,3150","-10.727195673491925,-2.8503707155733626","4.95019891766146,5.487240649491502","0","0"
"557","86","text","0","151","1404258","0-0","","","","","","","","","","","","","","","","","","","","","","","","","","","","","","","","","","","","",""
"","","plant-game","0","152","1421415","0-0","","200","160","8","WHEAT CROP","Left","200","190","2","NETTLE WEED","experimental","63","1,2,3,4,5,6,7,8","160,160.53741724225844,156.67305487723965,218.50582074426825,252.30798865278607,265.2125240360587,305.15571357409806,253.17223100027343","8,7,6,5,4,3,2,1","WHEAT CROP,WHEAT CROP,WHEAT CROP,WHEAT CROP,WHEAT CROP,WHEAT CROP,WHEAT CROP,WHEAT CROP","190,175.69161908724152,140,170.2547809873584,157.1943762054086,125.58339888761154,140.60800434670983,177.0549702512434","2,1,6,5,4,3,2,1","NETTLE WEED,NETTLE WEED,THISTLE WEED,THISTLE WEED,THISTLE WEED,THISTLE WEED,THISTLE WEED,THISTLE WEED","20,20,20,20,20,20,20,20","20,20,20,20,20,20,20,20","10,10,10,10,10,10,10,10","20,20,20,20,20,20,20,20","0,0,0,0,0,0,0,0","20,20,20,20,20,20,20,20","20,20,20,20,20,20,20,20","20,20,20,20,20,20,20,20","10,10,10,10,10,10,10,10","20,20,20,20,20,20,20,20","0,0,0,0,0,0,0,0","20,20,20,20,20,20,20,20","1,1,0,0,1,1,1,1","1595,2408,2041,1325,874,1348,1325,593","0.537417242258448,-3.86436236501879,61.83276586702861,33.80216790851782,12.904535383272629,39.943189538039356,-51.98348257382463,-18.78414439243652","-14.308380912758478,17.453487739483894,30.25478098735841,-13.060404781949813,-31.610977317797047,15.024605459098282,36.44696590453354,15.823112997533075","0","0"
"84","86","text","0","153","1421599","0-0","","","","","","","","","","","","","","","","","","","","","","","","","","","","","","","","","","","","",""
"","","plant-game","0","154","1442939","0-0","","200","160","8","WHEAT CROP","Left","200","190","8","THISTLE WEED","experimental","64","1,2,3,4,5,6,7,8","160,174.84133780220412,154.6672835427095,184.58610534182537,224.4054383559108,212.81103824725844,235.44983351624145,274.4487041459118","8,7,6,5,4,3,2,1","WHEAT CROP,WHEAT CROP,WHEAT CROP,WHEAT CROP,WHEAT CROP,WHEAT CROP,WHEAT CROP,WHEAT CROP","190,188.96453479389046,174.153779011515,161.74939100653205,190.51653570474178,189.25072649690486,182.8402759147479,212.1272649855929","8,7,6,5,4,3,2,1","THISTLE WEED,THISTLE WEED,THISTLE WEED,THISTLE WEED,THISTLE WEED,THISTLE WEED,THISTLE WEED,THISTLE WEED","20,20,20,20,20,20,20,20","20,20,20,20,20,20,20,20","10,10,10,10,10,10,10,10","20,20,20,20,20,20,20,20","0,0,0,0,0,0,0,0","20,20,20,20,20,20,20,20","20,20,20,20,20,20,20,20","20,20,20,20,20,20,20,20","10,10,10,10,10,10,10,10","20,20,20,20,20,20,20,20","0,0,0,0,0,0,0,0","20,20,20,20,20,20,20,20","1,1,0,0,1,0,1,1","5419,5858,839,1197,846,981,706,1256","14.841337802204126,-20.17405425949463,29.918821799115875,39.819333014085444,-11.59440010865236,22.63879526898301,38.998870629670336,2.0464356480503767","-1.0354652061095218,-14.810755782375463,-12.404388004982977,28.767144698209748,-1.2658092078369254,-6.410450582156958,29.286989070844974,-0.857641606089788","0","0"
"70","86","text","0","155","1443106","0-0","","","","","","","","","","","","","","","","","","","","","","","","","","","","","","","","","","","","",""
"","","plant-game","0","156","1458415","0-0","","200","190","8","WHEAT CROP","Left","200","190","2","NETTLE WEED","experimental","65","1,2,3,4,5,6,7,8","190,185.65051359737612,165.80178459935186,186.1563363984283,186.0609029966274,146.76486719872588,141.30179922740732,146.5810470000061","8,7,6,5,4,3,2,1","WHEAT CROP,WHEAT CROP,WHEAT CROP,WHEAT CROP,WHEAT CROP,WHEAT CROP,WHEAT CROP,WHEAT CROP","190,176.98985801497528,140,168.11473801051264,188.45279573868484,178.2503132233835,222.5050892472149,222.9911006210902","2,1,6,5,4,3,2,1","NETTLE WEED,NETTLE WEED,THISTLE WEED,THISTLE WEED,THISTLE WEED,THISTLE WEED,THISTLE WEED,THISTLE WEED","20,20,20,20,20,20,20,20","20,20,20,20,20,20,20,20","10,10,10,10,10,10,10,10","20,20,20,20,20,20,20,20","0,0,0,0,0,0,0,0","20,20,20,20,20,20,20,20","20,20,20,20,20,20,20,20","20,20,20,20,20,20,20,20","10,10,10,10,10,10,10,10","20,20,20,20,20,20,20,20","0,0,0,0,0,0,0,0","20,20,20,20,20,20,20,20","0,1,0,0,1,0,1,1","2566,1541,1689,471,1114,687,1372,462","-4.349486402623871,-19.84872899802426,20.354551799076436,-0.09543340180090354,-39.296035797901524,-5.463067971318566,5.279247772598792,-26.16234802990897","-13.01014198502471,-14.143426716175963,28.11473801051264,20.33805772817221,-10.202482515301341,44.2547760238314,0.4860113738752858,4.622861452369297","0","0"
"94","86","text","0","157","1458573","0-0","","","","","","","","","","","","","","","","","","","","","","","","","","","","","","","","","","","","",""
"","","plant-game","0","158","1470663","0-0","","200","190","4","WHEAT CROP","Right","200","180","1","THISTLE WEED","experimental","66","1,2,3,4","180,170,207.23521116239402,213.29927835446117","1,3,2,1","THISTLE WEED,NETTLE WEED,NETTLE WEED,NETTLE WEED","190,201.1374462648224,242.55378354734017,215.4272264173718","4,3,2,1","WHEAT CROP,WHEAT CROP,WHEAT CROP,WHEAT CROP","0,0,0,0","20,20,20,20","10,10,10,10","20,20,20,20","20,20,20,20","20,20,20,20","0,0,0,0","20,20,20,20","10,10,10,10","20,20,20,20","20,20,20,20","20,20,20,20","1,1,0,0","3215,2948,1052,602","-2.99780634707097,37.23521116239404,6.064067192067136,2.600767235827339","11.137446264822392,41.41633728251778,-27.12655712996839,-11.688332793351048","0","0"
"71","86","text","0","159","1470838","0-0","","","","","","","","","","","","","","","","","","","","","","","","","","","","","","","","","","","","",""
"","","plant-game","0","160","1487066","0-0","","200","190","1","WHEAT CROP","Left","200","190","8","NETTLE WEED","experimental","67","1,2,3,4,5,6,7,8","190,130,94.78627072256347,124.4394598723344,143.74050447545744,165.4768187173575,161.10728084336787,206.72572505530624","1,7,6,5,4,3,2,1","WHEAT CROP,CORN CROP,CORN CROP,CORN CROP,CORN CROP,CORN CROP,CORN CROP,CORN CROP","190,211.59463979260263,236.8048958950876,249.7419661669217,271.56901015345096,260.6822784682656,282.20431250905557,328.17659144810625","8,7,6,5,4,3,2,1","NETTLE WEED,NETTLE WEED,NETTLE WEED,NETTLE WEED,NETTLE WEED,NETTLE WEED,NETTLE WEED,NETTLE WEED","20,20,20,20,20,20,20,20","20,20,20,20,20,20,20,20","10,10,10,10,10,10,10,10","20,20,20,20,20,20,20,20","0,0,0,0,0,0,0,0","20,20,20,20,20,20,20,20","20,20,20,20,20,20,20,20","20,20,20,20,20,20,20,20","10,10,10,10,10,10,10,10","20,20,20,20,20,20,20,20","0,0,0,0,0,0,0,0","20,20,20,20,20,20,20,20","0,1,0,0,0,0,0,0","3086,1705,4748,83,86,71,85,74","28.613595506922998,-35.21372927743652,29.653189149770924,19.301044603123042,21.73631424190007,-4.369537873989632,45.61844421193837,30.630822465758783","21.594639792602628,25.210256102484973,12.937070271834092,21.827043986529237,-10.886731685185357,21.52203404078997,45.97227893905071,35.622263738758235","0","0"
"98","86","text","0","161","1487244","0-0","","","","","","","","","","","","","","","","","","","","","","","","","","","","","","","","","","","","",""
"","","plant-game","0","162","1503983","0-0","","200","120","2","WHEAT CROP","Right","200","190","8","NETTLE WEED","experimental","68","1,2,3,4,5,6,7,8","190,201.85899574441805,238.09140698935266,244.10741622172986,249.4318759136738,260.8309759431943,243.66626018616492,224.9912567241157","8,7,6,5,4,3,2,1","NETTLE WEED,NETTLE WEED,NETTLE WEED,NETTLE WEED,NETTLE WEED,NETTLE WEED,NETTLE WEED,NETTLE WEED","120,141.49306283532957,140,133.82788739688564,165.49688587132115,205.09510716736952,234.73545670877058,275.32834354751196","2,1,6,5,4,3,2,1","WHEAT CROP,WHEAT CROP,CORN CROP,CORN CROP,CORN CROP,CORN CROP,CORN CROP,CORN CROP","0,0,0,0,0,0,0,0","20,20,20,20,20,20,20,20","10,10,10,10,10,10,10,10","20,20,20,20,20,20,20,20","20,20,20,20,20,20,20,20","20,20,20,20,20,20,20,20","0,0,0,0,0,0,0,0","20,20,20,20,20,20,20,20","10,10,10,10,10,10,10,10","20,20,20,20,20,20,20,20","20,20,20,20,20,20,20,20","20,20,20,20,20,20,20,20","1,1,0,1,1,1,1,1","8324,126,1314,971,99,93,66,135","11.858995744418042,36.2324112449346,6.016009232377214,5.324459691943936,11.399100029520518,-17.16471575702937,-18.67500346204924,26.108392959518596","21.49306283532957,26.024019899202855,-6.17211260311437,31.6689984744355,39.59822129604838,29.640349541401054,40.5928868387414,15.190099014013827","0","0"
"188","86","text","0","163","1504331","0-0","","","","","","","","","","","","","","","","","","","","","","","","","","","","","","","","","","","","",""
"","","plant-game","0","164","1523198","0-0","","200","160","8","CORN CROP","Right","200","180","2","NETTLE WEED","experimental","69","1,2,3,4,5,6,7,8","180,143.07533595487195,140,155.3708517319319,168.32999464559038,177.40633586660147,187.61579373030477,223.02219158732066","2,1,6,5,4,3,2,1","NETTLE WEED,NETTLE WEED,THISTLE WEED,THISTLE WEED,THISTLE WEED,THISTLE WEED,THISTLE WEED,THISTLE WEED","160,113.3089309909148,138.81517788544824,188.39729661484964,197.17093683199158,220.48277159541348,226.96918606241118,199.59579157724622","8,7,6,5,4,3,2,1","CORN CROP,CORN CROP,CORN CROP,CORN CROP,CORN CROP,CORN CROP,CORN CROP,CORN CROP","0,0,0,0,0,0,0,0","20,20,20,20,20,20,20,20","10,10,10,10,10,10,10,10","20,20,20,20,20,20,20,20","20,20,20,20,20,20,20,20","20,20,20,20,20,20,20,20","0,0,0,0,0,0,0,0","20,20,20,20,20,20,20,20","10,10,10,10,10,10,10,10","20,20,20,20,20,20,20,20","20,20,20,20,20,20,20,20","20,20,20,20,20,20,20,20","0,0,1,1,1,0,0,1","4274,1663,1819,677,789,1280,1277,1372","-36.92466404512806,-3.4076698155318748,15.370851731931905,12.959142913658459,9.076341221011079,10.209457863703307,35.406397857015875,47.350003974123155","-46.6910690090852,25.50624689453342,49.5821187294014,8.773640217141958,23.311834763421906,6.486414466997708,-27.373394485164972,13.10509860726342","0","0"
"97","86","text","0","165","1523415","0-0","","","","","","","","","","","","","","","","","","","","","","","","","","","","","","","","","","","","",""
"","","plant-game","0","166","1539654","0-0","","200","180","8","WHEAT CROP","Right","200","190","8","THISTLE WEED","experimental","70","1,2,3,4,5,6,7,8","190,170.5141205069622,183.93171465307918,176.3014464190527,164.0347852819638,198.75678367267844,191.27563023836643,175.11871615254844","8,7,6,5,4,3,2,1","THISTLE WEED,THISTLE WEED,THISTLE WEED,THISTLE WEED,THISTLE WEED,THISTLE WEED,THISTLE WEED,THISTLE WEED","180,241.29161953236817,259.83722880916076,254.8737378028976,279.65850170916826,256.18739245515985,236.47369189356797,204.38102695601316","8,7,6,5,4,3,2,1","WHEAT CROP,WHEAT CROP,WHEAT CROP,WHEAT CROP,WHEAT CROP,WHEAT CROP,WHEAT CROP,WHEAT CROP","0,0,0,0,0,0,0,0","20,20,20,20,20,20,20,20","10,10,10,10,10,10,10,10","20,20,20,20,20,20,20,20","20,20,20,20,20,20,20,20","20,20,20,20,20,20,20,20","0,0,0,0,0,0,0,0","20,20,20,20,20,20,20,20","10,10,10,10,10,10,10,10","20,20,20,20,20,20,20,20","20,20,20,20,20,20,20,20","20,20,20,20,20,20,20,20","1,0,0,0,0,0,0,1","2191,2343,1638,704,1318,1003,1500,1285","-19.485879493037793,13.417594146116986,-7.630268234026496,-12.266661137088901,34.72199839071465,-7.481153434311999,-16.156914085817984,47.711976862996345","61.29161953236817,18.545609276792604,-4.963491006263166,24.784763906270637,-23.471109254008407,-19.713700561591878,-32.092664937554815,42.07849323803605","0","0"
"94","86","text","0","167","1539838","0-0","","","","","","","","","","","","","","","","","","","","","","","","","","","","","","","","","","","","",""
"","","plant-game","0","168","1546717","0-0","","200","180","8","WHEAT CROP","Right","200","180","8","THISTLE WEED","experimental","71","1,2,3,4,5,6,7,8","180,189.57127209004253,222.78838108076658,234.20637886877492,276.09403700813255,327.0264216050206,371.94742265945854,426.1815018033093","8,7,6,5,4,3,2,1","THISTLE WEED,THISTLE WEED,THISTLE WEED,THISTLE WEED,THISTLE WEED,THISTLE WEED,THISTLE WEED,THISTLE WEED","180,170.21367019085187,178.58205163238637,196.95591291415084,219.2167619899118,218.4675729820736,276.25724611859425,308.9788183886654","8,7,6,5,4,3,2,1","WHEAT CROP,WHEAT CROP,WHEAT CROP,WHEAT CROP,WHEAT CROP,WHEAT CROP,WHEAT CROP,WHEAT CROP","0,0,0,0,0,0,0,0","20,20,20,20,20,20,20,20","10,10,10,10,10,10,10,10","20,20,20,20,20,20,20,20","20,20,20,20,20,20,20,20","20,20,20,20,20,20,20,20","0,0,0,0,0,0,0,0","20,20,20,20,20,20,20,20","10,10,10,10,10,10,10,10","20,20,20,20,20,20,20,20","20,20,20,20,20,20,20,20","20,20,20,20,20,20,20,20","1,1,1,1,1,1,1,1","1885,97,106,670,61,674,93,62","9.571272090042529,33.21710899072405,11.41799778800833,41.88765813935763,50.93238459688801,44.92100105443794,54.23407914385073,-3.008969816641198","-9.786329809148118,8.368381441534499,18.373861281764476,22.26084907576096,-0.7491890078381971,57.78967313652066,32.72157227007112,15.992269882797123","0","0"
"97","86","text","0","169","1546894","0-0","","","","","","","","","","","","","","","","","","","","","","","","","","","","","","","","","","","","",""
"","","plant-game","0","170","1566189","0-0","","200","180","8","WHEAT CROP","Left","200","160","4","THISTLE WEED","experimental","72","1,2,3,4,5,6,7,8","180,162.5465839634578,174.11867615609228,158.98847545262802,139.81665104134694,136.87172928202358,158.11014293566646,161.2699817515083","8,7,6,5,4,3,2,1","WHEAT CROP,WHEAT CROP,WHEAT CROP,WHEAT CROP,WHEAT CROP,WHEAT CROP,WHEAT CROP,WHEAT CROP","160,164.38028409224322,173.17259459649736,171.78649118147413,160,185.89273859934764,189.50945551255745,180.46868777003274","4,3,2,1,4,3,2,1","THISTLE WEED,THISTLE WEED,THISTLE WEED,THISTLE WEED,NETTLE WEED,NETTLE WEED,NETTLE WEED,NETTLE WEED","20,20,20,20,20,20,20,20","20,20,20,20,20,20,20,20","10,10,10,10,10,10,10,10","20,20,20,20,20,20,20,20","0,0,0,0,0,0,0,0","20,20,20,20,20,20,20,20","20,20,20,20,20,20,20,20","20,20,20,20,20,20,20,20","10,10,10,10,10,10,10,10","20,20,20,20,20,20,20,20","0,0,0,0,0,0,0,0","20,20,20,20,20,20,20,20","1,0,1,1,0,0,1,1","3022,887,2734,633,1614,1326,1729,2332","-17.453416036542208,11.572092192634482,-15.130200703464267,-19.171824411281072,-2.9449217593233783,21.238413653642883,3.159838815841857,8.827917498521659","4.380284092243206,8.792310504254147,-1.3861034150232245,-11.335936516090804,25.892738599347652,3.6167169132098067,-9.040767742524709,-8.422652827556508","0","0"
"89","86","text","0","171","1566387","0-0","","","","","","","","","","","","","","","","","","","","","","","","","","","","","","","","","","","","",""
"","","plant-game","0","172","1598583","0-0","","200","180","8","CORN CROP","Right","200","160","2","THISTLE WEED","experimental","73","1,2,3,4,5,6,7,8","160,223.19572329863604,140,143.6006495129297,133.6554716212784,136.52644306415198,165.3102994211569,183.43315889536188","2,1,6,5,4,3,2,1","THISTLE WEED,THISTLE WEED,NETTLE WEED,NETTLE WEED,NETTLE WEED,NETTLE WEED,NETTLE WEED,NETTLE WEED","180,181.1583419079584,214.01812184987233,223.5403315225559,220.9765004751442,202.79828986579267,166.81716286717744,200.27252574471376","8,7,6,5,4,3,2,1","CORN CROP,CORN CROP,CORN CROP,CORN CROP,CORN CROP,CORN CROP,CORN CROP,CORN CROP","0,0,0,0,0,0,0,0","20,20,20,20,20,20,20,20","10,10,10,10,10,10,10,10","20,20,20,20,20,20,20,20","20,20,20,20,20,20,20,20","20,20,20,20,20,20,20,20","0,0,0,0,0,0,0,0","20,20,20,20,20,20,20,20","10,10,10,10,10,10,10,10","20,20,20,20,20,20,20,20","20,20,20,20,20,20,20,20","20,20,20,20,20,20,20,20","1,1,0,0,0,1,1,1","2454,93,19530,802,490,575,657,1569","63.19572329863603,5.809985964709373,3.600649512929704,-9.945177891651308,2.8709714428735698,28.78385635700494,18.122859474204972,-1.6410899291577117","1.158341907958409,32.85977994191394,9.522209672683577,-2.563831047411695,-18.178210609351527,-35.98112699861524,33.45536287753632,-10.460175856282095","0","0"
"69","86","text","0","173","1598773","0-0","","","","","","","","","","","","","","","","","","","","","","","","","","","","","","","","","","","","",""
"","","plant-game","0","174","1615423","0-0","","200","180","2","WHEAT CROP","Left","200","190","1","NETTLE WEED","experimental","74","1,2","180,167.7964289974048","2,1","WHEAT CROP,WHEAT CROP","190,190","1,1","NETTLE WEED,THISTLE WEED","20,20","20,20","10,10","20,20","0,0","20,20","20,20","20,20","10,10","20,20","0,0","20,20","1,0","3014,8822","-12.203571002595183,-6.305313417537889","8.653063010813023,5.628761923724191","0","0"
"638","86","text","0","175","1616155","0-0","","","","","","","","","","","","","","","","","","","","","","","","","","","","","","","","","","","","",""
"","","plant-game","0","176","1636852","0-0","","200","190","8","CORN CROP","Right","200","180","4","NETTLE WEED","experimental","75","1,2,3,4,5,6,7,8","180,227.31841566427468,253.16199352948604,283.8829856231363,160,211.24666088944193,232.68312432454266,208.94801090393068","4,3,2,1,4,3,2,1","NETTLE WEED,NETTLE WEED,NETTLE WEED,NETTLE WEED,THISTLE WEED,THISTLE WEED,THISTLE WEED,THISTLE WEED","190,208.53415051944333,202.1402386193379,234.34571891709487,254.23377728381513,288.928112060499,312.1064319117673,351.61096625829896","8,7,6,5,4,3,2,1","CORN CROP,CORN CROP,CORN CROP,CORN CROP,CORN CROP,CORN CROP,CORN CROP,CORN CROP","0,0,0,0,0,0,0,0","20,20,20,20,20,20,20,20","10,10,10,10,10,10,10,10","20,20,20,20,20,20,20,20","20,20,20,20,20,20,20,20","20,20,20,20,20,20,20,20","0,0,0,0,0,0,0,0","20,20,20,20,20,20,20,20","10,10,10,10,10,10,10,10","20,20,20,20,20,20,20,20","20,20,20,20,20,20,20,20","20,20,20,20,20,20,20,20","1,0,1,1,1,0,0,0","3718,3168,1855,590,2127,1179,573,1066","47.318415664274674,25.843577865211348,30.72099209365025,18.297919218998466,51.24666088944193,21.436463435100745,-23.735113420611974,-8.860196718325632","18.534150519443337,-6.393911900105423,32.20548029775697,19.888058366720255,34.6943347766839,23.178319851268284,39.50453434653164,12.93682075361873","0","0"
"80","86","text","0","177","1637012","0-0","","","","","","","","","","","","","","","","","","","","","","","","","","","","","","","","","","","","",""
"","","plant-game","0","178","1655457","0-0","","200","190","8","CORN CROP","Left","200","120","1","THISTLE WEED","experimental","76","1,2,3,4,5,6,7,8","190,213.07553642886313,216.48157099529,238.28987240968274,231.35988618267186,263.8731176942915,253.88544928295906,230.36057303120631","8,7,6,5,4,3,2,1","CORN CROP,CORN CROP,CORN CROP,CORN CROP,CORN CROP,CORN CROP,CORN CROP,CORN CROP","120,130,167.17958635580754,198.36896981884408,178.82392407217833,183.70703907867338,193.08664423789875,178.68954201154347","1,7,6,5,4,3,2,1","THISTLE WEED,NETTLE WEED,NETTLE WEED,NETTLE WEED,NETTLE WEED,NETTLE WEED,NETTLE WEED,NETTLE WEED","20,20,20,20,20,20,20,20","20,20,20,20,20,20,20,20","10,10,10,10,10,10,10,10","20,20,20,20,20,20,20,20","0,0,0,0,0,0,0,0","20,20,20,20,20,20,20,20","20,20,20,20,20,20,20,20","20,20,20,20,20,20,20,20","10,10,10,10,10,10,10,10","20,20,20,20,20,20,20,20","0,0,0,0,0,0,0,0","20,20,20,20,20,20,20,20","0,0,1,1,1,1,1,1","3359,2202,714,867,1488,866,2127,1428","23.07553642886313,3.4060345664268894,21.808301414392744,-6.929986227010881,32.51323151161969,-9.987668411332473,-23.524876251752755,8.157122934344796","3.1954811215807766,37.17958635580755,31.189383463036542,-19.545045746665735,4.88311500649505,9.379605159225372,-14.39710222635529,4.849055286421709","0","0"
"90","86","text","0","179","1655637","0-0","","","","","","","","","","","","","","","","","","","","","","","","","","","","","","","","","","","","",""
"","","plant-game","0","180","1675910","0-0","","200","180","2","WHEAT CROP","Left","200","160","8","NETTLE WEED","experimental","77","1,2,3,4,5,6,7,8","180,206.5565976330407,140,137.717095193805,150.99506760543727,197.5640828937668,194.42731130211874,170.41918933543312","2,1,6,5,4,3,2,1","WHEAT CROP,WHEAT CROP,CORN CROP,CORN CROP,CORN CROP,CORN CROP,CORN CROP,CORN CROP","160,175.4080024459712,218.5299421573469,222.108556521881,216.9250912886824,213.5787842736078,215.78304289629003,197.51315929196946","8,7,6,5,4,3,2,1","NETTLE WEED,NETTLE WEED,NETTLE WEED,NETTLE WEED,NETTLE WEED,NETTLE WEED,NETTLE WEED,NETTLE WEED","20,20,20,20,20,20,20,20","20,20,20,20,20,20,20,20","10,10,10,10,10,10,10,10","20,20,20,20,20,20,20,20","0,0,0,0,0,0,0,0","20,20,20,20,20,20,20,20","20,20,20,20,20,20,20,20","20,20,20,20,20,20,20,20","10,10,10,10,10,10,10,10","20,20,20,20,20,20,20,20","0,0,0,0,0,0,0,0","20,20,20,20,20,20,20,20","0,0,1,1,1,1,1,1","2634,2561,1448,1531,1181,1298,1164,2652","26.55659763304069,43.51095017840601,-2.2829048061949924,13.277972411632275,46.56901528832953,-3.1367715916480616,-24.008121966685614,-36.451650170252485","15.408002445971192,43.1219397113757,3.578614364534118,-5.1834652331986,-3.3463070150746232,2.204258622682245,-18.26988360432058,20.408585083201437","0","0"
"67","86","text","0","181","1676067","0-0","","","","","","","","","","","","","","","","","","","","","","","","","","","","","","","","","","","","",""
"","","plant-game","0","182","1680187","0-0","","200","180","2","CORN CROP","Right","200","180","2","THISTLE WEED","experimental","78","1,2","180,178.18247015871836","2,1","THISTLE WEED,THISTLE WEED","180,170.27895896770434","2,1","CORN CROP,CORN CROP","0,0","20,20","10,10","20,20","20,20","20,20","0,0","20,20","10,10","20,20","20,20","20,20","1,1","1499,111","-1.8175298412816403,13.777997105940607","-9.721041032295656,16.9537904094661","0","0"
"100","86","text","0","183","1680377","0-0","","","","","","","","","","","","","","","","","","","","","","","","","","","","","","","","","","","","",""
"","","plant-game","0","184","1697010","0-0","","200","160","8","WHEAT CROP","Right","200","190","1","THISTLE WEED","experimental","79","1,2,3,4,5,6,7,8","190,130,148.6715819876218,173.49670774628868,188.38021379143456,206.49972740293708,213.16199511031425,197.6582866572316","1,7,6,5,4,3,2,1","THISTLE WEED,NETTLE WEED,NETTLE WEED,NETTLE WEED,NETTLE WEED,NETTLE WEED,NETTLE WEED,NETTLE WEED","160,182.32259850553424,193.11507509479017,199.6547074789926,190.01969747407605,211.1430114489137,233.66824081095112,272.966174543361","8,7,6,5,4,3,2,1","WHEAT CROP,WHEAT CROP,WHEAT CROP,WHEAT CROP,WHEAT CROP,WHEAT CROP,WHEAT CROP,WHEAT CROP","0,0,0,0,0,0,0,0","20,20,20,20,20,20,20,20","10,10,10,10,10,10,10,10","20,20,20,20,20,20,20,20","20,20,20,20,20,20,20,20","20,20,20,20,20,20,20,20","0,0,0,0,0,0,0,0","20,20,20,20,20,20,20,20","10,10,10,10,10,10,10,10","20,20,20,20,20,20,20,20","20,20,20,20,20,20,20,20","20,20,20,20,20,20,20,20","0,1,1,1,1,0,0,0","2610,3393,403,426,698,1444,1049,1269","10.880436126908073,18.6715819876218,24.825125758666857,14.883506045145886,18.119513611502526,6.662267707377154,-15.503708453082645,-18.226254930233125","22.32259850553426,10.79247658925593,6.539632384202434,-9.635010004916566,21.123313974837668,22.52522936203741,39.297933732409874,24.795895814006602","0","0"
"87","86","text","0","185","1697197","0-0","","","","","","","","","","","","","","","","","","","","","","","","","","","","","","","","","","","","",""
"","","plant-game","0","186","1707969","0-0","","200","190","1","CORN CROP","Right","200","190","4","THISTLE WEED","experimental","80","1,2,3,4","190,201.26061681819687,253.26408762098401,290.9507373446283","4,3,2,1","THISTLE WEED,THISTLE WEED,THISTLE WEED,THISTLE WEED","190,170,179.9943957251905,172.89953688146718","1,3,2,1","CORN CROP,WHEAT CROP,WHEAT CROP,WHEAT CROP","0,0,0,0","20,20,20,20","10,10,10,10","20,20,20,20","20,20,20,20","20,20,20,20","0,0,0,0","20,20,20,20","10,10,10,10","20,20,20,20","20,20,20,20","20,20,20,20","1,0,0,1","1410,777,715,1061","11.260616818196858,52.003470802787135,37.686649723644265,53.41435356794288","3.4298242942440886,9.994395725190495,-7.094858843723296,25.267116088885246","0","0"
"957","86","text","0","187","1709076","0-0","","","","","","","","","","","","","","","","","","","","","","","","","","","","","","","","","","","","",""
"","","plant-game","0","188","1723561","0-0","","200","160","8","WHEAT CROP","Right","200","160","8","THISTLE WEED","experimental","81","1,2,3,4,5,6,7,8","160,185.96673850392324,208.36832108305154,231.87383276397094,203.3875337976454,187.6912974483011,180.86257043058322,197.67487352925394","8,7,6,5,4,3,2,1","THISTLE WEED,THISTLE WEED,THISTLE WEED,THISTLE WEED,THISTLE WEED,THISTLE WEED,THISTLE WEED,THISTLE WEED","160,217.7768708534336,223.9913292881321,239.09020552492495,210.4766455618394,210.70459372622489,213.20300771479572,230.5427436289367","8,7,6,5,4,3,2,1","WHEAT CROP,WHEAT CROP,WHEAT CROP,WHEAT CROP,WHEAT CROP,WHEAT CROP,WHEAT CROP,WHEAT CROP","0,0,0,0,0,0,0,0","20,20,20,20,20,20,20,20","10,10,10,10,10,10,10,10","20,20,20,20,20,20,20,20","20,20,20,20,20,20,20,20","20,20,20,20,20,20,20,20","0,0,0,0,0,0,0,0","20,20,20,20,20,20,20,20","10,10,10,10,10,10,10,10","20,20,20,20,20,20,20,20","20,20,20,20,20,20,20,20","20,20,20,20,20,20,20,20","1,1,0,0,0,0,1,0","3061,93,1335,535,907,2766,880,682","25.966738503923228,22.401582579128302,23.505511680919405,-28.486298966325535,-15.696236349344295,-6.828727017717875,16.812303098670714,20.157794117177993","57.776870853433586,6.214458434698516,15.098876236792862,-28.613559963085535,0.22794816438547483,2.498413988570842,17.339735914140974,-31.59022687932637","0","0"
"66","86","text","0","189","1723747","0-0","","","","","","","","","","","","","","","","","","","","","","","","","","","","","","","","","","","","",""
