"rt","key_press","trial_type","trial_index","trial_index_global","time_elapsed","internal_chunk_id","responses","experimental_goal_height","experimental_start_height","experimental_weeks_total","experimental_crop_type","experimental_crop_side","fixed_goal_height","fixed_start_height","fixed_weeks_total","fixed_crop_type","trial_kind","trial_number","stage","left_current_height","left_weeks_remaining","left_crop_type","right_current_height","right_weeks_remaining","right_crop_type","mean_left_growth_given_left","sd_left_growth_given_left","mean_left_growth_given_middle","sd_left_growth_given_middle","mean_left_growth_given_right","sd_left_growth_given_right","mean_right_growth_given_left","sd_right_growth_given_left","mean_right_growth_given_middle","sd_right_growth_given_middle","mean_right_growth_given_right","sd_right_growth_given_right","response","response_time","left_growth","right_growth","other_key_pressed","mouse_clicked"
"2852233","87","text","0","0","2852375","0-0","","","","","","","","","","","","","","","","","","","","","","","","","","","","","","","","","","","","",""
"4127","","survey-text","0","1","2857522","0-0","{""Q0"":""17""}","","","","","","","","","","","","","","","","","","","","","","","","","","","","","","","","","","","",""
"5033","86","text","0","2","5142","0-0","","","","","","","","","","","","","","","","","","","","","","","","","","","","","","","","","","","","",""
"","","plant-game","0","3","49221","0-0","","200","120","8","WHEAT CROP","Right","200","120","8","THISTLE WEED","practice","1","1,2,3,4,5,6,7,8","120,117.39190277014461,134.36527231994816,119.81373872529807,138.7210116757513,157.32797968771473,158.13575465480608,153.4455451813004","8,7,6,5,4,3,2,1","THISTLE WEED,THISTLE WEED,THISTLE WEED,THISTLE WEED,THISTLE WEED,THISTLE WEED,THISTLE WEED,THISTLE WEED","120,156.22327650145107,185.12232855692204,239.95173802272848,285.1876851157699,325.7727052531891,349.44622247010375,365.76197627839963","8,7,6,5,4,3,2,1","WHEAT CROP,WHEAT CROP,WHEAT CROP,WHEAT CROP,WHEAT CROP,WHEAT CROP,WHEAT CROP,WHEAT CROP","0,0,0,0,0,0,0,0","20,20,20,20,20,20,20,20","10,10,10,10,10,10,10,10","20,20,20,20,20,20,20,20","20,20,20,20,20,20,20,20","20,20,20,20,20,20,20,20","0,0,0,0,0,0,0,0","20,20,20,20,20,20,20,20","10,10,10,10,10,10,10,10","20,20,20,20,20,20,20,20","20,20,20,20,20,20,20,20","20,20,20,20,20,20,20,20","1,1,1,1,1,1,1,1","9870,1312,914,4892,755,474,387,277","-2.608097229855389,16.973369549803557,-14.551533594650103,18.90727295045323,18.606968011963435,0.8077749670913512,-4.690209473505689,17.207399353595882","36.223276501451075,28.899052055470968,54.82940946580645,45.23594709304142,40.585020137419164,23.67351721691467,16.31575380829588,30.669885471557876","0","0"
"1261","86","text","0","4","50654","0-0","","","","","","","","","","","","","","","","","","","","","","","","","","","","","","","","","","","","",""
"","","plant-game","0","5","76478","0-0","","200","160","4","WHEAT CROP","Right","200","160","4","THISTLE WEED","practice","2","1,2,3,4","160,163.71805581749908,181.50422499713463,214.3870449545725","4,3,2,1","THISTLE WEED,THISTLE WEED,THISTLE WEED,THISTLE WEED","160,167.02197917678578,184.36369101586502,182.4028569443638","4,3,2,1","WHEAT CROP,WHEAT CROP,WHEAT CROP,WHEAT CROP","0,0,0,0","20,20,20,20","10,10,10,10","20,20,20,20","20,20,20,20","20,20,20,20","0,0,0,0","20,20,20,20","10,10,10,10","20,20,20,20","20,20,20,20","20,20,20,20","1,1,1,1","7350,362,169,190","3.7180558174990637,17.786169179635547,32.88281995743787,-12.138386306911869","7.021979176785765,17.341711839079245,-1.9608340715011963,15.461060518481691","1","0"
"952","86","text","0","6","77550","0-0","","","","","","","","","","","","","","","","","","","","","","","","","","","","","","","","","","","","",""
"","","plant-game","0","7","106250","0-0","","200","180","2","WHEAT CROP","Right","200","180","2","THISTLE WEED","practice","3","1,2","180,192.98436621384877","2,1","THISTLE WEED,THISTLE WEED","180,158.98203884170147","2,1","WHEAT CROP,WHEAT CROP","0,0","20,20","10,10","20,20","20,20","20,20","0,0","20,20","10,10","20,20","20,20","20,20","0,1","3008,2448","12.98436621384877,-9.383801858104132","-21.017961158298533,26.06384425796627","0","0"
"789","86","text","0","8","107195","0-0","","","","","","","","","","","","","","","","","","","","","","","","","","","","","","","","","","","","",""
"","","plant-game","0","9","133047","0-0","","200","190","1","WHEAT CROP","Left","200","190","1","NETTLE WEED","practice","4","1","190","1","WHEAT CROP","190","1","NETTLE WEED","20","20","10","20","0","20","20","20","10","20","0","20","1","13760","0.48082204041990373","-23.03784633835717","0","0"
"939","86","text","0","10","134158","0-0","","","","","","","","","","","","","","","","","","","","","","","","","","","","","","","","","","","","",""
"","","plant-game","0","11","161043","0-0","","200","120","8","WHEAT CROP","Left","200","160","8","THISTLE WEED","practice","5","1,2,3,4,5,6,7,8","120,148.84623869582387,161.5596592918876,166.07911200577462,188.9339410974587,196.50698696025265,117.74985420946469,135.1697970613667","8,7,6,5,4,3,2,1","WHEAT CROP,WHEAT CROP,WHEAT CROP,WHEAT CROP,WHEAT CROP,WHEAT CROP,WHEAT CROP,WHEAT CROP","160,187.49248004452022,209.97374525572243,248.0448861029382,237.61910973625174,224.07047120120419,179.261188271298,151.66681905816748","8,7,6,5,4,3,2,1","THISTLE WEED,THISTLE WEED,THISTLE WEED,THISTLE WEED,THISTLE WEED,THISTLE WEED,THISTLE WEED,THISTLE WEED","20,20,20,20,20,20,20,20","20,20,20,20,20,20,20,20","10,10,10,10,10,10,10,10","20,20,20,20,20,20,20,20","0,0,0,0,0,0,0,0","20,20,20,20,20,20,20,20","20,20,20,20,20,20,20,20","20,20,20,20,20,20,20,20","10,10,10,10,10,10,10,10","20,20,20,20,20,20,20,20","0,0,0,0,0,0,0,0","20,20,20,20,20,20,20,20","1,0,1,1,1,1,1,1","5541,1934,6420,647,458,398,488,509","28.846238695823875,12.713420596063756,4.519452713887006,22.854829091684085,7.573045862793954,-78.75713275078796,17.419942851902004,-27.14375614121282","27.492480044520228,22.481265211202203,38.07114084721576,-10.425776366686444,-13.548638535047557,-44.80928292990618,-27.59436921313053,22.481599266152035","0","0"
"537","86","text","0","12","161770","0-0","","","","","","","","","","","","","","","","","","","","","","","","","","","","","","","","","","","","",""
"","","plant-game","0","13","176438","0-0","","200","180","4","CORN CROP","Right","200","160","4","THISTLE WEED","practice","6","1,2,3,4","160,194.40048834758818,205.0562582900884,233.05132496947084","4,3,2,1","THISTLE WEED,THISTLE WEED,THISTLE WEED,THISTLE WEED","180,214.29975489232223,211.510845713977,230.90656901212495","4,3,2,1","CORN CROP,CORN CROP,CORN CROP,CORN CROP","0,0,0,0","20,20,20,20","10,10,10,10","20,20,20,20","20,20,20,20","20,20,20,20","0,0,0,0","20,20,20,20","10,10,10,10","20,20,20,20","20,20,20,20","20,20,20,20","1,0,1,1","2738,2791,783,652","34.400488347588166,10.655769942500225,27.995066679382425,32.82169337147847","34.29975489232223,-2.7889091783452353,19.39572329814793,15.452324478007084","0","0"
"609","86","text","0","14","177217","0-0","","","","","","","","","","","","","","","","","","","","","","","","","","","","","","","","","","","","",""
"","","plant-game","0","15","194979","0-0","","200","180","2","WHEAT CROP","Right","200","190","2","NETTLE WEED","practice","7","1,2","190,217.20882463049858","2,1","NETTLE WEED,NETTLE WEED","180,162.5797649922488","2,1","WHEAT CROP,WHEAT CROP","0,0","20,20","10,10","20,20","20,20","20,20","0,0","20,20","10,10","20,20","20,20","20,20","1,0","109,910","27.208824630498594,-27.694722444067402","-17.420235007751188,-13.740417036339615","0","0"
"932","86","text","0","16","196101","0-0","","","","","","","","","","","","","","","","","","","","","","","","","","","","","","","","","","","","",""
"","","plant-game","0","17","235650","0-0","","200","120","4","WHEAT CROP","Right","200","120","8","NETTLE WEED","practice","8","1,2,3,4,5,6,7,8","120,146.74138198317434,195.07520802151657,213.92227620324326,246.09608396648713,252.73087940957294,264.9301076728525,289.9131712866448","8,7,6,5,4,3,2,1","NETTLE WEED,NETTLE WEED,NETTLE WEED,NETTLE WEED,NETTLE WEED,NETTLE WEED,NETTLE WEED,NETTLE WEED","120,155.13924762619993,166.86106673644613,139.36593368085767,160,170.70165029743538,168.72750746873538,193.9238203162816","4,3,2,1,4,3,2,1","WHEAT CROP,WHEAT CROP,WHEAT CROP,WHEAT CROP,CORN CROP,CORN CROP,CORN CROP,CORN CROP","0,0,0,0,0,0,0,0","20,20,20,20,20,20,20,20","10,10,10,10,10,10,10,10","20,20,20,20,20,20,20,20","20,20,20,20,20,20,20,20","20,20,20,20,20,20,20,20","0,0,0,0,0,0,0,0","20,20,20,20,20,20,20,20","10,10,10,10,10,10,10,10","20,20,20,20,20,20,20,20","20,20,20,20,20,20,20,20","20,20,20,20,20,20,20,20","1,1,0,1,1,1,1,1","391,474,3271,3478,2894,622,546,949","26.74138198317433,48.333826038342224,18.847068181726698,32.17380776324387,6.634795443085817,12.199228263279554,24.98306361379228,45.05020046941266","35.13924762619993,11.721819110246209,-27.495133055588454,3.551074980633743,10.701650297435393,-1.9741428286999891,25.196312847546203,8.6321430804652","0","0"
"885","86","text","0","18","236767","0-0","","","","","","","","","","","","","","","","","","","","","","","","","","","","","","","","","","","","",""
"","","plant-game","0","19","271718","0-0","","200","160","4","CORN CROP","Right","200","160","2","THISTLE WEED","practice","9","1,2,3,4","160,195.0738776406257,180,193.31277707713863","2,1,2,1","THISTLE WEED,THISTLE WEED,NETTLE WEED,NETTLE WEED","160,191.08599250693493,158.9922488653021,162.40216954058886","4,3,2,1","CORN CROP,CORN CROP,CORN CROP,CORN CROP","0,0,0,0","20,20,20,20","10,10,10,10","20,20,20,20","20,20,20,20","20,20,20,20","0,0,0,0","20,20,20,20","10,10,10,10","20,20,20,20","20,20,20,20","20,20,20,20","1,0,1,0","4610,2739,2990,2376","35.07387764062571,17.575958792388306,13.312777077138621,18.601103690668495","31.085992506934943,-32.093743641632855,3.4099206752867595,-12.082484169801699","0","0"
"536","86","text","0","20","272414","0-0","","","","","","","","","","","","","","","","","","","","","","","","","","","","","","","","","","","","",""
"","","plant-game","0","21","308215","0-0","","200","180","2","CORN CROP","Left","200","180","1","NETTLE WEED","practice","10","1,2","180,243.56681582524374","2,1","CORN CROP,CORN CROP","180,190","1,1","NETTLE WEED,THISTLE WEED","20,20","20,20","10,10","20,20","0,0","20,20","20,20","20,20","10,10","20,20","0,0","20,20","0,0","16551,1585","63.56681582524374,29.400738433544337","-3.7436695697499935,-35.548054044587055","0","0"
"684","86","text","0","22","309059","0-0","","","","","","","","","","","","","","","","","","","","","","","","","","","","","","","","","","","","",""
"","","plant-game","0","23","338914","0-0","","200","120","8","WHEAT CROP","Left","200","160","4","THISTLE WEED","practice","11","1,2,3,4,5,6,7,8","120,147.56269103827293,159.2504390758148,156.25050207425926,193.88205760800446,223.10719616847956,247.54911440345967,290.3253254474395","8,7,6,5,4,3,2,1","WHEAT CROP,WHEAT CROP,WHEAT CROP,WHEAT CROP,WHEAT CROP,WHEAT CROP,WHEAT CROP,WHEAT CROP","160,184.1061083043555,213.49320451990974,223.7684653173229,160,184.47602154710765,212.25175300384228,223.73135640521383","4,3,2,1,4,3,2,1","THISTLE WEED,THISTLE WEED,THISTLE WEED,THISTLE WEED,NETTLE WEED,NETTLE WEED,NETTLE WEED,NETTLE WEED","20,20,20,20,20,20,20,20","20,20,20,20,20,20,20,20","10,10,10,10,10,10,10,10","20,20,20,20,20,20,20,20","0,0,0,0,0,0,0,0","20,20,20,20,20,20,20,20","20,20,20,20,20,20,20,20","20,20,20,20,20,20,20,20","10,10,10,10,10,10,10,10","20,20,20,20,20,20,20,20","0,0,0,0,0,0,0,0","20,20,20,20,20,20,20,20","0,0,1,0,0,0,0,0","488,1087,789,856,843,1591,871,352","27.562691038272934,11.687748037541864,-2.999937001555539,37.631555533745214,29.225138560475102,24.44191823498012,42.77621104397987,16.0822680533577","24.1061083043555,29.38709621555425,10.27526079741315,16.865307150485595,24.476021547107653,27.775731456734647,11.479603401371552,41.62468225392607","0","0"
"788","86","text","0","24","339902","0-0","","","","","","","","","","","","","","","","","","","","","","","","","","","","","","","","","","","","",""
"","","plant-game","0","25","361053","0-0","","200","180","2","WHEAT CROP","Right","200","160","4","NETTLE WEED","practice","12","1,2,3,4","160,183.86481216316096,208.08746223542562,232.07929465522702","4,3,2,1","NETTLE WEED,NETTLE WEED,NETTLE WEED,NETTLE WEED","180,201.9162910301836,180,198.92071778896576","2,1,2,1","WHEAT CROP,WHEAT CROP,CORN CROP,CORN CROP","0,0,0,0","20,20,20,20","10,10,10,10","20,20,20,20","20,20,20,20","20,20,20,20","0,0,0,0","20,20,20,20","10,10,10,10","20,20,20,20","20,20,20,20","20,20,20,20","1,0,1,1","1056,1546,1603,705","23.86481216316097,24.222650072264642,23.991832419801394,9.232128481865939","21.91629103018361,-27.52345786223472,18.920717788965774,35.519439084955074","0","0"
"627","86","text","0","26","361900","0-0","","","","","","","","","","","","","","","","","","","","","","","","","","","","","","","","","","","","",""
"13677","86","text","0","27","376841","0-0","","","","","","","","","","","","","","","","","","","","","","","","","","","","","","","","","","","","",""
"","","plant-game","0","28","397822","0-0","","200","180","1","WHEAT CROP","Left","200","180","2","THISTLE WEED","experimental","1","1,2","180,190","1,1","WHEAT CROP,CORN CROP","180,208.19685278663405","2,1","THISTLE WEED,THISTLE WEED","20,20","20,20","10,10","20,20","0,0","20,20","20,20","20,20","10,10","20,20","0,0","20,20","0,0","5355,4520","35.87195471147449,1.0226756819362635","28.196852786634054,-8.395669457481326","0","0"
"526","86","text","0","29","398528","0-0","","","","","","","","","","","","","","","","","","","","","","","","","","","","","","","","","","","","",""
"","","plant-game","0","30","407530","0-0","","200","120","1","WHEAT CROP","Right","200","120","1","NETTLE WEED","experimental","2","1","120","1","NETTLE WEED","120","1","WHEAT CROP","0","20","10","20","20","20","0","20","10","20","20","20","1","3405","8.59099712055684","56.57263653917176","0","0"
"1075","86","text","0","31","408777","0-0","","","","","","","","","","","","","","","","","","","","","","","","","","","","","","","","","","","","",""
"","","plant-game","0","32","427255","0-0","","200","120","4","WHEAT CROP","Right","200","180","1","THISTLE WEED","experimental","3","1,2,3,4","180,170,169.2600527503677,189.7198181661052","1,3,2,1","THISTLE WEED,NETTLE WEED,NETTLE WEED,NETTLE WEED","120,89.43558776988607,116.96291480765282,143.41145752365617","4,3,2,1","WHEAT CROP,WHEAT CROP,WHEAT CROP,WHEAT CROP","0,0,0,0","20,20,20,20","10,10,10,10","20,20,20,20","20,20,20,20","20,20,20,20","0,0,0,0","20,20,20,20","10,10,10,10","20,20,20,20","20,20,20,20","20,20,20,20","0,1,1,1","2871,2654,444,1794","24.60237280047405,-0.7399472496323014,20.45976541573752,1.2308804782448597","-30.564412230113938,27.527327037766746,26.448542716003345,42.69836952525367","0","0"
"802","86","text","0","33","428227","0-0","","","","","","","","","","","","","","","","","","","","","","","","","","","","","","","","","","","","",""
"","","plant-game","0","34","447424","0-0","","200","160","4","CORN CROP","Left","200","120","2","THISTLE WEED","experimental","4","1,2,3,4","160,158.41879860938562,185.69866259262704,218.19724527075067","4,3,2,1","CORN CROP,CORN CROP,CORN CROP,CORN CROP","120,159.0118851376484,180,194.5094266650283","2,1,2,1","THISTLE WEED,THISTLE WEED,NETTLE WEED,NETTLE WEED","20,20,20,20","20,20,20,20","10,10,10,10","20,20,20,20","0,0,0,0","20,20,20,20","20,20,20,20","20,20,20,20","10,10,10,10","20,20,20,20","0,0,0,0","20,20,20,20","1,1,0,1","4564,2879,1956,2055","-1.5812013906143931,27.279863983241427,32.49858267812363,2.088707320187128","39.01188513764839,-26.322636131483833,14.509426665028293,-3.119567843382214","0","0"
"664","86","text","0","35","448298","0-0","","","","","","","","","","","","","","","","","","","","","","","","","","","","","","","","","","","","",""
"","","plant-game","0","36","473194","0-0","","200","160","4","WHEAT CROP","Right","200","160","1","THISTLE WEED","experimental","5","1,2,3,4","160,170,185.0268118485367,195.54219298667587","1,3,2,1","THISTLE WEED,NETTLE WEED,NETTLE WEED,NETTLE WEED","160,186.9804018807863,189.5695379402349,215.74918233881485","4,3,2,1","WHEAT CROP,WHEAT CROP,WHEAT CROP,WHEAT CROP","0,0,0,0","20,20,20,20","10,10,10,10","20,20,20,20","20,20,20,20","20,20,20,20","0,0,0,0","20,20,20,20","10,10,10,10","20,20,20,20","20,20,20,20","20,20,20,20","0,1,1,0","6375,5993,1404,2611","7.077165970766495,15.02681184853671,10.515381138139157,-10.748305683209585","26.980401880786307,2.5891360594485917,26.17964439857994,-15.783742832735939","0","0"
"537","86","text","0","37","473911","0-0","","","","","","","","","","","","","","","","","","","","","","","","","","","","","","","","","","","","",""
"","","plant-game","0","38","509712","0-0","","200","190","2","CORN CROP","Left","200","120","8","THISTLE WEED","experimental","6","1,2,3,4,5,6,7,8","190,180.57203955252658,140,136.65479724522584,138.46480784266524,162.1483806043457,168.73554794715497,209.8795982505841","2,1,6,5,4,3,2,1","CORN CROP,CORN CROP,WHEAT CROP,WHEAT CROP,WHEAT CROP,WHEAT CROP,WHEAT CROP,WHEAT CROP","120,130.24239300530297,133.88261398216122,129.58862474511693,118.98373772476721,133.83535203244327,134.9347439279167,139.8110802680911","8,7,6,5,4,3,2,1","THISTLE WEED,THISTLE WEED,THISTLE WEED,THISTLE WEED,THISTLE WEED,THISTLE WEED,THISTLE WEED,THISTLE WEED","20,20,20,20,20,20,20,20","20,20,20,20,20,20,20,20","10,10,10,10,10,10,10,10","20,20,20,20,20,20,20,20","0,0,0,0,0,0,0,0","20,20,20,20,20,20,20,20","20,20,20,20,20,20,20,20","20,20,20,20,20,20,20,20","10,10,10,10,10,10,10,10","20,20,20,20,20,20,20,20","0,0,0,0,0,0,0,0","20,20,20,20,20,20,20,20","0,0,0,0,0,0,0,0","4304,846,5532,422,446,602,584,1170","-9.427960447473424,19.27194161752772,-3.3452027547741494,1.810010597439394,23.683572761680466,6.58716734280927,41.14405030342914,7.400083839920271","10.242393005302976,3.640220976858245,-4.293989237044276,-10.604887020349718,14.851614307676055,1.0993918954734347,4.876336340174394,-2.820621229706827","0","0"
"831","86","text","0","39","510699","0-0","","","","","","","","","","","","","","","","","","","","","","","","","","","","","","","","","","","","",""
"","","plant-game","0","40","533966","0-0","","200","120","8","WHEAT CROP","Left","200","190","1","THISTLE WEED","experimental","7","1,2,3,4,5,6,7,8","120,91.09052949346241,83.68181927057553,101.77438799379686,83.9157607911367,133.04012661595033,139.51594989908457,185.8223795086192","8,7,6,5,4,3,2,1","WHEAT CROP,WHEAT CROP,WHEAT CROP,WHEAT CROP,WHEAT CROP,WHEAT CROP,WHEAT CROP,WHEAT CROP","190,130,149.26051480808852,185.4911063799082,204.780545174819,219.41422731044634,261.0215767901474,264.68765300648937","1,7,6,5,4,3,2,1","THISTLE WEED,NETTLE WEED,NETTLE WEED,NETTLE WEED,NETTLE WEED,NETTLE WEED,NETTLE WEED,NETTLE WEED","20,20,20,20,20,20,20,20","20,20,20,20,20,20,20,20","10,10,10,10,10,10,10,10","20,20,20,20,20,20,20,20","0,0,0,0,0,0,0,0","20,20,20,20,20,20,20,20","20,20,20,20,20,20,20,20","20,20,20,20,20,20,20,20","10,10,10,10,10,10,10,10","20,20,20,20,20,20,20,20","0,0,0,0,0,0,0,0","20,20,20,20,20,20,20,20","1,1,1,0,0,0,0,0","6282,4127,1235,1967,603,144,74,117","-28.90947050653759,-7.408710222886883,18.09256872322133,-17.858627202660166,49.12436582481362,6.475823283134234,46.306429609534625,38.09053939132883","-23.58456832442375,19.260514808088523,36.23059157181967,19.289438794910815,14.633682135627325,41.607349479701035,3.6660762163420166,17.9967061806533","0","0"
"491","86","text","0","41","534598","0-0","","","","","","","","","","","","","","","","","","","","","","","","","","","","","","","","","","","","",""
"","","plant-game","0","42","546243","0-0","","200","160","1","CORN CROP","Left","200","160","2","NETTLE WEED","experimental","8","1,2","160,190","1,1","CORN CROP,WHEAT CROP","160,183.69412626070704","2,1","NETTLE WEED,NETTLE WEED","20,20","20,20","10,10","20,20","0,0","20,20","20,20","20,20","10,10","20,20","0,0","20,20","0,0","2995,1392","-25.716508800488327,11.329649289518063","23.694126260707034,41.91374630775505","0","0"
"494","86","text","0","43","546884","0-0","","","","","","","","","","","","","","","","","","","","","","","","","","","","","","","","","","","","",""
"","","plant-game","0","44","565308","0-0","","200","160","2","CORN CROP","Right","200","120","1","NETTLE WEED","experimental","9","1,2","120,190","1,1","NETTLE WEED,THISTLE WEED","160,164.38514604673185","2,1","CORN CROP,CORN CROP","0,0","20,20","10,10","20,20","20,20","20,20","0,0","20,20","10,10","20,20","20,20","20,20","0,0","8263,3332","16.957254779124,-20.354455821491655","4.385146046731851,-1.5910203115663695","0","0"
"581","86","text","0","45","566029","0-0","","","","","","","","","","","","","","","","","","","","","","","","","","","","","","","","","","","","",""
"","","plant-game","0","46","586933","0-0","","200","120","2","WHEAT CROP","Right","200","180","8","THISTLE WEED","experimental","10","1,2,3,4,5,6,7,8","180,182.5557211343418,210.85930537089453,269.8717020112748,308.3006998655732,325.9590359512159,341.7117454237051,357.13457412991824","8,7,6,5,4,3,2,1","THISTLE WEED,THISTLE WEED,THISTLE WEED,THISTLE WEED,THISTLE WEED,THISTLE WEED,THISTLE WEED,THISTLE WEED","120,117.00859323474805,140,154.18007991335648,182.08015652313793,223.5207456199919,211.47035078720575,214.07485720794298","2,1,6,5,4,3,2,1","WHEAT CROP,WHEAT CROP,CORN CROP,CORN CROP,CORN CROP,CORN CROP,CORN CROP,CORN CROP","0,0,0,0,0,0,0,0","20,20,20,20,20,20,20,20","10,10,10,10,10,10,10,10","20,20,20,20,20,20,20,20","20,20,20,20,20,20,20,20","20,20,20,20,20,20,20,20","0,0,0,0,0,0,0,0","20,20,20,20,20,20,20,20","10,10,10,10,10,10,10,10","20,20,20,20,20,20,20,20","20,20,20,20,20,20,20,20","20,20,20,20,20,20,20,20","0,1,1,1,1,1,1,1","3890,4219,2440,339,184,160,2168,233","2.5557211343418036,28.303584236552716,59.012396640380295,38.4289978542984,17.658336085642695,15.752709472489215,15.422828706213107,-28.53682367309738","-2.9914067652519454,15.019751830685506,14.180079913356488,27.90007660978144,41.44058909685398,-12.050394832786175,2.6045064207372484,18.005040332041222","0","0"
"2178","86","text","0","47","589211","0-0","","","","","","","","","","","","","","","","","","","","","","","","","","","","","","","","","","","","",""
"","","plant-game","0","48","602230","0-0","","200","190","1","CORN CROP","Right","200","120","4","THISTLE WEED","experimental","11","1,2,3,4","120,130.8639455191723,140.75927752595527,174.03434867233258","4,3,2,1","THISTLE WEED,THISTLE WEED,THISTLE WEED,THISTLE WEED","190,170,194.0266265010128,214.18165577009609","1,3,2,1","CORN CROP,WHEAT CROP,WHEAT CROP,WHEAT CROP","0,0,0,0","20,20,20,20","10,10,10,10","20,20,20,20","20,20,20,20","20,20,20,20","0,0,0,0","20,20,20,20","10,10,10,10","20,20,20,20","20,20,20,20","20,20,20,20","1,1,1,0","2474,2286,382,1477","10.863945519172278,9.895332006782978,33.27507114637731,37.17811717929498","58.320547980311765,24.026626501012792,20.155029269083283,12.133203993534266","0","0"
"751","86","text","0","49","603142","0-0","","","","","","","","","","","","","","","","","","","","","","","","","","","","","","","","","","","","",""
"","","plant-game","0","50","621275","0-0","","200","160","8","WHEAT CROP","Left","200","160","8","NETTLE WEED","experimental","12","1,2,3,4,5,6,7,8","160,187.56902240254382,207.2115367493681,220.78241686012728,260.98500785075197,268.8808972951293,289.5517003801471,339.1513803229584","8,7,6,5,4,3,2,1","WHEAT CROP,WHEAT CROP,WHEAT CROP,WHEAT CROP,WHEAT CROP,WHEAT CROP,WHEAT CROP,WHEAT CROP","160,185.32682160455565,205.80377827739198,186.18214680689968,218.49827886501205,279.10460274602747,302.60972396003945,301.9439286487902","8,7,6,5,4,3,2,1","NETTLE WEED,NETTLE WEED,NETTLE WEED,NETTLE WEED,NETTLE WEED,NETTLE WEED,NETTLE WEED,NETTLE WEED","20,20,20,20,20,20,20,20","20,20,20,20,20,20,20,20","10,10,10,10,10,10,10,10","20,20,20,20,20,20,20,20","0,0,0,0,0,0,0,0","20,20,20,20,20,20,20,20","20,20,20,20,20,20,20,20","20,20,20,20,20,20,20,20","10,10,10,10,10,10,10,10","20,20,20,20,20,20,20,20","0,0,0,0,0,0,0,0","20,20,20,20,20,20,20,20","0,0,0,0,0,1,0,0","2587,664,1541,1596,927,691,703,524","27.569022402543823,19.64251434682427,13.570880110759191,40.202590990624685,7.8958894443773175,20.67080308501785,49.59967994281131,18.087184835389237","25.326821604555647,20.476956672836337,-19.62163147049231,32.31613205811237,60.60632388101541,23.505121214011986,-0.665795311249294,6.576804664166316","0","0"
"550","86","text","0","51","621955","0-0","","","","","","","","","","","","","","","","","","","","","","","","","","","","","","","","","","","","",""
"","","plant-game","0","52","636244","0-0","","200","190","8","WHEAT CROP","Left","200","120","1","NETTLE WEED","experimental","13","1,2,3,4,5,6,7,8","190,211.22835136507626,212.24891647569632,245.35985683990958,255.49933380766242,267.6504951115729,285.7701869286634,323.91928251108055","8,7,6,5,4,3,2,1","WHEAT CROP,WHEAT CROP,WHEAT CROP,WHEAT CROP,WHEAT CROP,WHEAT CROP,WHEAT CROP,WHEAT CROP","120,130,125.55429561549238,124.85176522765386,119.04274148215629,117.95339381076964,119.28386981701021,148.27429065070442","1,7,6,5,4,3,2,1","NETTLE WEED,THISTLE WEED,THISTLE WEED,THISTLE WEED,THISTLE WEED,THISTLE WEED,THISTLE WEED,THISTLE WEED","20,20,20,20,20,20,20,20","20,20,20,20,20,20,20,20","10,10,10,10,10,10,10,10","20,20,20,20,20,20,20,20","0,0,0,0,0,0,0,0","20,20,20,20,20,20,20,20","20,20,20,20,20,20,20,20","20,20,20,20,20,20,20,20","10,10,10,10,10,10,10,10","20,20,20,20,20,20,20,20","0,0,0,0,0,0,0,0","20,20,20,20,20,20,20,20","0,0,0,0,0,0,0,0","657,2011,884,493,391,351,545,502","21.22835136507628,1.0205651106200477,33.11094036421326,10.139476967752834,12.151161303910483,18.119691817090484,38.14909558241715,32.608381742022516","75.98950601713736,-4.445704384507625,-0.7025303878385287,-5.809023745497576,-1.0893476713866477,1.3304760062405698,28.990420833694195,21.92567225801798","0","0"
"716","86","text","0","53","637110","0-0","","","","","","","","","","","","","","","","","","","","","","","","","","","","","","","","","","","","",""
"","","plant-game","0","54","652736","0-0","","200","120","1","WHEAT CROP","Right","200","180","4","THISTLE WEED","experimental","14","1,2,3,4","180,215.52604153618626,281.7643411630322,295.16309010731675","4,3,2,1","THISTLE WEED,THISTLE WEED,THISTLE WEED,THISTLE WEED","120,170,175.27311769634517,220.5350321534532","1,3,2,1","WHEAT CROP,CORN CROP,CORN CROP,CORN CROP","0,0,0,0","20,20,20,20","10,10,10,10","20,20,20,20","20,20,20,20","20,20,20,20","0,0,0,0","20,20,20,20","10,10,10,10","20,20,20,20","20,20,20,20","20,20,20,20","1,1,1,0","3654,1232,352,788","35.52604153618624,66.23829962684596,13.39874894428453,-1.6984174856597745","12.906686004881855,5.273117696345173,45.26191445710803,13.940598947479819","0","0"
"674","86","text","0","55","653540","0-0","","","","","","","","","","","","","","","","","","","","","","","","","","","","","","","","","","","","",""
"","","plant-game","0","56","673142","0-0","","200","180","8","WHEAT CROP","Right","200","180","2","NETTLE WEED","experimental","15","1,2,3,4,5,6,7,8","180,205.8164836061072,140,162.85194106559558,198.41171527920093,228.04414197614568,240.64612743599346,252.84757451427805","2,1,6,5,4,3,2,1","NETTLE WEED,NETTLE WEED,THISTLE WEED,THISTLE WEED,THISTLE WEED,THISTLE WEED,THISTLE WEED,THISTLE WEED","180,166.0539772794101,176.7490347550786,204.51432524217378,198.43538965144828,245.42175146950532,261.37136538673815,255.96649641112154","8,7,6,5,4,3,2,1","WHEAT CROP,WHEAT CROP,WHEAT CROP,WHEAT CROP,WHEAT CROP,WHEAT CROP,WHEAT CROP,WHEAT CROP","0,0,0,0,0,0,0,0","20,20,20,20,20,20,20,20","10,10,10,10,10,10,10,10","20,20,20,20,20,20,20,20","20,20,20,20,20,20,20,20","20,20,20,20,20,20,20,20","0,0,0,0,0,0,0,0","20,20,20,20,20,20,20,20","10,10,10,10,10,10,10,10","20,20,20,20,20,20,20,20","20,20,20,20,20,20,20,20","20,20,20,20,20,20,20,20","0,1,1,1,1,0,1,0","4454,978,733,1380,1404,717,984,1425","25.81648360610719,36.45704126591876,22.851941065595582,35.559774213605344,29.632426696944734,12.601985459847793,12.201447078284602,16.223979278422767","-13.946022720589909,10.695057475668515,27.765290487095164,-6.078935590725507,46.98636181805705,15.949613917232835,-5.404868975616601,-6.199097430434927","0","0"
"573","86","text","0","57","673825","0-0","","","","","","","","","","","","","","","","","","","","","","","","","","","","","","","","","","","","",""
"","","plant-game","0","58","683212","0-0","","200","180","1","WHEAT CROP","Right","200","180","4","THISTLE WEED","experimental","16","1,2,3,4","180,213.17589792364288,232.40477858444,193.93986132218552","4,3,2,1","THISTLE WEED,THISTLE WEED,THISTLE WEED,THISTLE WEED","180,170,183.9636305803499,194.02650628774234","1,3,2,1","WHEAT CROP,CORN CROP,CORN CROP,CORN CROP","0,0,0,0","20,20,20,20","10,10,10,10","20,20,20,20","20,20,20,20","20,20,20,20","0,0,0,0","20,20,20,20","10,10,10,10","20,20,20,20","20,20,20,20","20,20,20,20","1,0,0,0","1367,473,594,308","33.175897923642864,19.22888066079714,-38.46491726225449,29.75023957951028","8.611992569243847,13.963630580349886,10.062875707392443,-16.556636163670234","0","0"
"586","86","text","0","59","683978","0-0","","","","","","","","","","","","","","","","","","","","","","","","","","","","","","","","","","","","",""
"","","plant-game","0","60","701440","0-0","","200","120","1","WHEAT CROP","Right","200","160","4","THISTLE WEED","experimental","17","1,2,3,4","160,150.07805211483614,194.83645330911128,199.53026678607952","4,3,2,1","THISTLE WEED,THISTLE WEED,THISTLE WEED,THISTLE WEED","120,170,173.1280623765225,144.5736328085277","1,3,2,1","WHEAT CROP,CORN CROP,CORN CROP,CORN CROP","0,0,0,0","20,20,20,20","10,10,10,10","20,20,20,20","20,20,20,20","20,20,20,20","0,0,0,0","20,20,20,20","10,10,10,10","20,20,20,20","20,20,20,20","20,20,20,20","0,1,1,0","4239,1894,4500,777","-9.921947885163869,44.75840119427515,4.693813476968254,15.787387265937314","33.92545201178576,3.1280623765224966,-28.55442956799483,2.5524027817343646","0","0"
"467","86","text","0","61","702057","0-0","","","","","","","","","","","","","","","","","","","","","","","","","","","","","","","","","","","","",""
"","","plant-game","0","62","715677","0-0","","200","120","2","WHEAT CROP","Left","200","120","4","THISTLE WEED","experimental","18","1,2,3,4","120,126.54540389394654,180,184.59436452367692","2,1,2,1","WHEAT CROP,WHEAT CROP,CORN CROP,CORN CROP","120,125.5377803868372,150.04844508802387,189.54963848782745","4,3,2,1","THISTLE WEED,THISTLE WEED,THISTLE WEED,THISTLE WEED","20,20,20,20","20,20,20,20","10,10,10,10","20,20,20,20","0,0,0,0","20,20,20,20","20,20,20,20","20,20,20,20","10,10,10,10","20,20,20,20","0,0,0,0","20,20,20,20","1,0,0,0","358,3050,2316,832","6.545403893946542,22.2147453755229,4.594364523676928,4.319965840028981","5.537780386837198,24.510664701186677,39.50119339980358,36.39654399142555","0","0"
"902","86","text","0","63","716715","0-0","","","","","","","","","","","","","","","","","","","","","","","","","","","","","","","","","","","","",""
"","","plant-game","0","64","733485","0-0","","200","180","4","WHEAT CROP","Left","200","190","8","THISTLE WEED","experimental","19","1,2,3,4,5,6,7,8","180,192.79516897581584,201.15007460571363,239.72011219493945,160,160.71853092370986,193.91482418452034,224.2637677208391","4,3,2,1,4,3,2,1","WHEAT CROP,WHEAT CROP,WHEAT CROP,WHEAT CROP,CORN CROP,CORN CROP,CORN CROP,CORN CROP","190,261.3170214591736,247.0754569297526,216.27060617743746,210.15637558467012,211.79164407176242,267.25058082844424,321.0961496447182","8,7,6,5,4,3,2,1","THISTLE WEED,THISTLE WEED,THISTLE WEED,THISTLE WEED,THISTLE WEED,THISTLE WEED,THISTLE WEED,THISTLE WEED","20,20,20,20,20,20,20,20","20,20,20,20,20,20,20,20","10,10,10,10,10,10,10,10","20,20,20,20,20,20,20,20","0,0,0,0,0,0,0,0","20,20,20,20,20,20,20,20","20,20,20,20,20,20,20,20","20,20,20,20,20,20,20,20","10,10,10,10,10,10,10,10","20,20,20,20,20,20,20,20","0,0,0,0,0,0,0,0","20,20,20,20,20,20,20,20","0,1,1,1,1,0,0,1","1940,1277,663,469,2210,439,985,680","12.795168975815832,8.35490562989779,38.57003758922582,-39.76293106246578,0.7185309237098686,33.196293260810485,30.34894353631875,-9.634832579221548","71.3170214591736,-14.241564529421012,-30.804850752315126,-6.1142305927673455,1.6352684870922964,55.45893675668184,53.845568816273975,-36.82457810968221","0","0"
"272","86","text","0","65","733887","0-0","","","","","","","","","","","","","","","","","","","","","","","","","","","","","","","","","","","","",""
"","","plant-game","0","66","754123","0-0","","200","120","8","WHEAT CROP","Left","200","190","4","THISTLE WEED","experimental","20","1,2,3,4,5,6,7,8","120,211.53488543564023,206.87597970263764,192.702254042146,219.8580411700526,241.61477176818505,264.63315109841386,293.63064291801885","8,7,6,5,4,3,2,1","WHEAT CROP,WHEAT CROP,WHEAT CROP,WHEAT CROP,WHEAT CROP,WHEAT CROP,WHEAT CROP,WHEAT CROP","190,253.03130936793605,236.10179990483576,286.5666973809981,160,176.66393557346427,178.6423594949296,212.6048042306409","4,3,2,1,4,3,2,1","THISTLE WEED,THISTLE WEED,THISTLE WEED,THISTLE WEED,NETTLE WEED,NETTLE WEED,NETTLE WEED,NETTLE WEED","20,20,20,20,20,20,20,20","20,20,20,20,20,20,20,20","10,10,10,10,10,10,10,10","20,20,20,20,20,20,20,20","0,0,0,0,0,0,0,0","20,20,20,20,20,20,20,20","20,20,20,20,20,20,20,20","20,20,20,20,20,20,20,20","10,10,10,10,10,10,10,10","20,20,20,20,20,20,20,20","0,0,0,0,0,0,0,0","20,20,20,20,20,20,20,20","0,1,0,1,0,0,0,1","1999,1684,2632,632,2934,919,814,696","91.53488543564023,-4.6589057330026105,-14.173725660491641,27.1557871279066,21.756730598132457,23.018379330228793,28.99749181960498,20.877389894889117","63.03130936793606,-16.929509463100292,50.46489747616236,4.790538682941611,16.663935573464276,1.9784239214653248,33.9624447357113,1.3295144164448403","0","0"
"708","86","text","0","67","754987","0-0","","","","","","","","","","","","","","","","","","","","","","","","","","","","","","","","","","","","",""
"","","plant-game","0","68","766048","0-0","","200","180","4","CORN CROP","Left","200","180","1","THISTLE WEED","experimental","21","1,2,3,4","180,186.57940591056723,231.33065350642212,224.80092049481829","4,3,2,1","CORN CROP,CORN CROP,CORN CROP,CORN CROP","180,170,203.80589750643082,230.6134982413696","1,3,2,1","THISTLE WEED,NETTLE WEED,NETTLE WEED,NETTLE WEED","20,20,20,20","20,20,20,20","10,10,10,10","20,20,20,20","0,0,0,0","20,20,20,20","20,20,20,20","20,20,20,20","10,10,10,10","20,20,20,20","0,0,0,0","20,20,20,20","0,0,1,0","1127,1435,719,736","6.579405910567225,44.75124759585489,-6.529733011603849,-4.867650399050937","14.847445371667883,33.805897506430824,26.80760073493878,31.00230221291679","0","0"
"555","86","text","0","69","766743","0-0","","","","","","","","","","","","","","","","","","","","","","","","","","","","","","","","","","","","",""
"","","plant-game","0","70","783747","0-0","","200","180","8","CORN CROP","Right","200","160","4","THISTLE WEED","experimental","22","1,2,3,4,5,6,7,8","160,180.10694008358453,166.34955638562195,147.3277098549846,160,190.02026630027834,176.4110684517707,218.2391472577769","4,3,2,1,4,3,2,1","THISTLE WEED,THISTLE WEED,THISTLE WEED,THISTLE WEED,NETTLE WEED,NETTLE WEED,NETTLE WEED,NETTLE WEED","180,209.42755492867192,202.6191850506551,217.5142716845824,208.19049282240607,226.8947766429998,209.42143918216354,202.9016549925854","8,7,6,5,4,3,2,1","CORN CROP,CORN CROP,CORN CROP,CORN CROP,CORN CROP,CORN CROP,CORN CROP,CORN CROP","0,0,0,0,0,0,0,0","20,20,20,20,20,20,20,20","10,10,10,10,10,10,10,10","20,20,20,20,20,20,20,20","20,20,20,20,20,20,20,20","20,20,20,20,20,20,20,20","0,0,0,0,0,0,0,0","20,20,20,20,20,20,20,20","10,10,10,10,10,10,10,10","20,20,20,20,20,20,20,20","20,20,20,20,20,20,20,20","20,20,20,20,20,20,20,20","0,1,0,0,1,0,1,0","503,1282,2191,795,1427,984,923,812","20.106940083584522,-13.757383697962567,-19.02184653063737,-10.93763033495599,30.02026630027834,-13.609197848507659,41.82807880600619,-29.71537181851163","29.42755492867193,-6.8083698780168405,14.895086633927326,-9.32377886217634,18.70428382059373,-17.47333746083627,-6.519784189578118,-56.60952704372285","0","0"
"556","86","text","0","71","784464","0-0","","","","","","","","","","","","","","","","","","","","","","","","","","","","","","","","","","","","",""
"","","plant-game","0","72","796780","0-0","","200","180","1","CORN CROP","Left","200","190","4","NETTLE WEED","experimental","23","1,2,3,4","180,170,162.24973247694692,141.31043550004833","1,3,2,1","CORN CROP,WHEAT CROP,WHEAT CROP,WHEAT CROP","190,177.62019933214597,186.2275032715132,185.35244424320837","4,3,2,1","NETTLE WEED,NETTLE WEED,NETTLE WEED,NETTLE WEED","20,20,20,20","20,20,20,20","10,10,10,10","20,20,20,20","0,0,0,0","20,20,20,20","20,20,20,20","20,20,20,20","10,10,10,10","20,20,20,20","0,0,0,0","20,20,20,20","1,0,1,0","984,2767,733,701","11.714033542964016,-7.750267523053079,-20.939296976898586,31.52385088811571","-12.379800667854038,8.607303939367231,-0.8750590283048307,25.019228642918506","0","0"
"448","86","text","0","73","797396","0-0","","","","","","","","","","","","","","","","","","","","","","","","","","","","","","","","","","","","",""
"","","plant-game","0","74","807461","0-0","","200","190","2","CORN CROP","Right","200","180","1","NETTLE WEED","experimental","24","1,2","180,190","1,1","NETTLE WEED,THISTLE WEED","190,212.5352049733033","2,1","CORN CROP,CORN CROP","0,0","20,20","10,10","20,20","20,20","20,20","0,0","20,20","10,10","20,20","20,20","20,20","0,1","402,2670","-2.6446343136706316,6.955186330538618","22.535204973303316,-1.8219718176555553","0","0"
"1017","86","text","0","75","808648","0-0","","","","","","","","","","","","","","","","","","","","","","","","","","","","","","","","","","","","",""
"","","plant-game","0","76","816851","0-0","","200","190","2","CORN CROP","Right","200","180","2","THISTLE WEED","experimental","25","1,2","180,194.71400337926724","2,1","THISTLE WEED,THISTLE WEED","190,214.3215980504107","2,1","CORN CROP,CORN CROP","0,0","20,20","10,10","20,20","20,20","20,20","0,0","20,20","10,10","20,20","20,20","20,20","1,0","2378,1800","14.714003379267252,-6.02652559316324","24.321598050410692,30.984914358159624","0","0"
"644","86","text","0","77","817595","0-0","","","","","","","","","","","","","","","","","","","","","","","","","","","","","","","","","","","","",""
"","","plant-game","0","78","831601","0-0","","200","190","8","WHEAT CROP","Right","200","120","8","NETTLE WEED","experimental","26","1,2,3,4,5,6,7,8","120,122.34262392945038,179.438032594832,178.933310260544,136.74195128143614,160.31647714298464,157.18530860185976,113.53401588291455","8,7,6,5,4,3,2,1","NETTLE WEED,NETTLE WEED,NETTLE WEED,NETTLE WEED,NETTLE WEED,NETTLE WEED,NETTLE WEED,NETTLE WEED","190,213.33946086378862,273.888713293372,272.2894733686428,218.2672080513519,239.53464264232733,269.64356952109756,284.03613957669074","8,7,6,5,4,3,2,1","WHEAT CROP,WHEAT CROP,WHEAT CROP,WHEAT CROP,WHEAT CROP,WHEAT CROP,WHEAT CROP,WHEAT CROP","0,0,0,0,0,0,0,0","20,20,20,20,20,20,20,20","10,10,10,10,10,10,10,10","20,20,20,20,20,20,20,20","20,20,20,20,20,20,20,20","20,20,20,20,20,20,20,20","0,0,0,0,0,0,0,0","20,20,20,20,20,20,20,20","10,10,10,10,10,10,10,10","20,20,20,20,20,20,20,20","20,20,20,20,20,20,20,20","20,20,20,20,20,20,20,20","1,1,0,0,1,0,0,0","2393,818,1126,857,1530,764,836,723","2.3426239294503794,57.09540866538162,-0.5047223342880037,-42.191358979107854,23.574525861548484,-3.1311685411248864,-43.651292718945214,30.06822559568546","23.339460863788606,60.549252429583376,-1.5992399247292166,-54.02226531729091,21.26743459097542,30.108926878770244,14.392570055593158,-3.2798235922490337","0","0"
"563","86","text","0","79","832324","0-0","","","","","","","","","","","","","","","","","","","","","","","","","","","","","","","","","","","","",""
"","","plant-game","0","80","854358","0-0","","200","120","8","CORN CROP","Right","200","190","2","NETTLE WEED","experimental","27","1,2,3,4,5,6,7,8","190,170.97157037360643,140,176.34040730685388,172.3170744125656,183.9370817724277,200.14118146241478,226.12751663660373","2,1,6,5,4,3,2,1","NETTLE WEED,NETTLE WEED,THISTLE WEED,THISTLE WEED,THISTLE WEED,THISTLE WEED,THISTLE WEED,THISTLE WEED","120,107.96359565087135,112.1453503945471,126.61134592475253,132.65978286960566,84.28894553788533,121.00937034565695,136.32740209413947","8,7,6,5,4,3,2,1","CORN CROP,CORN CROP,CORN CROP,CORN CROP,CORN CROP,CORN CROP,CORN CROP,CORN CROP","0,0,0,0,0,0,0,0","20,20,20,20,20,20,20,20","10,10,10,10,10,10,10,10","20,20,20,20,20,20,20,20","20,20,20,20,20,20,20,20","20,20,20,20,20,20,20,20","0,0,0,0,0,0,0,0","20,20,20,20,20,20,20,20","10,10,10,10,10,10,10,10","20,20,20,20,20,20,20,20","20,20,20,20,20,20,20,20","20,20,20,20,20,20,20,20","0,0,1,0,0,1,1,1","7117,1207,1513,568,803,565,653,60","-19.028429626393567,13.122506252466206,36.340407306853876,-4.023332894288273,11.620007359862097,16.204099689987085,25.986335174188937,3.3206290277025055","-12.036404349128647,4.1817547436757385,14.465995530205436,6.048436944853126,-48.37083733172033,36.72042480777163,15.318031748482518,4.452596080575086","0","0"
"646","86","text","0","81","855164","0-0","","","","","","","","","","","","","","","","","","","","","","","","","","","","","","","","","","","","",""
"","","plant-game","0","82","868377","0-0","","200","160","1","WHEAT CROP","Left","200","120","8","NETTLE WEED","experimental","28","1,2,3,4,5,6,7,8","160,130,147.09964139471185,163.38071550502713,181.5561514144298,215.97680024408075,229.31159831986818,235.78329479732858","1,7,6,5,4,3,2,1","WHEAT CROP,CORN CROP,CORN CROP,CORN CROP,CORN CROP,CORN CROP,CORN CROP,CORN CROP","120,105.52052953930009,145.48224879537509,139.88067507140013,139.02836860398278,139.3206136424655,178.57137165787188,206.20237045318711","8,7,6,5,4,3,2,1","NETTLE WEED,NETTLE WEED,NETTLE WEED,NETTLE WEED,NETTLE WEED,NETTLE WEED,NETTLE WEED,NETTLE WEED","20,20,20,20,20,20,20,20","20,20,20,20,20,20,20,20","10,10,10,10,10,10,10,10","20,20,20,20,20,20,20,20","0,0,0,0,0,0,0,0","20,20,20,20,20,20,20,20","20,20,20,20,20,20,20,20","20,20,20,20,20,20,20,20","10,10,10,10,10,10,10,10","20,20,20,20,20,20,20,20","0,0,0,0,0,0,0,0","20,20,20,20,20,20,20,20","1,0,0,0,0,0,0,0","1185,1348,480,499,381,702,490,867","-8.134580794373672,17.099641394711863,16.281074110315288,18.175435909402676,34.42064882965096,13.334798075787424,6.471696477460398,31.253153557460305","-14.479470460699913,39.961719256075014,-5.601573723974941,-0.8523064674173568,0.2922450384827222,39.25075801540638,27.630998795315243,22.05848415938887","0","0"
"439","86","text","0","83","868994","0-0","","","","","","","","","","","","","","","","","","","","","","","","","","","","","","","","","","","","",""
"","","plant-game","0","84","874870","0-0","","200","160","4","CORN CROP","Right","200","160","4","NETTLE WEED","experimental","29","1,2,3,4","160,181.15814525865713,221.16926566779924,235.5636662039884","4,3,2,1","NETTLE WEED,NETTLE WEED,NETTLE WEED,NETTLE WEED","160,127.41926732622886,154.36128826500268,185.39007931092183","4,3,2,1","CORN CROP,CORN CROP,CORN CROP,CORN CROP","0,0,0,0","20,20,20,20","10,10,10,10","20,20,20,20","20,20,20,20","20,20,20,20","0,0,0,0","20,20,20,20","10,10,10,10","20,20,20,20","20,20,20,20","20,20,20,20","0,1,1,1","437,1045,588,67","21.15814525865713,40.01112040914211,14.394400536189142,37.69447060652493","-32.58073267377113,26.942020938773815,31.028791045919142,15.522554697306575","0","0"
"570","86","text","0","85","875580","0-0","","","","","","","","","","","","","","","","","","","","","","","","","","","","","","","","","","","","",""
"","","plant-game","0","86","884588","0-0","","200","190","1","WHEAT CROP","Left","200","180","4","NETTLE WEED","experimental","30","1,2,3,4","190,170,202.94886683293578,207.50095351265125","1,3,2,1","WHEAT CROP,CORN CROP,CORN CROP,CORN CROP","180,223.37849628735887,235.71290088932128,237.6325440874149","4,3,2,1","NETTLE WEED,NETTLE WEED,NETTLE WEED,NETTLE WEED","20,20,20,20","20,20,20,20","10,10,10,10","20,20,20,20","0,0,0,0","20,20,20,20","20,20,20,20","20,20,20,20","10,10,10,10","20,20,20,20","0,0,0,0","20,20,20,20","0,0,1,1","1032,1450,881,545","17.263864949195938,32.94886683293579,4.552086679715474,7.8342491083612185","43.37849628735886,12.334404601962394,1.9196431980936257,29.976892043340946","0","0"
"3449","86","text","0","87","888207","0-0","","","","","","","","","","","","","","","","","","","","","","","","","","","","","","","","","","","","",""
"","","plant-game","0","88","904249","0-0","","200","160","1","CORN CROP","Left","200","160","8","NETTLE WEED","experimental","31","1,2,3,4,5,6,7,8","160,130,152.53123561262123,153.7729756576747,186.41718247133312,246.1582668022704,247.93088901990137,249.89011476520028","1,7,6,5,4,3,2,1","CORN CROP,WHEAT CROP,WHEAT CROP,WHEAT CROP,WHEAT CROP,WHEAT CROP,WHEAT CROP,WHEAT CROP","160,176.94504582826704,183.88628373377105,206.85706673151626,199.2092329035717,230.01386956943296,245.64777039146213,231.16893427342373","8,7,6,5,4,3,2,1","NETTLE WEED,NETTLE WEED,NETTLE WEED,NETTLE WEED,NETTLE WEED,NETTLE WEED,NETTLE WEED,NETTLE WEED","20,20,20,20,20,20,20,20","20,20,20,20,20,20,20,20","10,10,10,10,10,10,10,10","20,20,20,20,20,20,20,20","0,0,0,0,0,0,0,0","20,20,20,20,20,20,20,20","20,20,20,20,20,20,20,20","20,20,20,20,20,20,20,20","10,10,10,10,10,10,10,10","20,20,20,20,20,20,20,20","0,0,0,0,0,0,0,0","20,20,20,20,20,20,20,20","0,1,1,0,0,0,1,1","1852,2149,892,668,268,879,471,385","7.170931168670158,22.531235612621217,1.2417400450534524,32.644206813658435,59.74108433093727,1.7726222176309747,1.9592257452989164,11.169884875890688","16.945045828267055,6.94123790550401,22.970782997745207,-7.647833827944567,30.804636665861267,15.633900822029188,-14.478836118038396,21.96890727170343","0","0"
"443","86","text","0","89","904892","0-0","","","","","","","","","","","","","","","","","","","","","","","","","","","","","","","","","","","","",""
"","","plant-game","0","90","915310","0-0","","200","180","1","CORN CROP","Left","200","160","8","NETTLE WEED","experimental","32","1,2,3,4,5,6,7,8","180,130,157.7319863489513,160.11211209691953,167.80295341090002,182.07814447017623,214.27678633626414,222.8291421619315","1,7,6,5,4,3,2,1","CORN CROP,WHEAT CROP,WHEAT CROP,WHEAT CROP,WHEAT CROP,WHEAT CROP,WHEAT CROP,WHEAT CROP","160,209.17524463284911,274.11768784178895,333.83785839472955,349.9817045739645,384.618749462165,418.52119419746055,428.2563075853272","8,7,6,5,4,3,2,1","NETTLE WEED,NETTLE WEED,NETTLE WEED,NETTLE WEED,NETTLE WEED,NETTLE WEED,NETTLE WEED,NETTLE WEED","20,20,20,20,20,20,20,20","20,20,20,20,20,20,20,20","10,10,10,10,10,10,10,10","20,20,20,20,20,20,20,20","0,0,0,0,0,0,0,0","20,20,20,20,20,20,20,20","20,20,20,20,20,20,20,20","20,20,20,20,20,20,20,20","10,10,10,10,10,10,10,10","20,20,20,20,20,20,20,20","0,0,0,0,0,0,0,0","20,20,20,20,20,20,20,20","0,0,0,0,0,0,0,0","1210,1430,322,74,31,39,1,40","13.730636757519715,27.73198634895131,2.3801257479682363,7.6908413139804885,14.275191059276214,32.198641866087904,8.55235582566735,-22.33962509869822","49.17524463284913,64.94244320893985,59.72017055294061,16.143846179234952,34.63704488820047,33.902444735295525,9.735113387866638,-9.908479361907162","0","0"
"4477","86","text","0","91","919977","0-0","","","","","","","","","","","","","","","","","","","","","","","","","","","","","","","","","","","","",""
"","","plant-game","0","92","934235","0-0","","200","180","4","CORN CROP","Right","200","120","8","THISTLE WEED","experimental","33","1,2,3,4,5,6,7,8","120,135.89285196119647,114.28347178694304,146.3793619236886,163.68023539466208,212.29492978324367,244.29078677613566,244.31791736020443","8,7,6,5,4,3,2,1","THISTLE WEED,THISTLE WEED,THISTLE WEED,THISTLE WEED,THISTLE WEED,THISTLE WEED,THISTLE WEED,THISTLE WEED","180,187.42867677254756,182.78546989780818,195.37910170425315,160,190.99854989224713,202.88496020147647,180.15831238212573","4,3,2,1,4,3,2,1","CORN CROP,CORN CROP,CORN CROP,CORN CROP,WHEAT CROP,WHEAT CROP,WHEAT CROP,WHEAT CROP","0,0,0,0,0,0,0,0","20,20,20,20,20,20,20,20","10,10,10,10,10,10,10,10","20,20,20,20,20,20,20,20","20,20,20,20,20,20,20,20","20,20,20,20,20,20,20,20","0,0,0,0,0,0,0,0","20,20,20,20,20,20,20,20","10,10,10,10,10,10,10,10","20,20,20,20,20,20,20,20","20,20,20,20,20,20,20,20","20,20,20,20,20,20,20,20","1,1,1,1,1,0,0,1","2485,1118,638,397,1701,620,643,567","15.892851961196477,-21.60938017425343,32.095890136745574,17.300873470973485,48.61469438858158,31.995856992891987,0.027130584068761177,27.306739058734905","7.428676772547567,-4.643206874739377,12.593631806444971,-18.99826840944042,30.99854989224714,11.886410309229339,-22.726647819350745,2.9609885349807996","0","0"
"255","86","text","0","93","934648","0-0","","","","","","","","","","","","","","","","","","","","","","","","","","","","","","","","","","","","",""
"","","plant-game","0","94","953293","0-0","","200","120","1","CORN CROP","Left","200","190","8","THISTLE WEED","experimental","34","1,2,3,4,5,6,7,8","120,130,164.68567054486994,160.67959615172595,211.50525545044934,201.8427162389741,237.26779437241046,250.26090637545417","1,7,6,5,4,3,2,1","CORN CROP,WHEAT CROP,WHEAT CROP,WHEAT CROP,WHEAT CROP,WHEAT CROP,WHEAT CROP,WHEAT CROP","190,227.11313151184854,220.3707245494549,256.4541953765937,231.1676419017832,215.91743944193436,210.0651930557514,254.35249505875746","8,7,6,5,4,3,2,1","THISTLE WEED,THISTLE WEED,THISTLE WEED,THISTLE WEED,THISTLE WEED,THISTLE WEED,THISTLE WEED,THISTLE WEED","20,20,20,20,20,20,20,20","20,20,20,20,20,20,20,20","10,10,10,10,10,10,10,10","20,20,20,20,20,20,20,20","0,0,0,0,0,0,0,0","20,20,20,20,20,20,20,20","20,20,20,20,20,20,20,20","20,20,20,20,20,20,20,20","10,10,10,10,10,10,10,10","20,20,20,20,20,20,20,20","0,0,0,0,0,0,0,0","20,20,20,20,20,20,20,20","0,0,0,0,1,0,1,0","1935,1185,366,471,1499,1627,2997,649","40.61654458064773,34.68567054486992,-4.006074393143997,50.825659298723394,-9.662539211475245,35.42507813343635,12.993112003043695,34.62233275334168","37.11313151184854,-6.742406962393641,36.08347082713882,-25.28655347481049,-15.250202459848854,-5.852246386182962,44.28730200300606,47.524985565940966","0","0"
"565","86","text","0","95","954028","0-0","","","","","","","","","","","","","","","","","","","","","","","","","","","","","","","","","","","","",""
"","","plant-game","0","96","961695","0-0","","200","190","1","WHEAT CROP","Left","200","160","1","NETTLE WEED","experimental","35","1","190","1","WHEAT CROP","160","1","NETTLE WEED","20","20","10","20","0","20","20","20","10","20","0","20","0","3505","-3.911631805633945","30.97656201246393","0","0"
"2276","86","text","0","97","964111","0-0","","","","","","","","","","","","","","","","","","","","","","","","","","","","","","","","","","","","",""
"","","plant-game","0","98","978139","0-0","","200","190","1","WHEAT CROP","Left","200","160","4","NETTLE WEED","experimental","36","1,2,3,4","190,170,200.7320192546644,209.82227524603553","1,3,2,1","WHEAT CROP,CORN CROP,CORN CROP,CORN CROP","160,166.8131585551638,215.59730010816878,248.4793170392686","4,3,2,1","NETTLE WEED,NETTLE WEED,NETTLE WEED,NETTLE WEED","20,20,20,20","20,20,20,20","10,10,10,10","20,20,20,20","0,0,0,0","20,20,20,20","20,20,20,20","20,20,20,20","10,10,10,10","20,20,20,20","0,0,0,0","20,20,20,20","1,0,0,1","2198,2484,2587,892","20.80753636269936,30.732019254664422,9.090255991371112,-0.4724785065232013","6.813158555163783,48.78414155300497,32.882016931099834,-9.644771975765364","0","0"
"570","86","text","0","99","978849","0-0","","","","","","","","","","","","","","","","","","","","","","","","","","","","","","","","","","","","",""
"","","plant-game","0","100","992400","0-0","","200","120","8","WHEAT CROP","Left","200","160","4","NETTLE WEED","experimental","37","1,2,3,4,5,6,7,8","120,104.12574340329137,125.224172266054,134.9111130039736,142.16931206414483,136.79926065237797,151.7820982325502,149.39796412442496","8,7,6,5,4,3,2,1","WHEAT CROP,WHEAT CROP,WHEAT CROP,WHEAT CROP,WHEAT CROP,WHEAT CROP,WHEAT CROP,WHEAT CROP","160,169.58905174964738,202.3085925698066,210.8361820743035,160,184.27202400949446,221.69124638620883,271.2731643165361","4,3,2,1,4,3,2,1","NETTLE WEED,NETTLE WEED,NETTLE WEED,NETTLE WEED,THISTLE WEED,THISTLE WEED,THISTLE WEED,THISTLE WEED","20,20,20,20,20,20,20,20","20,20,20,20,20,20,20,20","10,10,10,10,10,10,10,10","20,20,20,20,20,20,20,20","0,0,0,0,0,0,0,0","20,20,20,20,20,20,20,20","20,20,20,20,20,20,20,20","20,20,20,20,20,20,20,20","10,10,10,10,10,10,10,10","20,20,20,20,20,20,20,20","0,0,0,0,0,0,0,0","20,20,20,20,20,20,20,20","1,0,1,1,0,0,0,0","4559,624,551,439,1302,664,164,53","-15.87425659670863,21.09842886276263,9.686940737919604,7.258199060171235,-5.370051411766859,14.982837580172244,-2.3841341081252345,56.93535046491017","9.58905174964739,32.719540820159196,8.52758950449693,5.935584027544589,24.27202400949446,37.41922237671436,49.58191793032729,33.58199308236704","0","0"
"1135","86","text","0","101","993695","0-0","","","","","","","","","","","","","","","","","","","","","","","","","","","","","","","","","","","","",""
"","","plant-game","0","102","1000269","0-0","","200","120","4","WHEAT CROP","Left","200","190","2","THISTLE WEED","experimental","38","1,2,3,4","120,106.93656883862967,144.2910038036262,149.25421672354858","4,3,2,1","WHEAT CROP,WHEAT CROP,WHEAT CROP,WHEAT CROP","190,200.35440560240838,180,198.87316677658055","2,1,2,1","THISTLE WEED,THISTLE WEED,NETTLE WEED,NETTLE WEED","20,20,20,20","20,20,20,20","10,10,10,10","20,20,20,20","0,0,0,0","20,20,20,20","20,20,20,20","20,20,20,20","10,10,10,10","20,20,20,20","0,0,0,0","20,20,20,20","0,0,1,0","538,123,171,5","-13.063431161370332,37.35443496499656,4.963212919922365,13.176976798351602","10.354405602408368,73.19283325172114,18.873166776580543,33.214935205472614","0","0"
"611","86","text","0","103","1001010","0-0","","","","","","","","","","","","","","","","","","","","","","","","","","","","","","","","","","","","",""
"","","plant-game","0","104","1018269","0-0","","200","180","8","CORN CROP","Right","200","120","1","NETTLE WEED","experimental","39","1,2,3,4,5,6,7,8","120,130,163.20590596796953,207.25536965188715,204.67308493876558,243.58091499812707,288.86804729410807,315.9519634029487","1,7,6,5,4,3,2,1","NETTLE WEED,THISTLE WEED,THISTLE WEED,THISTLE WEED,THISTLE WEED,THISTLE WEED,THISTLE WEED,THISTLE WEED","180,219.95368465958663,201.56135471317657,227.95168188980654,239.2884679539845,242.38890204794683,267.48146125792044,274.15048931113313","8,7,6,5,4,3,2,1","CORN CROP,CORN CROP,CORN CROP,CORN CROP,CORN CROP,CORN CROP,CORN CROP,CORN CROP","0,0,0,0,0,0,0,0","20,20,20,20,20,20,20,20","10,10,10,10,10,10,10,10","20,20,20,20,20,20,20,20","20,20,20,20,20,20,20,20","20,20,20,20,20,20,20,20","0,0,0,0,0,0,0,0","20,20,20,20,20,20,20,20","10,10,10,10,10,10,10,10","20,20,20,20,20,20,20,20","20,20,20,20,20,20,20,20","20,20,20,20,20,20,20,20","1,1,0,1,1,1,1,1","4661,2498,1293,774,164,668,268,87","0.2577881357662335,33.20590596796953,44.04946368391763,-2.582284713121574,38.90783005936148,45.287132295981,27.08391610884064,29.477984117788697","39.95368465958662,-18.392329946410072,26.390327176629977,11.336786064177963,3.1004340939623063,25.09255920997363,6.669028053212678,35.780417119357395","1","0"
"575","86","text","0","105","1019024","0-0","","","","","","","","","","","","","","","","","","","","","","","","","","","","","","","","","","","","",""
"","","plant-game","0","106","1030661","0-0","","200","180","2","CORN CROP","Right","200","180","1","NETTLE WEED","experimental","40","1,2","180,190","1,1","NETTLE WEED,THISTLE WEED","180,217.59886044432818","2,1","CORN CROP,CORN CROP","0,0","20,20","10,10","20,20","20,20","20,20","0,0","20,20","10,10","20,20","20,20","20,20","1,1","1001,2385","0.6058596077603831,65.34674734659194","37.59886044432818,-14.717722569508346","0","0"
"646","86","text","0","107","1031468","0-0","","","","","","","","","","","","","","","","","","","","","","","","","","","","","","","","","","","","",""
"","","plant-game","0","108","1057287","0-0","","200","180","1","CORN CROP","Left","200","180","8","NETTLE WEED","experimental","41","1,2,3,4,5,6,7,8","180,130,134.7362770985258,186.64330225525745,229.5846401658537,244.79158269631952,238.0043319332208,268.6501282292427","1,7,6,5,4,3,2,1","CORN CROP,WHEAT CROP,WHEAT CROP,WHEAT CROP,WHEAT CROP,WHEAT CROP,WHEAT CROP,WHEAT CROP","180,150.9824312929968,164.224097756969,182.49970900621904,214.99087279716582,236.91677841517603,240.41500262764654,268.4120050899322","8,7,6,5,4,3,2,1","NETTLE WEED,NETTLE WEED,NETTLE WEED,NETTLE WEED,NETTLE WEED,NETTLE WEED,NETTLE WEED,NETTLE WEED","20,20,20,20,20,20,20,20","20,20,20,20,20,20,20,20","10,10,10,10,10,10,10,10","20,20,20,20,20,20,20,20","0,0,0,0,0,0,0,0","20,20,20,20,20,20,20,20","20,20,20,20,20,20,20,20","20,20,20,20,20,20,20,20","10,10,10,10,10,10,10,10","20,20,20,20,20,20,20,20","0,0,0,0,0,0,0,0","20,20,20,20,20,20,20,20","1,0,0,0,0,0,0,0","591,1370,771,198,667,101,12,37","12.448875113330345,4.736277098525779,51.907025156731656,42.94133791059624,15.206942530465827,-6.7872507630987045,30.645796296021864,29.932557571306113","-29.01756870700318,13.241666463972205,18.275611249250037,32.4911637909468,21.9259056180102,3.498224212470525,27.997002462285707,25.82700262248866","0","0"
"158","86","text","0","109","1057632","0-0","","","","","","","","","","","","","","","","","","","","","","","","","","","","","","","","","","","","",""
"","","plant-game","0","110","1067150","0-0","","200","160","2","CORN CROP","Left","200","180","1","NETTLE WEED","experimental","42","1,2","160,148.2448979726411","2,1","CORN CROP,CORN CROP","180,190","1,1","NETTLE WEED,THISTLE WEED","20,20","20,20","10,10","20,20","0,0","20,20","20,20","20,20","10,10","20,20","0,0","20,20","1,0","846,1390","-11.755102027358904,25.686890834352234","-14.914078220102557,2.350416187845507","0","0"
"580","86","text","0","111","1067948","0-0","","","","","","","","","","","","","","","","","","","","","","","","","","","","","","","","","","","","",""
"","","plant-game","0","112","1080168","0-0","","200","180","2","WHEAT CROP","Right","200","120","8","THISTLE WEED","experimental","43","1,2,3,4,5,6,7,8","120,147.82457577529777,163.72888998542737,132.212129988338,121.35396572356323,162.46032755582314,201.8352316597322,190.97481492516175","8,7,6,5,4,3,2,1","THISTLE WEED,THISTLE WEED,THISTLE WEED,THISTLE WEED,THISTLE WEED,THISTLE WEED,THISTLE WEED,THISTLE WEED","180,202.59775212440178,140,175.2143684248206,207.66734510545058,226.748888306772,270.0369954868088,333.0442058918501","2,1,6,5,4,3,2,1","WHEAT CROP,WHEAT CROP,CORN CROP,CORN CROP,CORN CROP,CORN CROP,CORN CROP,CORN CROP","0,0,0,0,0,0,0,0","20,20,20,20,20,20,20,20","10,10,10,10,10,10,10,10","20,20,20,20,20,20,20,20","20,20,20,20,20,20,20,20","20,20,20,20,20,20,20,20","0,0,0,0,0,0,0,0","20,20,20,20,20,20,20,20","10,10,10,10,10,10,10,10","20,20,20,20,20,20,20,20","20,20,20,20,20,20,20,20","20,20,20,20,20,20,20,20","1,1,1,1,1,1,1,1","1083,1276,1197,466,307,230,593,72","27.824575775297774,15.904314210129584,-31.51675999708938,-10.858164264774771,41.10636183225989,39.374904103909046,-10.860416734570425,25.520974285361874","22.597752124401794,26.090512039737284,35.214368424820606,32.45297668062997,19.08154320132141,43.2881071800368,63.00721040504132,39.044945405552724","0","0"
"58","86","text","0","113","1080378","0-0","","","","","","","","","","","","","","","","","","","","","","","","","","","","","","","","","","","","",""
"","","plant-game","0","114","1095494","0-0","","200","190","8","CORN CROP","Right","200","180","1","THISTLE WEED","experimental","44","1,2,3,4,5,6,7,8","180,130,168.54479215902083,174.6738271703765,162.83940235704733,131.89859352696195,106.45029609214531,114.60449495169303","1,7,6,5,4,3,2,1","THISTLE WEED,NETTLE WEED,NETTLE WEED,NETTLE WEED,NETTLE WEED,NETTLE WEED,NETTLE WEED,NETTLE WEED","190,154.39758027471953,127.28166215815625,135.9957073140588,159.61861401734254,148.4319656684553,166.65394720570995,214.7835423419528","8,7,6,5,4,3,2,1","CORN CROP,CORN CROP,CORN CROP,CORN CROP,CORN CROP,CORN CROP,CORN CROP,CORN CROP","0,0,0,0,0,0,0,0","20,20,20,20,20,20,20,20","10,10,10,10,10,10,10,10","20,20,20,20,20,20,20,20","20,20,20,20,20,20,20,20","20,20,20,20,20,20,20,20","0,0,0,0,0,0,0,0","20,20,20,20,20,20,20,20","10,10,10,10,10,10,10,10","20,20,20,20,20,20,20,20","20,20,20,20,20,20,20,20","20,20,20,20,20,20,20,20","1,1,0,0,0,0,1,1","1121,1843,752,466,514,509,592,2491","15.18070889197896,38.54479215902082,6.129035011355675,-11.834424813329175,-30.94080883008538,-25.448297434816638,8.15419885954772,51.43633855164994","-35.60241972528048,-27.11591811656327,8.714045155902552,23.622906703283757,-11.186648348887251,18.221981537254656,48.12959513624283,27.2623320975852","0","0"
"549","86","text","0","115","1096183","0-0","","","","","","","","","","","","","","","","","","","","","","","","","","","","","","","","","","","","",""
"","","plant-game","0","116","1109855","0-0","","200","120","4","CORN CROP","Left","200","180","8","THISTLE WEED","experimental","45","1,2,3,4,5,6,7,8","120,160.1784011947247,160.35541830669717,203.87893280119746,160,188.23715984814336,244.44732490333593,216.35084996785034","4,3,2,1,4,3,2,1","CORN CROP,CORN CROP,CORN CROP,CORN CROP,WHEAT CROP,WHEAT CROP,WHEAT CROP,WHEAT CROP","180,237.0654505499368,220.2616938352985,236.70290138628698,212.8510431686667,234.87734491216167,245.30886893932032,215.8054568541873","8,7,6,5,4,3,2,1","THISTLE WEED,THISTLE WEED,THISTLE WEED,THISTLE WEED,THISTLE WEED,THISTLE WEED,THISTLE WEED,THISTLE WEED","20,20,20,20,20,20,20,20","20,20,20,20,20,20,20,20","10,10,10,10,10,10,10,10","20,20,20,20,20,20,20,20","0,0,0,0,0,0,0,0","20,20,20,20,20,20,20,20","20,20,20,20,20,20,20,20","20,20,20,20,20,20,20,20","10,10,10,10,10,10,10,10","20,20,20,20,20,20,20,20","0,0,0,0,0,0,0,0","20,20,20,20,20,20,20,20","0,1,1,1,0,0,1,0","1097,688,247,90,1179,620,865,534","40.178401194724685,0.17701711197246744,43.52351449450029,-29.542993688730533,28.237159848143364,56.21016505519256,-28.0964749354856,35.91902380043485","57.0654505499368,-16.803756714638297,16.441207550988487,-23.851858217620286,22.026301743494983,10.431524027158636,-29.503412085133014,24.136059485511502","0","0"
"609","86","text","0","117","1110584","0-0","","","","","","","","","","","","","","","","","","","","","","","","","","","","","","","","","","","","",""
"","","plant-game","0","118","1131837","0-0","","200","190","1","WHEAT CROP","Left","200","120","8","NETTLE WEED","experimental","46","1,2,3,4,5,6,7,8","190,130,145.3969918802473,147.3922773725906,139.4711656863759,154.96176597857692,180.9480511685119,175.56692083334386","1,7,6,5,4,3,2,1","WHEAT CROP,CORN CROP,CORN CROP,CORN CROP,CORN CROP,CORN CROP,CORN CROP,CORN CROP","120,163.20132924013984,162.5475831574842,146.1369720984156,152.33489454114968,164.03820115916557,189.32688515402762,179.73671940350786","8,7,6,5,4,3,2,1","NETTLE WEED,NETTLE WEED,NETTLE WEED,NETTLE WEED,NETTLE WEED,NETTLE WEED,NETTLE WEED,NETTLE WEED","20,20,20,20,20,20,20,20","20,20,20,20,20,20,20,20","10,10,10,10,10,10,10,10","20,20,20,20,20,20,20,20","0,0,0,0,0,0,0,0","20,20,20,20,20,20,20,20","20,20,20,20,20,20,20,20","20,20,20,20,20,20,20,20","10,10,10,10,10,10,10,10","20,20,20,20,20,20,20,20","0,0,0,0,0,0,0,0","20,20,20,20,20,20,20,20","0,1,1,0,1,0,1,0","3306,4056,700,1067,823,636,919,1325","48.31487719672677,15.396991880247304,1.9952854923433103,-7.921111686214701,15.490600292201023,25.98628518993499,-5.381130335168054,11.687489011631188","43.20132924013983,-0.6537460826556292,-16.41061105906861,6.197922442734056,11.703306618015898,25.288683994862048,-9.590165750519759,35.05432995469099","0","0"
"585","86","text","0","119","1132532","0-0","","","","","","","","","","","","","","","","","","","","","","","","","","","","","","","","","","","","",""
"","","plant-game","0","120","1140253","0-0","","200","190","2","WHEAT CROP","Right","200","120","2","THISTLE WEED","experimental","47","1,2","120,136.46074418262384","2,1","THISTLE WEED,THISTLE WEED","190,200.91307065820322","2,1","WHEAT CROP,WHEAT CROP","0,0","20,20","10,10","20,20","20,20","20,20","0,0","20,20","10,10","20,20","20,20","20,20","1,1","3480,960","16.460744182623834,-12.151777985581546","10.913070658203226,10.563106558660028","0","0"
"606","86","text","0","121","1140990","0-0","","","","","","","","","","","","","","","","","","","","","","","","","","","","","","","","","","","","",""
"","","plant-game","0","122","1155362","0-0","","200","160","2","CORN CROP","Left","200","160","4","NETTLE WEED","experimental","48","1,2,3,4","160,169.76212509065294,180,228.41260003915846","2,1,2,1","CORN CROP,CORN CROP,WHEAT CROP,WHEAT CROP","160,177.62288624597977,197.4187647200783,199.31895803400874","4,3,2,1","NETTLE WEED,NETTLE WEED,NETTLE WEED,NETTLE WEED","20,20,20,20","20,20,20,20","10,10,10,10","20,20,20,20","0,0,0,0","20,20,20,20","20,20,20,20","20,20,20,20","10,10,10,10","20,20,20,20","0,0,0,0","20,20,20,20","0,0,0,1","3825,522,1717,1645","9.762125090652953,13.229948075888366,48.41260003915846,-19.10583767730827","17.622886245979775,19.795878474098508,1.900193313930444,10.51148762693165","0","0"
"953","86","text","0","123","1156462","0-0","","","","","","","","","","","","","","","","","","","","","","","","","","","","","","","","","","","","",""
"","","plant-game","0","124","1160867","0-0","","200","180","2","CORN CROP","Left","200","180","2","NETTLE WEED","experimental","49","1,2","180,171.2414865891915","2,1","CORN CROP,CORN CROP","180,185.87403098728362","2,1","NETTLE WEED,NETTLE WEED","20,20","20,20","10,10","20,20","0,0","20,20","20,20","20,20","10,10","20,20","0,0","20,20","0,0","568,361","-8.758513410808497,-7.664390908844545","5.874030987283614,38.49377916773997","0","0"
"2301","86","text","0","125","1163348","0-0","","","","","","","","","","","","","","","","","","","","","","","","","","","","","","","","","","","","",""
"","","plant-game","0","126","1170545","0-0","","200","160","2","CORN CROP","Left","200","160","2","NETTLE WEED","experimental","50","1,2","160,162.67867474159758","2,1","CORN CROP,CORN CROP","160,175.71218495254564","2,1","NETTLE WEED,NETTLE WEED","20,20","20,20","10,10","20,20","0,0","20,20","20,20","20,20","10,10","20,20","0,0","20,20","0,0","1288,401","2.678674741597572,20.983751522867486","15.712184952545645,2.313006135188399","0","0"
"675","86","text","0","127","1171390","0-0","","","","","","","","","","","","","","","","","","","","","","","","","","","","","","","","","","","","",""
"","","plant-game","0","128","1192511","0-0","","200","120","8","WHEAT CROP","Right","200","180","2","THISTLE WEED","experimental","51","1,2,3,4,5,6,7,8","180,167.38600480146883,140,153.38065978756654,158.0070130832398,176.15071728665606,200.19724968359628,216.9219540241916","2,1,6,5,4,3,2,1","THISTLE WEED,THISTLE WEED,NETTLE WEED,NETTLE WEED,NETTLE WEED,NETTLE WEED,NETTLE WEED,NETTLE WEED","120,139.39785187756146,159.1191134800236,216.01744517460827,281.867103832333,318.1037158785949,349.7029469494104,353.64779240730667","8,7,6,5,4,3,2,1","WHEAT CROP,WHEAT CROP,WHEAT CROP,WHEAT CROP,WHEAT CROP,WHEAT CROP,WHEAT CROP,WHEAT CROP","0,0,0,0,0,0,0,0","20,20,20,20,20,20,20,20","10,10,10,10,10,10,10,10","20,20,20,20,20,20,20,20","20,20,20,20,20,20,20,20","20,20,20,20,20,20,20,20","0,0,0,0,0,0,0,0","20,20,20,20,20,20,20,20","10,10,10,10,10,10,10,10","20,20,20,20,20,20,20,20","20,20,20,20,20,20,20,20","20,20,20,20,20,20,20,20","0,0,1,1,1,0,1,1","1091,717,1594,1928,646,828,533,540","-12.61399519853118,19.979865100506373,13.38065978756654,4.62635329567326,18.143704203416277,24.04653239694021,16.72470434059532,44.782296079278396","19.39785187756147,19.721261602462146,56.89833169458466,65.84965865772472,36.23661204626195,31.59923107081546,3.9448454578962746,-5.5984506404537235","0","0"
"3956","86","text","0","129","1196577","0-0","","","","","","","","","","","","","","","","","","","","","","","","","","","","","","","","","","","","",""
"","","plant-game","0","130","1219771","0-0","","200","190","4","WHEAT CROP","Left","200","160","8","THISTLE WEED","experimental","52","1,2,3,4,5,6,7,8","190,224.14264527370042,231.22308226976085,204.76624652889092,160,178.26501478874005,158.7112721653732,168.63424517071797","4,3,2,1,4,3,2,1","WHEAT CROP,WHEAT CROP,WHEAT CROP,WHEAT CROP,CORN CROP,CORN CROP,CORN CROP,CORN CROP","160,172.35510615300876,217.51266120026497,217.96700532034876,212.7332560957413,201.6674363597886,246.83435175150788,249.47803378111152","8,7,6,5,4,3,2,1","THISTLE WEED,THISTLE WEED,THISTLE WEED,THISTLE WEED,THISTLE WEED,THISTLE WEED,THISTLE WEED,THISTLE WEED","20,20,20,20,20,20,20,20","20,20,20,20,20,20,20,20","10,10,10,10,10,10,10,10","20,20,20,20,20,20,20,20","0,0,0,0,0,0,0,0","20,20,20,20,20,20,20,20","20,20,20,20,20,20,20,20","20,20,20,20,20,20,20,20","10,10,10,10,10,10,10,10","20,20,20,20,20,20,20,20","0,0,0,0,0,0,0,0","20,20,20,20,20,20,20,20","0,0,1,0,0,0,1,1","10452,1188,580,662,1475,341,539,394","34.14264527370043,7.08043699606044,-26.456835740869927,-18.14555588650557,18.265014788740046,-19.55374262336686,9.922973005344758,-6.37000179650173","12.355106153008748,45.1575550472562,0.4543441200837858,-5.233749224607479,-11.065819735952672,45.16691539171927,2.6436820296036374,1.5521653109236435","1","0"
"678","86","text","0","131","1220599","0-0","","","","","","","","","","","","","","","","","","","","","","","","","","","","","","","","","","","","",""
"","","plant-game","0","132","1225938","0-0","","200","160","1","CORN CROP","Left","200","180","2","THISTLE WEED","experimental","53","1,2","160,190","1,1","CORN CROP,WHEAT CROP","180,229.69799805000355","2,1","THISTLE WEED,THISTLE WEED","20,20","20,20","10,10","20,20","0,0","20,20","20,20","20,20","10,10","20,20","0,0","20,20","0,1","353,557","-26.15060263623272,40.34579361949032","49.69799805000356,22.949503496716535","0","0"
"557","86","text","0","133","1226645","0-0","","","","","","","","","","","","","","","","","","","","","","","","","","","","","","","","","","","","",""
"","","plant-game","0","134","1237800","0-0","","200","120","1","WHEAT CROP","Right","200","180","8","THISTLE WEED","experimental","54","1,2,3,4,5,6,7,8","180,197.86478010968256,225.05592966608447,285.16351474130477,293.7775291587869,319.7447608801863,326.9498027603386,319.490905933865","8,7,6,5,4,3,2,1","THISTLE WEED,THISTLE WEED,THISTLE WEED,THISTLE WEED,THISTLE WEED,THISTLE WEED,THISTLE WEED,THISTLE WEED","120,130,176.03218244550763,182.35227312398234,198.23252398899567,233.20096735344237,226.47433497181885,247.45066176710947","1,7,6,5,4,3,2,1","WHEAT CROP,CORN CROP,CORN CROP,CORN CROP,CORN CROP,CORN CROP,CORN CROP,CORN CROP","0,0,0,0,0,0,0,0","20,20,20,20,20,20,20,20","10,10,10,10,10,10,10,10","20,20,20,20,20,20,20,20","20,20,20,20,20,20,20,20","20,20,20,20,20,20,20,20","0,0,0,0,0,0,0,0","20,20,20,20,20,20,20,20","10,10,10,10,10,10,10,10","20,20,20,20,20,20,20,20","20,20,20,20,20,20,20,20","20,20,20,20,20,20,20,20","0,1,1,1,1,1,1,1","196,846,546,300,457,1171,343,281","17.86478010968257,27.19114955640191,60.1075850752203,8.614014417482089,25.967231721399415,7.205041880152336,-7.458896826473598,52.437075638535106","21.072214019269584,46.03218244550763,6.320090678474706,15.880250865013323,34.96844336444669,-6.7266323816235065,20.97632679529062,27.00104592879292","0","0"
"408","86","text","0","135","1238348","0-0","","","","","","","","","","","","","","","","","","","","","","","","","","","","","","","","","","","","",""
"","","plant-game","0","136","1246935","0-0","","200","190","8","WHEAT CROP","Right","200","190","8","NETTLE WEED","experimental","55","1,2,3,4,5,6,7,8","190,182.7052106246417,189.99359728540512,178.3388715580587,211.81738509598267,235.23779651234676,252.3103964782163,275.25588584360577","8,7,6,5,4,3,2,1","NETTLE WEED,NETTLE WEED,NETTLE WEED,NETTLE WEED,NETTLE WEED,NETTLE WEED,NETTLE WEED,NETTLE WEED","190,219.4258428145517,217.1917963448963,198.59813205793392,220.42260130933946,233.1052366822938,246.13194178100127,225.18292894010273","8,7,6,5,4,3,2,1","WHEAT CROP,WHEAT CROP,WHEAT CROP,WHEAT CROP,WHEAT CROP,WHEAT CROP,WHEAT CROP,WHEAT CROP","0,0,0,0,0,0,0,0","20,20,20,20,20,20,20,20","10,10,10,10,10,10,10,10","20,20,20,20,20,20,20,20","20,20,20,20,20,20,20,20","20,20,20,20,20,20,20,20","0,0,0,0,0,0,0,0","20,20,20,20,20,20,20,20","10,10,10,10,10,10,10,10","20,20,20,20,20,20,20,20","20,20,20,20,20,20,20,20","20,20,20,20,20,20,20,20","1,1,0,1,1,1,1,1","869,566,648,519,688,241,180,149","-7.294789375358306,7.28838666076342,-11.65472572734641,33.478513537923945,23.420411416364093,17.072599965869532,22.945489365389463,28.13347555765155","29.425842814551675,-2.2340464696553894,-18.593664286962373,21.824469251405525,12.682635372954325,13.026705098707483,-20.949012840898533,65.45312660521236","0","0"
"887","86","text","0","137","1248022","0-0","","","","","","","","","","","","","","","","","","","","","","","","","","","","","","","","","","","","",""
"","","plant-game","0","138","1258834","0-0","","200","190","8","CORN CROP","Left","200","190","2","THISTLE WEED","experimental","56","1,2,3,4,5,6,7,8","190,166.40979803299217,123.8270574005131,153.01309777268722,130.7516104979819,99.8074315929195,114.4699858192732,98.30392085697761","8,7,6,5,4,3,2,1","CORN CROP,CORN CROP,CORN CROP,CORN CROP,CORN CROP,CORN CROP,CORN CROP,CORN CROP","190,197.96987039892724,140,127.82187790609902,140.54047000657826,140.3485686525897,137.00582536085818,143.73304292296785","2,1,6,5,4,3,2,1","THISTLE WEED,THISTLE WEED,NETTLE WEED,NETTLE WEED,NETTLE WEED,NETTLE WEED,NETTLE WEED,NETTLE WEED","20,20,20,20,20,20,20,20","20,20,20,20,20,20,20,20","10,10,10,10,10,10,10,10","20,20,20,20,20,20,20,20","0,0,0,0,0,0,0,0","20,20,20,20,20,20,20,20","20,20,20,20,20,20,20,20","20,20,20,20,20,20,20,20","10,10,10,10,10,10,10,10","20,20,20,20,20,20,20,20","0,0,0,0,0,0,0,0","20,20,20,20,20,20,20,20","1,1,1,1,1,1,1,1","177,212,1947,118,66,142,130,111","-23.59020196700783,-42.58274063247907,29.186040372174133,-22.261487274705324,-30.944178905062394,14.662554226353702,-16.1660649622956,5.117554390892524","7.969870398927244,25.364501588528675,-12.178122093900981,12.718592100479253,-0.1919013539885621,-3.342743291731529,6.72721756210966,-8.844540937487412","0","0"
"2461","86","text","0","139","1261515","0-0","","","","","","","","","","","","","","","","","","","","","","","","","","","","","","","","","","","","",""
"","","plant-game","0","140","1270823","0-0","","200","120","8","WHEAT CROP","Right","200","180","8","THISTLE WEED","experimental","57","1,2,3,4,5,6,7,8","180,191.01813041236798,220.1722174119278,244.82963934028345,183.83762978733415,203.67674726528645,195.93448539574214,221.86302684689412","8,7,6,5,4,3,2,1","THISTLE WEED,THISTLE WEED,THISTLE WEED,THISTLE WEED,THISTLE WEED,THISTLE WEED,THISTLE WEED,THISTLE WEED","120,143.5770915184346,114.78524410783723,128.4664536728049,144.69355832317427,129.20660932643648,147.715106841763,142.36354133324812","8,7,6,5,4,3,2,1","WHEAT CROP,WHEAT CROP,WHEAT CROP,WHEAT CROP,WHEAT CROP,WHEAT CROP,WHEAT CROP,WHEAT CROP","0,0,0,0,0,0,0,0","20,20,20,20,20,20,20,20","10,10,10,10,10,10,10,10","20,20,20,20,20,20,20,20","20,20,20,20,20,20,20,20","20,20,20,20,20,20,20,20","0,0,0,0,0,0,0,0","20,20,20,20,20,20,20,20","10,10,10,10,10,10,10,10","20,20,20,20,20,20,20,20","20,20,20,20,20,20,20,20","20,20,20,20,20,20,20,20","0,0,0,0,0,0,0,0","1818,234,270,157,183,217,1043,1786","11.018130412367992,29.15408699955982,24.657421928355664,-60.9920095529493,19.839117477952303,-7.742261869544315,25.928541451151986,-1.502138095170273","23.5770915184346,-28.791847410597367,13.681209564967684,16.227104650369363,-15.486948996737802,18.50849751532653,-5.351565508514893,-19.615068143882734","0","0"
"86","86","text","0","141","1271059","0-0","","","","","","","","","","","","","","","","","","","","","","","","","","","","","","","","","","","","",""
"","","plant-game","0","142","1277147","0-0","","200","160","4","WHEAT CROP","Left","200","180","2","NETTLE WEED","experimental","58","1,2,3,4","160,197.43004250904482,240.7520652686477,256.4632929411913","4,3,2,1","WHEAT CROP,WHEAT CROP,WHEAT CROP,WHEAT CROP","180,161.39823258776642,180,182.672673634871","2,1,2,1","NETTLE WEED,NETTLE WEED,THISTLE WEED,THISTLE WEED","20,20,20,20","20,20,20,20","10,10,10,10","20,20,20,20","0,0,0,0","20,20,20,20","20,20,20,20","20,20,20,20","10,10,10,10","20,20,20,20","0,0,0,0","20,20,20,20","0,0,0,0","561,132,874,87","37.43004250904482,43.32202275960286,15.7112276725436,10.718637161992703","-18.601767412233585,3.8987680206368367,2.672673634871,36.06727781600584","0","0"
"176","86","text","0","143","1277463","0-0","","","","","","","","","","","","","","","","","","","","","","","","","","","","","","","","","","","","",""
"","","plant-game","0","144","1287052","0-0","","200","190","8","CORN CROP","Left","200","180","2","THISTLE WEED","experimental","59","1,2,3,4,5,6,7,8","190,165.6675496350975,190.81250604319823,205.0573748516781,228.6465639845489,258.98221216631265,312.23257562928893,354.2582574216333","8,7,6,5,4,3,2,1","CORN CROP,CORN CROP,CORN CROP,CORN CROP,CORN CROP,CORN CROP,CORN CROP,CORN CROP","180,165.54690299900514,140,135.54671660535226,182.3346025996892,201.76011808424835,275.4444996189915,273.93655017561525","2,1,6,5,4,3,2,1","THISTLE WEED,THISTLE WEED,NETTLE WEED,NETTLE WEED,NETTLE WEED,NETTLE WEED,NETTLE WEED,NETTLE WEED","20,20,20,20,20,20,20,20","20,20,20,20,20,20,20,20","10,10,10,10,10,10,10,10","20,20,20,20,20,20,20,20","0,0,0,0,0,0,0,0","20,20,20,20,20,20,20,20","20,20,20,20,20,20,20,20","20,20,20,20,20,20,20,20","10,10,10,10,10,10,10,10","20,20,20,20,20,20,20,20","0,0,0,0,0,0,0,0","20,20,20,20,20,20,20,20","0,0,0,0,0,0,0,0","877,153,1436,103,74,87,395,419","-24.332450364902513,25.144956408100732,14.244868808479877,23.589189132870775,30.33564818176378,53.25036346297631,42.025681792344386,1.712814858838108","-14.453097000994866,41.89123831248598,-4.453283394647748,46.78788599433694,19.425515484559163,73.68438153474312,-1.5079494433762406,13.157266104891056","0","0"
"186","86","text","0","145","1287420","0-0","","","","","","","","","","","","","","","","","","","","","","","","","","","","","","","","","","","","",""
"","","plant-game","0","146","1293120","0-0","","200","180","1","CORN CROP","Right","200","120","2","THISTLE WEED","experimental","60","1,2","120,137.9351940392682","2,1","THISTLE WEED,THISTLE WEED","180,190","1,1","CORN CROP,WHEAT CROP","0,0","20,20","10,10","20,20","20,20","20,20","0,0","20,20","10,10","20,20","20,20","20,20","1,1","233,747","17.93519403926821,35.6267931417683","20.594766196089502,44.93251842959627","0","0"
"215","86","text","0","147","1293455","0-0","","","","","","","","","","","","","","","","","","","","","","","","","","","","","","","","","","","","",""
"","","plant-game","0","148","1302863","0-0","","200","120","8","CORN CROP","Right","200","190","8","NETTLE WEED","experimental","61","1,2,3,4,5,6,7,8","190,193.71405721706333,222.66798280039552,221.95740605779108,213.80836479595487,235.38530343365102,232.67312566749447,282.7783011608606","8,7,6,5,4,3,2,1","NETTLE WEED,NETTLE WEED,NETTLE WEED,NETTLE WEED,NETTLE WEED,NETTLE WEED,NETTLE WEED,NETTLE WEED","120,107.99157065005394,110.58354188988307,94.56487554551916,45.55026024154021,7.570533018828826,0,17.42410930275705","8,7,6,5,4,3,2,1","CORN CROP,CORN CROP,CORN CROP,CORN CROP,CORN CROP,CORN CROP,CORN CROP,CORN CROP","0,0,0,0,0,0,0,0","20,20,20,20,20,20,20,20","10,10,10,10,10,10,10,10","20,20,20,20,20,20,20,20","20,20,20,20,20,20,20,20","20,20,20,20,20,20,20,20","0,0,0,0,0,0,0,0","20,20,20,20,20,20,20,20","10,10,10,10,10,10,10,10","20,20,20,20,20,20,20,20","20,20,20,20,20,20,20,20","20,20,20,20,20,20,20,20","1,0,0,0,0,0,1,1","545,898,327,142,97,89,1662,91","3.714057217063342,28.9539255833322,-0.7105767426044496,-8.14904126183619,21.57693863769613,-2.712177766156534,50.10517549336613,2.3821589050397627","-12.008429349946049,2.591971239829118,-16.018666344363908,-49.01461530397895,-37.97972722271138,-22.317100703437887,17.42410930275705,-1.0545296441256937","0","0"
"651","86","text","0","149","1303634","0-0","","","","","","","","","","","","","","","","","","","","","","","","","","","","","","","","","","","","",""
"","","plant-game","0","150","1316295","0-0","","200","120","8","WHEAT CROP","Right","200","120","8","THISTLE WEED","experimental","62","1,2,3,4,5,6,7,8","120,133.88560989893577,151.9516471866196,146.1398966487248,172.68894702361376,170.73886663142932,205.48186455929277,195.95927490100377","8,7,6,5,4,3,2,1","THISTLE WEED,THISTLE WEED,THISTLE WEED,THISTLE WEED,THISTLE WEED,THISTLE WEED,THISTLE WEED,THISTLE WEED","120,147.29628737702035,190.6998522946558,233.6244343975982,212.02879526001746,222.64188195863514,212.01484198622262,237.85928326846005","8,7,6,5,4,3,2,1","WHEAT CROP,WHEAT CROP,WHEAT CROP,WHEAT CROP,WHEAT CROP,WHEAT CROP,WHEAT CROP,WHEAT CROP","0,0,0,0,0,0,0,0","20,20,20,20,20,20,20,20","10,10,10,10,10,10,10,10","20,20,20,20,20,20,20,20","20,20,20,20,20,20,20,20","20,20,20,20,20,20,20,20","0,0,0,0,0,0,0,0","20,20,20,20,20,20,20,20","10,10,10,10,10,10,10,10","20,20,20,20,20,20,20,20","20,20,20,20,20,20,20,20","20,20,20,20,20,20,20,20","1,1,1,1,1,1,1,0","2419,153,144,260,996,420,708,1444","13.885609898935781,18.066037287683827,-5.811750537894799,26.54905037488895,-1.9500803921844359,34.74299792786344,-9.522589658289007,3.464610258155116","27.29628737702035,43.40356491763547,42.924582102942395,-21.595639137580747,10.613086698617668,-10.627039972412522,25.84444128223744,-13.93599725058861","3","0"
"667","86","text","0","151","1317112","0-0","","","","","","","","","","","","","","","","","","","","","","","","","","","","","","","","","","","","",""
"","","plant-game","0","152","1329977","0-0","","200","190","4","WHEAT CROP","Right","200","180","1","THISTLE WEED","experimental","63","1,2,3,4","180,170,137.0724629427632,176.86397180875727","1,3,2,1","THISTLE WEED,NETTLE WEED,NETTLE WEED,NETTLE WEED","190,197.88978065427366,207.7517338810959,201.35548145390803","4,3,2,1","WHEAT CROP,WHEAT CROP,WHEAT CROP,WHEAT CROP","0,0,0,0","20,20,20,20","10,10,10,10","20,20,20,20","20,20,20,20","20,20,20,20","0,0,0,0","20,20,20,20","10,10,10,10","20,20,20,20","20,20,20,20","20,20,20,20","1,0,0,1","1322,628,663,644","23.034051443846693,-32.92753705723682,39.79150886599407,14.68108680229988","7.889780654273672,9.861953226822227,-6.396252427187879,32.56747107875878","0","0"
"1454","86","text","0","153","1331611","0-0","","","","","","","","","","","","","","","","","","","","","","","","","","","","","","","","","","","","",""
"","","plant-game","0","154","1343887","0-0","","200","160","1","CORN CROP","Right","200","120","4","NETTLE WEED","experimental","64","1,2,3,4","120,130.5766721199141,133.66359004588386,162.2153696858945","4,3,2,1","NETTLE WEED,NETTLE WEED,NETTLE WEED,NETTLE WEED","160,170,180.09265432668195,163.2209715585269","1,3,2,1","CORN CROP,WHEAT CROP,WHEAT CROP,WHEAT CROP","0,0,0,0","20,20,20,20","10,10,10,10","20,20,20,20","20,20,20,20","20,20,20,20","0,0,0,0","20,20,20,20","10,10,10,10","20,20,20,20","20,20,20,20","20,20,20,20","0,0,0,0","682,629,908,297","10.576672119914086,3.086917925969783,28.551779640010633,-25.005270851394332","15.59358891285304,10.09265432668196,-16.87168276815505,4.903893882665239","0","0"
"134","86","text","0","155","1344162","0-0","","","","","","","","","","","","","","","","","","","","","","","","","","","","","","","","","","","","",""
"","","plant-game","0","156","1358395","0-0","","200","120","4","CORN CROP","Left","200","160","2","NETTLE WEED","experimental","65","1,2,3,4","120,118.92988742710757,139.61137411257587,109.76979245464977","4,3,2,1","CORN CROP,CORN CROP,CORN CROP,CORN CROP","160,174.54684797603792,180,206.2700035069981","2,1,2,1","NETTLE WEED,NETTLE WEED,THISTLE WEED,THISTLE WEED","20,20,20,20","20,20,20,20","10,10,10,10","20,20,20,20","0,0,0,0","20,20,20,20","20,20,20,20","20,20,20,20","10,10,10,10","20,20,20,20","0,0,0,0","20,20,20,20","1,1,1,1","664,364,494,931","-1.0701125728924237,20.68148668546831,-29.841581657926092,-29.493318355434145","14.546847976037927,-30.84600719570024,26.270003506998115,40.03512489843566","0","0"
"1654","86","text","0","157","1360259","0-0","","","","","","","","","","","","","","","","","","","","","","","","","","","","","","","","","","","","",""
"","","plant-game","0","158","1373160","0-0","","200","160","8","WHEAT CROP","Left","200","180","4","THISTLE WEED","experimental","66","1,2,3,4,5,6,7,8","160,207.0321411883692,237.26901730034695,259.30613804038614,262.1919227016888,286.81481802524434,308.64243798202375,291.3711500881811","8,7,6,5,4,3,2,1","WHEAT CROP,WHEAT CROP,WHEAT CROP,WHEAT CROP,WHEAT CROP,WHEAT CROP,WHEAT CROP,WHEAT CROP","180,175.190902778547,203.14167482939098,213.62223047505344,160,205.0675059691181,195.14698797474583,235.94124912095484","4,3,2,1,4,3,2,1","THISTLE WEED,THISTLE WEED,THISTLE WEED,THISTLE WEED,NETTLE WEED,NETTLE WEED,NETTLE WEED,NETTLE WEED","20,20,20,20,20,20,20,20","20,20,20,20,20,20,20,20","10,10,10,10,10,10,10,10","20,20,20,20,20,20,20,20","0,0,0,0,0,0,0,0","20,20,20,20,20,20,20,20","20,20,20,20,20,20,20,20","20,20,20,20,20,20,20,20","10,10,10,10,10,10,10,10","20,20,20,20,20,20,20,20","0,0,0,0,0,0,0,0","20,20,20,20,20,20,20,20","0,0,0,1,0,1,0,1","1179,247,225,150,3419,190,52,52","47.032141188369195,30.23687611197776,22.0371207400392,2.8857846613026243,24.62289532355555,21.827619956779397,-17.27128789384266,-31.18162257632275","-4.8090972214529835,27.95077205084398,10.480555645662463,5.594168233304854,45.06750596911807,-9.920517994372272,40.794261146209,-19.807242880482168","0","0"
"253","86","text","0","159","1373663","0-0","","","","","","","","","","","","","","","","","","","","","","","","","","","","","","","","","","","","",""
"","","plant-game","0","160","1385962","0-0","","200","160","2","CORN CROP","Left","200","120","8","NETTLE WEED","experimental","67","1,2,3,4,5,6,7,8","160,149.27455546559256,140,156.4022561825217,186.96822046844318,151.5615372449401,173.9639465834427,129.26635704041385","2,1,6,5,4,3,2,1","CORN CROP,CORN CROP,WHEAT CROP,WHEAT CROP,WHEAT CROP,WHEAT CROP,WHEAT CROP,WHEAT CROP","120,143.38550032065447,130.26630527956564,118.3252269698923,117.79219148933923,126.30865091898167,143.25911380422394,138.9491685659394","8,7,6,5,4,3,2,1","NETTLE WEED,NETTLE WEED,NETTLE WEED,NETTLE WEED,NETTLE WEED,NETTLE WEED,NETTLE WEED,NETTLE WEED","20,20,20,20,20,20,20,20","20,20,20,20,20,20,20,20","10,10,10,10,10,10,10,10","20,20,20,20,20,20,20,20","0,0,0,0,0,0,0,0","20,20,20,20,20,20,20,20","20,20,20,20,20,20,20,20","20,20,20,20,20,20,20,20","10,10,10,10,10,10,10,10","20,20,20,20,20,20,20,20","0,0,0,0,0,0,0,0","20,20,20,20,20,20,20,20","0,0,1,1,1,0,1,0","535,2486,780,488,284,189,207,264","-10.725444534407455,9.304205982043,16.40225618252171,30.565964285921467,-35.40668322350309,22.40240933850258,-44.69758954302883,0.13367231341652897","23.385500320654465,-13.11919504108883,-11.941078309673339,-0.5330354805530741,8.516459429642444,16.95046288524226,-4.30994523828454,9.09676893356914","0","0"
"903","86","text","0","161","1387021","0-0","","","","","","","","","","","","","","","","","","","","","","","","","","","","","","","","","","","","",""
"","","plant-game","0","162","1401414","0-0","","200","160","8","CORN CROP","Right","200","190","1","THISTLE WEED","experimental","68","1,2,3,4,5,6,7,8","190,130,146.13500094528197,120.63476785760726,133.41812771404472,187.0845383939768,168.00175602820195,167.04364589509376","1,7,6,5,4,3,2,1","THISTLE WEED,NETTLE WEED,NETTLE WEED,NETTLE WEED,NETTLE WEED,NETTLE WEED,NETTLE WEED,NETTLE WEED","160,183.44583939319816,214.62308248679284,207.675367892203,199.55298768518614,234.5737707433023,214.5199331546604,260.18941399301536","8,7,6,5,4,3,2,1","CORN CROP,CORN CROP,CORN CROP,CORN CROP,CORN CROP,CORN CROP,CORN CROP,CORN CROP","0,0,0,0,0,0,0,0","20,20,20,20,20,20,20,20","10,10,10,10,10,10,10,10","20,20,20,20,20,20,20,20","20,20,20,20,20,20,20,20","20,20,20,20,20,20,20,20","0,0,0,0,0,0,0,0","20,20,20,20,20,20,20,20","10,10,10,10,10,10,10,10","20,20,20,20,20,20,20,20","20,20,20,20,20,20,20,20","20,20,20,20,20,20,20,20","1,0,0,0,1,0,1,1","1243,1251,524,513,393,1359,531,1123","14.930042793509271,16.135000945281973,-25.500233087674715,12.783359856437466,53.66641067993207,-19.082782365774847,-0.9581101331081996,21.64970455565919","23.445839393198145,31.177243093594697,-6.947714594589833,-8.122380207016878,35.02078305811618,-20.053837588641905,45.669480838354964,24.8587294268001","0","0"
"11655","86","text","0","163","1413225","0-0","","","","","","","","","","","","","","","","","","","","","","","","","","","","","","","","","","","","",""
"","","plant-game","0","164","1427940","0-0","","200","180","8","WHEAT CROP","Right","200","190","4","THISTLE WEED","experimental","69","1,2,3,4,5,6,7,8","190,198.52918544591319,185.156451192235,175.4825977501707,160,182.52680586642427,219.78520594391543,227.05885723975987","4,3,2,1,4,3,2,1","THISTLE WEED,THISTLE WEED,THISTLE WEED,THISTLE WEED,NETTLE WEED,NETTLE WEED,NETTLE WEED,NETTLE WEED","180,234.47807474306694,238.927900516099,260.5498727610946,327.35332216997006,334.95592472283477,331.20886345494233,366.106059322888","8,7,6,5,4,3,2,1","WHEAT CROP,WHEAT CROP,WHEAT CROP,WHEAT CROP,WHEAT CROP,WHEAT CROP,WHEAT CROP,WHEAT CROP","0,0,0,0,0,0,0,0","20,20,20,20,20,20,20,20","10,10,10,10,10,10,10,10","20,20,20,20,20,20,20,20","20,20,20,20,20,20,20,20","20,20,20,20,20,20,20,20","0,0,0,0,0,0,0,0","20,20,20,20,20,20,20,20","10,10,10,10,10,10,10,10","20,20,20,20,20,20,20,20","20,20,20,20,20,20,20,20","20,20,20,20,20,20,20,20","1,1,1,1,1,1,1,1","1065,143,206,183,1022,311,418,100","8.529185445913177,-13.37273425367816,-9.673853442064313,4.558920262712981,22.526805866424272,37.25840007749115,7.273651295844436,33.32516710118345","54.478074743066955,4.449825773032039,21.62197224499563,66.80344940887542,7.6026025528647345,-3.747061267892459,34.89719586794563,5.093944642324029","0","0"
"1175","86","text","0","165","1429275","0-0","","","","","","","","","","","","","","","","","","","","","","","","","","","","","","","","","","","","",""
"","","plant-game","0","166","1438313","0-0","","200","120","2","WHEAT CROP","Right","200","120","1","THISTLE WEED","experimental","70","1,2","120,190","1,1","THISTLE WEED,NETTLE WEED","120,185.3417768139829","2,1","WHEAT CROP,WHEAT CROP","0,0","20,20","10,10","20,20","20,20","20,20","0,0","20,20","10,10","20,20","20,20","20,20","1,1","2535,766","0.6037715823278056,-20.281042274027598","65.3417768139829,18.762457950794218","0","0"
"623","86","text","0","167","1439094","0-0","","","","","","","","","","","","","","","","","","","","","","","","","","","","","","","","","","","","",""
"","","plant-game","0","168","1447441","0-0","","200","180","2","CORN CROP","Right","200","160","4","NETTLE WEED","experimental","71","1,2,3,4","160,144.50834938119615,115.19816628683631,109.57574199206195","4,3,2,1","NETTLE WEED,NETTLE WEED,NETTLE WEED,NETTLE WEED","180,177.84811879411754,180,167.3234686504519","2,1,2,1","CORN CROP,CORN CROP,WHEAT CROP,WHEAT CROP","0,0,0,0","20,20,20,20","10,10,10,10","20,20,20,20","20,20,20,20","20,20,20,20","0,0,0,0","20,20,20,20","10,10,10,10","20,20,20,20","20,20,20,20","20,20,20,20","1,1,1,1","905,570,952,384","-15.491650618803845,-29.310183094359836,-5.622424294774369,16.935956176419083","-2.151881205882468,29.121241982774148,-12.676531349548085,-2.5474365726799135","0","0"
"891","86","text","0","169","1448542","0-0","","","","","","","","","","","","","","","","","","","","","","","","","","","","","","","","","","","","",""
"","","plant-game","0","170","1454561","0-0","","200","160","1","WHEAT CROP","Left","200","160","1","NETTLE WEED","experimental","72","1","160","1","WHEAT CROP","160","1","NETTLE WEED","20","20","10","20","0","20","20","20","10","20","0","20","0","1214","41.05108290411541","23.053188714756487","0","0"
"13137","86","text","0","171","1467838","0-0","","","","","","","","","","","","","","","","","","","","","","","","","","","","","","","","","","","","",""
"","","plant-game","0","172","1481338","0-0","","200","190","1","WHEAT CROP","Left","200","190","4","NETTLE WEED","experimental","73","1,2,3,4","190,170,172.0774762596692,199.81933922109107","1,3,2,1","WHEAT CROP,CORN CROP,CORN CROP,CORN CROP","190,207.0340495990844,212.74908847899917,242.27794368830882","4,3,2,1","NETTLE WEED,NETTLE WEED,NETTLE WEED,NETTLE WEED","20,20,20,20","20,20,20,20","10,10,10,10","20,20,20,20","0,0,0,0","20,20,20,20","20,20,20,20","20,20,20,20","10,10,10,10","20,20,20,20","0,0,0,0","20,20,20,20","0,1,0,0","1459,706,716,954","9.285674282326426,2.0774762596692082,27.741862961421887,25.335100981302677","17.03404959908441,5.715038879914767,29.528855209309647,24.617951567439224","0","0"
"102","86","text","0","173","1481538","0-0","","","","","","","","","","","","","","","","","","","","","","","","","","","","","","","","","","","","",""
"","","plant-game","0","174","1485752","0-0","","200","120","1","CORN CROP","Left","200","190","2","NETTLE WEED","experimental","74","1,2","120,190","1,1","CORN CROP,WHEAT CROP","190,167.97336891190105","2,1","NETTLE WEED,NETTLE WEED","20,20","20,20","10,10","20,20","0,0","20,20","20,20","20,20","10,10","20,20","0,0","20,20","1,0","89,563","11.45952592231438,48.08094462382913","-22.026631088098966,47.94917374430294","0","0"
"92","86","text","0","175","1485964","0-0","","","","","","","","","","","","","","","","","","","","","","","","","","","","","","","","","","","","",""
"","","plant-game","0","176","1519183","0-0","","200","160","8","CORN CROP","Right","200","190","2","THISTLE WEED","experimental","75","1,2,3,4,5,6,7,8","190,183.76892050338253,140,138.30723614664657,173.59219053978697,198.161768179175,229.24655667169904,240.6780839140929","2,1,6,5,4,3,2,1","THISTLE WEED,THISTLE WEED,NETTLE WEED,NETTLE WEED,NETTLE WEED,NETTLE WEED,NETTLE WEED,NETTLE WEED","160,187.21738579829525,187.3523949292831,200.185721485932,167.01591638988862,167.47083802725842,168.16592614554045,197.70689278698694","8,7,6,5,4,3,2,1","CORN CROP,CORN CROP,CORN CROP,CORN CROP,CORN CROP,CORN CROP,CORN CROP,CORN CROP","0,0,0,0,0,0,0,0","20,20,20,20,20,20,20,20","10,10,10,10,10,10,10,10","20,20,20,20,20,20,20,20","20,20,20,20,20,20,20,20","20,20,20,20,20,20,20,20","0,0,0,0,0,0,0,0","20,20,20,20,20,20,20,20","10,10,10,10,10,10,10,10","20,20,20,20,20,20,20,20","20,20,20,20,20,20,20,20","20,20,20,20,20,20,20,20","0,0,0,0,0,0,1,0","369,162,872,138,138,135,16582,7297","-6.231079496617475,-26.624221408606875,-1.692763853353418,35.284954393140396,24.569577639388015,31.084788492524037,11.431527242393862,-12.421743042210657","27.217385798295254,0.13500913098782913,12.8333265566489,-33.16980509604339,0.4549216373698051,0.695088118282025,29.540966641446477,38.524242322168774","0","0"
"1001","86","text","0","177","1520324","0-0","","","","","","","","","","","","","","","","","","","","","","","","","","","","","","","","","","","","",""
"","","plant-game","0","178","1527710","0-0","","200","190","4","CORN CROP","Left","200","190","2","NETTLE WEED","experimental","76","1,2,3,4","190,227.47766444521056,217.4309976147504,235.34201927833715","4,3,2,1","CORN CROP,CORN CROP,CORN CROP,CORN CROP","190,183.374129251451,180,179.29045270181365","2,1,2,1","NETTLE WEED,NETTLE WEED,THISTLE WEED,THISTLE WEED","20,20,20,20","20,20,20,20","10,10,10,10","20,20,20,20","0,0,0,0","20,20,20,20","20,20,20,20","20,20,20,20","10,10,10,10","20,20,20,20","0,0,0,0","20,20,20,20","1,1,0,0","591,461,540,387","37.47766444521055,-10.046666830460174,17.91102166358675,25.430355930709766","-6.625870748549008,-8.275774642621167,-0.7095472981863367,26.593326072705892","0","0"
"274","86","text","0","179","1528164","0-0","","","","","","","","","","","","","","","","","","","","","","","","","","","","","","","","","","","","",""
"","","plant-game","0","180","1548191","0-0","","200","120","2","WHEAT CROP","Right","200","160","8","NETTLE WEED","experimental","77","1,2,3,4,5,6,7,8","160,139.57970191927635,149.5413366071523,150.83254007081248,147.66424574808676,107.88405230328762,128.3942997576325,166.10639208369946","8,7,6,5,4,3,2,1","NETTLE WEED,NETTLE WEED,NETTLE WEED,NETTLE WEED,NETTLE WEED,NETTLE WEED,NETTLE WEED,NETTLE WEED","120,142.08267601437066,140,180.09401895086214,151.64101648070215,153.63952743267922,179.10165544263108,175.47827375393936","2,1,6,5,4,3,2,1","WHEAT CROP,WHEAT CROP,CORN CROP,CORN CROP,CORN CROP,CORN CROP,CORN CROP,CORN CROP","0,0,0,0,0,0,0,0","20,20,20,20,20,20,20,20","10,10,10,10,10,10,10,10","20,20,20,20,20,20,20,20","20,20,20,20,20,20,20,20","20,20,20,20,20,20,20,20","0,0,0,0,0,0,0,0","20,20,20,20,20,20,20,20","10,10,10,10,10,10,10,10","20,20,20,20,20,20,20,20","20,20,20,20,20,20,20,20","20,20,20,20,20,20,20,20","0,0,1,0,0,1,1,0","1026,234,359,7489,1061,921,375,1894","-20.420298080723644,9.961634687875936,1.2912034636601994,-3.1682943227257327,-39.78019344479914,20.510247454344878,37.712092326066966,33.12474361375486","22.08267601437065,-4.431832001370239,40.09401895086214,-28.45300247015999,1.9985109519770692,25.46212800995188,-3.6233816886917296,-13.624155853032455","0","0"
"164","86","text","0","181","1548496","0-0","","","","","","","","","","","","","","","","","","","","","","","","","","","","","","","","","","","","",""
"","","plant-game","0","182","1563888","0-0","","200","160","1","WHEAT CROP","Right","200","190","8","NETTLE WEED","experimental","78","1,2,3,4,5,6,7,8","190,163.390120337751,151.55934992335543,132.1910913395115,161.1228169073325,139.28116464228478,120.38969840661113,96.16091770857676","8,7,6,5,4,3,2,1","NETTLE WEED,NETTLE WEED,NETTLE WEED,NETTLE WEED,NETTLE WEED,NETTLE WEED,NETTLE WEED,NETTLE WEED","160,130,117.03759077005382,129.51943522519102,119.46676390097326,118.48744776734216,136.57250112138252,95.80152679329183","1,7,6,5,4,3,2,1","WHEAT CROP,CORN CROP,CORN CROP,CORN CROP,CORN CROP,CORN CROP,CORN CROP,CORN CROP","0,0,0,0,0,0,0,0","20,20,20,20,20,20,20,20","10,10,10,10,10,10,10,10","20,20,20,20,20,20,20,20","20,20,20,20,20,20,20,20","20,20,20,20,20,20,20,20","0,0,0,0,0,0,0,0","20,20,20,20,20,20,20,20","10,10,10,10,10,10,10,10","20,20,20,20,20,20,20,20","20,20,20,20,20,20,20,20","20,20,20,20,20,20,20,20","1,0,0,0,0,0,0,0","1761,1099,168,157,157,133,120,36","-26.609879662249,-11.830770414395582,-19.368258583843915,28.93172556782098,-21.841652265047724,-18.891466235673644,-24.228780698034367,-6.50254554459953","42.38937109972551,-12.962409229946175,12.481844455137187,-10.052671324217755,-0.9793161336311049,18.085053354040344,-40.770974328090695,-14.965156354176521","0","0"
"576","86","text","0","183","1564634","0-0","","","","","","","","","","","","","","","","","","","","","","","","","","","","","","","","","","","","",""
"","","plant-game","0","184","1592106","0-0","","200","180","2","CORN CROP","Right","200","160","2","THISTLE WEED","experimental","79","1,2","160,177.96419739183716","2,1","THISTLE WEED,THISTLE WEED","180,197.57691827017211","2,1","CORN CROP,CORN CROP","0,0","20,20","10,10","20,20","20,20","20,20","0,0","20,20","10,10","20,20","20,20","20,20","1,0","2009,10850","17.964197391837157,24.52723890427318","17.576918270172126,24.31585062509811","0","0"
"14013","86","text","0","185","1606275","0-0","","","","","","","","","","","","","","","","","","","","","","","","","","","","","","","","","","","","",""
"","","plant-game","0","186","1612675","0-0","","200","180","1","WHEAT CROP","Left","200","160","1","NETTLE WEED","experimental","80","1","180","1","WHEAT CROP","160","1","NETTLE WEED","20","20","10","20","0","20","20","20","10","20","0","20","1","2521","-2.898879828137825","7.766687083629186","0","0"
"112","86","text","0","187","1612943","0-0","","","","","","","","","","","","","","","","","","","","","","","","","","","","","","","","","","","","",""
