"rt","key_press","trial_type","trial_index","trial_index_global","time_elapsed","internal_chunk_id","responses","experimental_goal_height","experimental_start_height","experimental_weeks_total","experimental_crop_type","experimental_crop_side","fixed_goal_height","fixed_start_height","fixed_weeks_total","fixed_crop_type","trial_kind","trial_number","stage","left_current_height","left_weeks_remaining","left_crop_type","right_current_height","right_weeks_remaining","right_crop_type","mean_left_growth_given_left","sd_left_growth_given_left","mean_left_growth_given_middle","sd_left_growth_given_middle","mean_left_growth_given_right","sd_left_growth_given_right","mean_right_growth_given_left","sd_right_growth_given_left","mean_right_growth_given_middle","sd_right_growth_given_middle","mean_right_growth_given_right","sd_right_growth_given_right","response","response_time","left_growth","right_growth","other_key_pressed","mouse_clicked"
"6959661","77","text","0","0","6959771","0-0","","","","","","","","","","","","","","","","","","","","","","","","","","","","","","","","","","","","",""
"3130","","survey-text","0","1","6963926","0-0","{""Q0"":""17""}","","","","","","","","","","","","","","","","","","","","","","","","","","","","","","","","","","","",""
"3284","86","text","0","2","3440","0-0","","","","","","","","","","","","","","","","","","","","","","","","","","","","","","","","","","","","",""
"","","plant-game","0","3","53988","0-0","","200","120","8","CORN CROP","Right","200","120","8","NETTLE WEED","practice","1","1,2,3,4,5,6,7,8","120,116.17998709108141,76.68289028162307,108.68813384506402,128.82764956029328,167.85199106009208,144.54065050339233,175.03742875772957","8,7,6,5,4,3,2,1","NETTLE WEED,NETTLE WEED,NETTLE WEED,NETTLE WEED,NETTLE WEED,NETTLE WEED,NETTLE WEED,NETTLE WEED","120,147.98426254180282,150.71627324605512,194.19763743248052,213.61800631539907,239.02062816084265,246.21801373297285,271.3369644693414","8,7,6,5,4,3,2,1","CORN CROP,CORN CROP,CORN CROP,CORN CROP,CORN CROP,CORN CROP,CORN CROP,CORN CROP","0,0,0,0,0,0,0,0","20,20,20,20,20,20,20,20","10,10,10,10,10,10,10,10","20,20,20,20,20,20,20,20","20,20,20,20,20,20,20,20","20,20,20,20,20,20,20,20","0,0,0,0,0,0,0,0","20,20,20,20,20,20,20,20","10,10,10,10,10,10,10,10","20,20,20,20,20,20,20,20","20,20,20,20,20,20,20,20","20,20,20,20,20,20,20,20","0,0,1,1,1,0,0,0","8296,3881,5470,1136,4895,750,527,633","-3.8200129089185904,-39.49709680945834,32.00524356344095,20.139515715229273,39.02434149979881,-23.311340556699736,30.496778254337258,-5.600987519818073","27.984262541802813,2.7320107042523114,43.48136418642538,19.42036888291854,25.402621845443587,7.197385572130216,25.118950736368554,-16.01615947537545","0","3"
"856","86","text","0","4","55054","0-0","","","","","","","","","","","","","","","","","","","","","","","","","","","","","","","","","","","","",""
"","","plant-game","0","5","84977","0-0","","200","160","4","WHEAT CROP","Right","200","160","4","NETTLE WEED","practice","2","1,2,3,4","160,153.5464413396254,142.93512614363897,139.04103384078982","4,3,2,1","NETTLE WEED,NETTLE WEED,NETTLE WEED,NETTLE WEED","160,186.7768007273391,210.35021447253047,213.81399387466553","4,3,2,1","WHEAT CROP,WHEAT CROP,WHEAT CROP,WHEAT CROP","0,0,0,0","20,20,20,20","10,10,10,10","20,20,20,20","20,20,20,20","20,20,20,20","0,0,0,0","20,20,20,20","10,10,10,10","20,20,20,20","20,20,20,20","20,20,20,20","0,0,0,0","10570,1885,582,1096","-6.453558660374594,-10.611315195986426,-3.894092302849135,-19.086440528007515","26.776800727339086,23.57341374519136,3.4637794021350476,-17.58710270961171","0","0"
"670","86","text","0","6","85737","0-0","","","","","","","","","","","","","","","","","","","","","","","","","","","","","","","","","","","","",""
"","","plant-game","0","7","108744","0-0","","200","180","2","CORN CROP","Left","200","180","2","NETTLE WEED","practice","3","1,2","180,190.30447483703497","2,1","CORN CROP,CORN CROP","180,181.4011734539642","2,1","NETTLE WEED,NETTLE WEED","20,20","20,20","10,10","20,20","0,0","20,20","20,20","20,20","10,10","20,20","0,0","20,20","1,0","4176,1633","10.304474837034974,14.298688704532701","1.4011734539641774,7.776180379602877","0","0"
"530","86","text","0","8","109374","0-0","","","","","","","","","","","","","","","","","","","","","","","","","","","","","","","","","","","","",""
"","","plant-game","0","9","124555","0-0","","200","190","1","WHEAT CROP","Right","200","190","1","NETTLE WEED","practice","4","1","190","1","NETTLE WEED","190","1","WHEAT CROP","0","20","10","20","20","20","0","20","10","20","20","20","1","6742","7.001571871541154","38.09462583100208","0","0"
"457","86","text","0","10","125132","0-0","","","","","","","","","","","","","","","","","","","","","","","","","","","","","","","","","","","","",""
"","","plant-game","0","11","143749","0-0","","200","120","8","WHEAT CROP","Right","200","160","8","THISTLE WEED","practice","5","1,2,3,4,5,6,7,8","160,177.07288343281425,160.35687612673146,173.1977299627999,183.9050450079541,159.39007977086635,173.76308294597516,183.96638676361604","8,7,6,5,4,3,2,1","THISTLE WEED,THISTLE WEED,THISTLE WEED,THISTLE WEED,THISTLE WEED,THISTLE WEED,THISTLE WEED,THISTLE WEED","120,112.62762886672085,136.33085860944936,165.54927846708347,151.8480429031649,165.127652544435,183.06620266487815,167.1629295065648","8,7,6,5,4,3,2,1","WHEAT CROP,WHEAT CROP,WHEAT CROP,WHEAT CROP,WHEAT CROP,WHEAT CROP,WHEAT CROP,WHEAT CROP","0,0,0,0,0,0,0,0","20,20,20,20,20,20,20,20","10,10,10,10,10,10,10,10","20,20,20,20,20,20,20,20","20,20,20,20,20,20,20,20","20,20,20,20,20,20,20,20","0,0,0,0,0,0,0,0","20,20,20,20,20,20,20,20","10,10,10,10,10,10,10,10","20,20,20,20,20,20,20,20","20,20,20,20,20,20,20,20","20,20,20,20,20,20,20,20","1,0,0,0,0,0,0,0","4654,1013,1250,1294,819,683,799,384","17.072883432814237,-16.71600730608278,12.84085383606845,10.707315045154184,-24.514965237087736,14.373003175108794,10.203303817640885,-15.813254704187411","-7.372371133279145,23.703229742728496,29.218419857634096,-13.701235563918583,13.279609641270104,17.93855012044316,-15.903273158313333,-1.2705867259978452","0","0"
"662","86","text","0","12","144505","0-0","","","","","","","","","","","","","","","","","","","","","","","","","","","","","","","","","","","","",""
"","","plant-game","0","13","167236","0-0","","200","180","4","CORN CROP","Right","200","160","4","NETTLE WEED","practice","6","1,2,3,4","160,199.73378290602568,217.94002191467013,238.40271064054673","4,3,2,1","NETTLE WEED,NETTLE WEED,NETTLE WEED,NETTLE WEED","180,205.932264451521,212.2513475304771,203.57616297037617","4,3,2,1","CORN CROP,CORN CROP,CORN CROP,CORN CROP","0,0,0,0","20,20,20,20","10,10,10,10","20,20,20,20","20,20,20,20","20,20,20,20","0,0,0,0","20,20,20,20","10,10,10,10","20,20,20,20","20,20,20,20","20,20,20,20","1,0,0,1","12356,1810,717,1123","39.73378290602567,18.206239008644456,20.462688725876603,44.58525297293093","25.932264451520993,6.319083078956083,-8.675184560100908,23.350260393438987","0","0"
"560","86","text","0","14","167876","0-0","","","","","","","","","","","","","","","","","","","","","","","","","","","","","","","","","","","","",""
"","","plant-game","0","15","180843","0-0","","200","180","2","WHEAT CROP","Right","200","190","2","NETTLE WEED","practice","7","1,2","190,227.07715565293677","2,1","NETTLE WEED,NETTLE WEED","180,205.43519093521948","2,1","WHEAT CROP,WHEAT CROP","0,0","20,20","10,10","20,20","20,20","20,20","0,0","20,20","10,10","20,20","20,20","20,20","1,1","4620,1457","37.07715565293676,13.459261192775255","25.435190935219488,-11.137202977429176","0","0"
"480","86","text","0","16","181413","0-0","","","","","","","","","","","","","","","","","","","","","","","","","","","","","","","","","","","","",""
"","","plant-game","0","17","215899","0-0","","200","120","4","CORN CROP","Left","200","120","8","NETTLE WEED","practice","8","1,2,3,4,5,6,7,8","120,117.49739451691362,96.79213947433225,85.08463229492355,160,191.71111820095973,240.38606467249096,238.7860482545435","4,3,2,1,4,3,2,1","CORN CROP,CORN CROP,CORN CROP,CORN CROP,WHEAT CROP,WHEAT CROP,WHEAT CROP,WHEAT CROP","120,178.6195164817569,187.68221798345533,194.61986296295856,171.3335234607663,182.17443977461502,192.50810133386986,168.57434579575022","8,7,6,5,4,3,2,1","NETTLE WEED,NETTLE WEED,NETTLE WEED,NETTLE WEED,NETTLE WEED,NETTLE WEED,NETTLE WEED,NETTLE WEED","20,20,20,20,20,20,20,20","20,20,20,20,20,20,20,20","10,10,10,10,10,10,10,10","20,20,20,20,20,20,20,20","0,0,0,0,0,0,0,0","20,20,20,20,20,20,20,20","20,20,20,20,20,20,20,20","20,20,20,20,20,20,20,20","10,10,10,10,10,10,10,10","20,20,20,20,20,20,20,20","0,0,0,0,0,0,0,0","20,20,20,20,20,20,20,20","0,1,0,1,0,0,1,1","10052,1334,987,489,5405,1273,1569,389","-2.502605483086384,-20.705255042581374,-11.707507179408697,-10.487832102832314,31.711118200959742,48.67494647153123,-1.6000164179474616,-1.5032977417196083","58.6195164817569,9.062701501698436,6.937644979503224,-23.286339502192277,10.84091631384875,10.333661559254844,-23.93375553811964,-19.669591406858967","0","0"
"664","86","text","0","18","216663","0-0","","","","","","","","","","","","","","","","","","","","","","","","","","","","","","","","","","","","",""
"","","plant-game","0","19","248694","0-0","","200","160","4","WHEAT CROP","Left","200","160","2","NETTLE WEED","practice","9","1,2,3,4","160,189.53495655814885,206.06331173576186,218.11429108816355","4,3,2,1","WHEAT CROP,WHEAT CROP,WHEAT CROP,WHEAT CROP","160,185.72025126541803,180,221.8086975724525","2,1,2,1","NETTLE WEED,NETTLE WEED,THISTLE WEED,THISTLE WEED","20,20,20,20","20,20,20,20","10,10,10,10","20,20,20,20","0,0,0,0","20,20,20,20","20,20,20,20","20,20,20,20","10,10,10,10","20,20,20,20","0,0,0,0","20,20,20,20","0,1,0,1","8424,1254,4150,783","29.534956558148835,16.528355177613008,12.050979352401695,6.782405999081598","25.720251265418018,13.669786537257886,41.8086975724525,-2.3102307860317435","0","0"
"170","86","text","0","20","248971","0-0","","","","","","","","","","","","","","","","","","","","","","","","","","","","","","","","","","","","",""
"","","plant-game","0","21","268601","0-0","","200","180","2","WHEAT CROP","Left","200","180","1","NETTLE WEED","practice","10","1,2","180,180.62964226830434","2,1","WHEAT CROP,WHEAT CROP","180,190","1,1","NETTLE WEED,THISTLE WEED","20,20","20,20","10,10","20,20","0,0","20,20","20,20","20,20","10,10","20,20","0,0","20,20","1,0","4062,1151","0.6296422683043505,0.060241235654849845","-19.337780937107905,3.1138381988236503","0","0"
"527","86","text","0","22","269222","0-0","","","","","","","","","","","","","","","","","","","","","","","","","","","","","","","","","","","","",""
"","","plant-game","0","23","291921","0-0","","200","120","8","WHEAT CROP","Left","200","160","4","NETTLE WEED","practice","11","1,2,3,4,5,6,7,8","120,112.78340052830124,133.38143002311523,191.2069781689452,208.92021548110543,178.81251386666145,154.22823567892718,135.75644154126212","8,7,6,5,4,3,2,1","WHEAT CROP,WHEAT CROP,WHEAT CROP,WHEAT CROP,WHEAT CROP,WHEAT CROP,WHEAT CROP,WHEAT CROP","160,166.00856774882482,180.3759300012092,197.29678332087087,160,138.765700922494,158.6974005948042,132.49183385424797","4,3,2,1,4,3,2,1","NETTLE WEED,NETTLE WEED,NETTLE WEED,NETTLE WEED,THISTLE WEED,THISTLE WEED,THISTLE WEED,THISTLE WEED","20,20,20,20,20,20,20,20","20,20,20,20,20,20,20,20","10,10,10,10,10,10,10,10","20,20,20,20,20,20,20,20","0,0,0,0,0,0,0,0","20,20,20,20,20,20,20,20","20,20,20,20,20,20,20,20","20,20,20,20,20,20,20,20","10,10,10,10,10,10,10,10","20,20,20,20,20,20,20,20","0,0,0,0,0,0,0,0","20,20,20,20,20,20,20,20","1,0,0,1,1,0,1,1","2952,491,447,723,4745,732,583,466","-7.2165994716987605,20.59802949481397,57.82554814582998,17.71323731216022,-30.107701614443968,-24.584278187734263,-18.471794137665057,-21.75262814978116","6.008567748824806,14.367362252384398,16.920853319661656,4.134530091407285,-21.234299077505984,19.93169967231019,-26.205566740556225,6.090085668986422","0","0"
"576","86","text","0","24","292617","0-0","","","","","","","","","","","","","","","","","","","","","","","","","","","","","","","","","","","","",""
"","","plant-game","0","25","307826","0-0","","200","180","2","CORN CROP","Left","200","160","4","THISTLE WEED","practice","12","1,2,3,4","180,196.42751353487972,180,217.06841944790335","2,1,2,1","CORN CROP,CORN CROP,WHEAT CROP,WHEAT CROP","160,158.07947729771655,212.94681615975614,207.77210010880472","4,3,2,1","THISTLE WEED,THISTLE WEED,THISTLE WEED,THISTLE WEED","20,20,20,20","20,20,20,20","10,10,10,10","20,20,20,20","0,0,0,0","20,20,20,20","20,20,20,20","20,20,20,20","10,10,10,10","20,20,20,20","0,0,0,0","20,20,20,20","0,0,1,1","2380,650,1833,540","16.427513534879708,20.331751040368204,37.06841944790336,-19.011523360529058","-1.9205227022834563,54.86733886203958,-5.174716050951424,19.211171799741933","0","0"
"643","86","text","0","26","308559","0-0","","","","","","","","","","","","","","","","","","","","","","","","","","","","","","","","","","","","",""
"11826","86","text","0","27","321477","0-0","","","","","","","","","","","","","","","","","","","","","","","","","","","","","","","","","","","","",""
"","","plant-game","0","28","341022","0-0","","200","120","4","WHEAT CROP","Right","200","180","1","THISTLE WEED","experimental","1","1,2,3,4","180,170,199.37919196633027,246.74112309798085","1,3,2,1","THISTLE WEED,NETTLE WEED,NETTLE WEED,NETTLE WEED","120,78.83951359584452,72.77956082034852,133.25364358462704","4,3,2,1","WHEAT CROP,WHEAT CROP,WHEAT CROP,WHEAT CROP","0,0,0,0","20,20,20,20","10,10,10,10","20,20,20,20","20,20,20,20","20,20,20,20","0,0,0,0","20,20,20,20","10,10,10,10","20,20,20,20","20,20,20,20","20,20,20,20","0,0,1,1","7813,2259,792,722","-21.88827222280324,29.379191966330254,47.361931131650564,68.58131648652156","-41.160486404155485,-6.059952775495998,60.47408276427852,-2.199306060493914","0","0"
"157","86","text","0","29","341267","0-0","","","","","","","","","","","","","","","","","","","","","","","","","","","","","","","","","","","","",""
"","","plant-game","0","30","363215","0-0","","200","180","2","CORN CROP","Left","200","190","4","THISTLE WEED","experimental","2","1,2,3,4","180,166.28930433565284,180,201.31869244267847","2,1,2,1","CORN CROP,CORN CROP,WHEAT CROP,WHEAT CROP","190,158.89550424706482,143.66265899966425,128.82520194130208","4,3,2,1","THISTLE WEED,THISTLE WEED,THISTLE WEED,THISTLE WEED","20,20,20,20","20,20,20,20","10,10,10,10","20,20,20,20","0,0,0,0","20,20,20,20","20,20,20,20","20,20,20,20","10,10,10,10","20,20,20,20","0,0,0,0","20,20,20,20","1,0,0,0","11700,1007,1392,805","-13.710695664347154,-15.577395459004364,21.318692442678465,56.521108889255025","-31.104495752935165,-15.232845247400569,-14.837457058362169,-9.432630891402187","0","0"
"724","86","text","0","31","364019","0-0","","","","","","","","","","","","","","","","","","","","","","","","","","","","","","","","","","","","",""
"","","plant-game","0","32","380570","0-0","","200","180","1","WHEAT CROP","Left","200","120","4","NETTLE WEED","experimental","3","1,2,3,4","180,170,184.66906856162794,205.5428503710117","1,3,2,1","WHEAT CROP,CORN CROP,CORN CROP,CORN CROP","120,155.22932843615385,170.7024923774056,212.5391283551022","4,3,2,1","NETTLE WEED,NETTLE WEED,NETTLE WEED,NETTLE WEED","20,20,20,20","20,20,20,20","10,10,10,10","20,20,20,20","0,0,0,0","20,20,20,20","20,20,20,20","20,20,20,20","10,10,10,10","20,20,20,20","0,0,0,0","20,20,20,20","0,0,0,1","6107,2260,870,1331","11.300544135753874,14.66906856162795,20.873781809383754,6.525292134196282","35.22932843615384,15.473163941251759,41.8366359776966,1.7706411583933503","0","0"
"634","86","text","0","33","381295","0-0","","","","","","","","","","","","","","","","","","","","","","","","","","","","","","","","","","","","",""
"","","plant-game","0","34","396168","0-0","","200","190","8","CORN CROP","Right","200","120","8","THISTLE WEED","experimental","4","1,2,3,4,5,6,7,8","120,143.23218999767465,129.7012284216017,149.101026741534,165.1131038591032,127.54497120096853,119.9389108519597,96.54660412520819","8,7,6,5,4,3,2,1","THISTLE WEED,THISTLE WEED,THISTLE WEED,THISTLE WEED,THISTLE WEED,THISTLE WEED,THISTLE WEED,THISTLE WEED","190,196.42564865313003,188.31146470576755,204.5410140148312,206.12647559802107,206.0571449952123,180.26781119785142,179.9916838069643","8,7,6,5,4,3,2,1","CORN CROP,CORN CROP,CORN CROP,CORN CROP,CORN CROP,CORN CROP,CORN CROP,CORN CROP","0,0,0,0,0,0,0,0","20,20,20,20,20,20,20,20","10,10,10,10,10,10,10,10","20,20,20,20,20,20,20,20","20,20,20,20,20,20,20,20","20,20,20,20,20,20,20,20","0,0,0,0,0,0,0,0","20,20,20,20,20,20,20,20","10,10,10,10,10,10,10,10","20,20,20,20,20,20,20,20","20,20,20,20,20,20,20,20","20,20,20,20,20,20,20,20","0,0,0,0,0,0,0,1","5579,933,725,1366,424,350,230,761","23.232189997674666,-13.530961576072933,19.39979831993231,16.01207711756918,-37.56813265813467,-7.60606034900883,-23.392306726751514,30.025626537020223","6.425648653130019,-8.114183947362477,16.229549309063668,1.5854615831898666,-0.06933060280878732,-25.789333797360868,-0.27612739088711985,18.843995292097713","0","0"
"694","86","text","0","35","396942","0-0","","","","","","","","","","","","","","","","","","","","","","","","","","","","","","","","","","","","",""
"","","plant-game","0","36","415732","0-0","","200","160","8","CORN CROP","Right","200","160","8","THISTLE WEED","experimental","5","1,2,3,4,5,6,7,8","160,162.42105053889492,204.55155430263497,223.03946616808062,217.8099015979375,240.45520520425976,236.74823517013076,228.68875683186826","8,7,6,5,4,3,2,1","THISTLE WEED,THISTLE WEED,THISTLE WEED,THISTLE WEED,THISTLE WEED,THISTLE WEED,THISTLE WEED,THISTLE WEED","160,186.11073846450194,148.64418701382868,144.03961532384145,130.53583674132656,145.64067830764145,172.22010133600688,144.02719497885278","8,7,6,5,4,3,2,1","CORN CROP,CORN CROP,CORN CROP,CORN CROP,CORN CROP,CORN CROP,CORN CROP,CORN CROP","0,0,0,0,0,0,0,0","20,20,20,20,20,20,20,20","10,10,10,10,10,10,10,10","20,20,20,20,20,20,20,20","20,20,20,20,20,20,20,20","20,20,20,20,20,20,20,20","0,0,0,0,0,0,0,0","20,20,20,20,20,20,20,20","10,10,10,10,10,10,10,10","20,20,20,20,20,20,20,20","20,20,20,20,20,20,20,20","20,20,20,20,20,20,20,20","0,1,0,0,0,0,0,0","2087,7028,2230,940,365,603,588,728","2.4210505388949253,42.130503763740045,18.487911865445643,-5.22956457014311,22.645303606322255,-3.706970034129007,-8.059478338262506,0.775405425028199","26.110738464501935,-37.466551450673236,-4.604571689987237,-13.503778582514874,15.104841566314892,26.579423028365415,-28.192906357154094,13.706080535015916","0","0"
"596","86","text","0","37","416418","0-0","","","","","","","","","","","","","","","","","","","","","","","","","","","","","","","","","","","","",""
"","","plant-game","0","38","439461","0-0","","200","180","4","CORN CROP","Right","200","180","8","THISTLE WEED","experimental","6","1,2,3,4,5,6,7,8","180,195.5774828754333,200.6084750241112,201.0038431654919,189.2361984069863,203.39051614889232,199.90810435853,223.52123483973898","8,7,6,5,4,3,2,1","THISTLE WEED,THISTLE WEED,THISTLE WEED,THISTLE WEED,THISTLE WEED,THISTLE WEED,THISTLE WEED,THISTLE WEED","180,146.298581785373,124.84323224870118,111.82229146780706,160,117.6888091812757,144.23061263962177,169.99124198707085","4,3,2,1,4,3,2,1","CORN CROP,CORN CROP,CORN CROP,CORN CROP,WHEAT CROP,WHEAT CROP,WHEAT CROP,WHEAT CROP","0,0,0,0,0,0,0,0","20,20,20,20,20,20,20,20","10,10,10,10,10,10,10,10","20,20,20,20,20,20,20,20","20,20,20,20,20,20,20,20","20,20,20,20,20,20,20,20","0,0,0,0,0,0,0,0","20,20,20,20,20,20,20,20","10,10,10,10,10,10,10,10","20,20,20,20,20,20,20,20","20,20,20,20,20,20,20,20","20,20,20,20,20,20,20,20","0,0,0,0,0,1,0,1","4653,1431,1556,1304,1976,2594,1732,424","15.577482875433306,5.030992148677872,0.3953681413807014,-11.767644758505613,14.15431774190602,-3.482411790362299,23.61313048120898,-14.630509918219047","-33.701418214627004,-21.455349536671804,-13.020940780894124,1.079525684358044,-42.3111908187243,26.541803458346074,25.760629347449093,10.443366508482486","0","0"
"240","86","text","0","39","439791","0-0","","","","","","","","","","","","","","","","","","","","","","","","","","","","","","","","","","","","",""
"","","plant-game","0","40","462495","0-0","","200","160","8","WHEAT CROP","Left","200","120","8","THISTLE WEED","experimental","7","1,2,3,4,5,6,7,8","160,163.02103554465117,171.41109469848297,195.43815466637895,208.57399622224514,209.93069596916393,245.41879038474633,232.59011615957385","8,7,6,5,4,3,2,1","WHEAT CROP,WHEAT CROP,WHEAT CROP,WHEAT CROP,WHEAT CROP,WHEAT CROP,WHEAT CROP,WHEAT CROP","120,160.9337410605494,156.92195841316095,164.98051157143132,138.3818843871598,174.33431537153143,189.5545407751056,160.01696674154937","8,7,6,5,4,3,2,1","THISTLE WEED,THISTLE WEED,THISTLE WEED,THISTLE WEED,THISTLE WEED,THISTLE WEED,THISTLE WEED,THISTLE WEED","20,20,20,20,20,20,20,20","20,20,20,20,20,20,20,20","10,10,10,10,10,10,10,10","20,20,20,20,20,20,20,20","0,0,0,0,0,0,0,0","20,20,20,20,20,20,20,20","20,20,20,20,20,20,20,20","20,20,20,20,20,20,20,20","10,10,10,10,10,10,10,10","20,20,20,20,20,20,20,20","0,0,0,0,0,0,0,0","20,20,20,20,20,20,20,20","0,1,1,1,0,0,1,1","9167,2760,833,704,1559,1518,897,1182","3.02103554465117,8.3900591538318,24.027059967895987,13.13584155586619,1.3566997469188067,35.488094415582395,-12.828674225172481,8.262507615604287","40.93374106054941,-4.011782647388463,8.058553158270374,-26.598627184271514,35.952430984371645,15.220225403574165,-29.537574033556236,16.935182627464982","0","0"
"500","86","text","0","41","463115","0-0","","","","","","","","","","","","","","","","","","","","","","","","","","","","","","","","","","","","",""
"","","plant-game","0","42","476702","0-0","","200","160","4","WHEAT CROP","Left","200","120","4","NETTLE WEED","experimental","8","1,2,3,4","160,204.8493023122916,195.63318851881348,217.91226183669608","4,3,2,1","WHEAT CROP,WHEAT CROP,WHEAT CROP,WHEAT CROP","120,141.5590920236608,160.26178245145672,172.91909499456085","4,3,2,1","NETTLE WEED,NETTLE WEED,NETTLE WEED,NETTLE WEED","20,20,20,20","20,20,20,20","10,10,10,10","20,20,20,20","0,0,0,0","20,20,20,20","20,20,20,20","20,20,20,20","10,10,10,10","20,20,20,20","0,0,0,0","20,20,20,20","0,0,0,1","6193,1278,752,1227","44.8493023122916,-9.216113793478108,22.27907331788259,-41.66520027921895","21.559092023660813,18.702690427795904,12.657312543104116,4.177456926282767","0","0"
"613","86","text","0","43","477415","0-0","","","","","","","","","","","","","","","","","","","","","","","","","","","","","","","","","","","","",""
"","","plant-game","0","44","492058","0-0","","200","190","2","WHEAT CROP","Right","200","120","8","NETTLE WEED","experimental","9","1,2,3,4,5,6,7,8","120,157.16893290602772,160.49376950153328,192.37666273203766,196.7496095023763,195.98880001018426,200.50625786658247,210.77552850674027","8,7,6,5,4,3,2,1","NETTLE WEED,NETTLE WEED,NETTLE WEED,NETTLE WEED,NETTLE WEED,NETTLE WEED,NETTLE WEED,NETTLE WEED","190,223.73889165511713,140,161.98458695184527,138.1912462937389,163.68502233034812,145.27035340646538,174.36182389364038","2,1,6,5,4,3,2,1","WHEAT CROP,WHEAT CROP,CORN CROP,CORN CROP,CORN CROP,CORN CROP,CORN CROP,CORN CROP","0,0,0,0,0,0,0,0","20,20,20,20,20,20,20,20","10,10,10,10,10,10,10,10","20,20,20,20,20,20,20,20","20,20,20,20,20,20,20,20","20,20,20,20,20,20,20,20","0,0,0,0,0,0,0,0","20,20,20,20,20,20,20,20","10,10,10,10,10,10,10,10","20,20,20,20,20,20,20,20","20,20,20,20,20,20,20,20","20,20,20,20,20,20,20,20","1,0,1,0,0,0,0,0","2462,540,1909,479,550,311,648,452","37.16893290602771,3.324836595505558,31.88289323050438,4.372946770338656,-0.7608094921920382,4.517457856398219,10.2692706401578,14.40376445823329","33.738891655117115,31.226824024455876,21.98458695184527,-23.793340658106356,25.493776036609212,-18.414668923882736,29.09147048717501,-2.5225211895902055","0","0"
"142","86","text","0","45","492282","0-0","","","","","","","","","","","","","","","","","","","","","","","","","","","","","","","","","","","","",""
"","","plant-game","0","46","503546","0-0","","200","180","8","WHEAT CROP","Right","200","120","8","THISTLE WEED","experimental","10","1,2,3,4,5,6,7,8","120,102.59019511455385,112.74160833501104,136.49434156085607,175.9108683287531,199.49082263156765,250.83997096095072,272.10986723412543","8,7,6,5,4,3,2,1","THISTLE WEED,THISTLE WEED,THISTLE WEED,THISTLE WEED,THISTLE WEED,THISTLE WEED,THISTLE WEED,THISTLE WEED","180,180.02143195469577,146.9346425571428,153.4892178533862,186.33240261231046,172.56912295923797,189.79944974843193,186.26082452810797","8,7,6,5,4,3,2,1","WHEAT CROP,WHEAT CROP,WHEAT CROP,WHEAT CROP,WHEAT CROP,WHEAT CROP,WHEAT CROP,WHEAT CROP","0,0,0,0,0,0,0,0","20,20,20,20,20,20,20,20","10,10,10,10,10,10,10,10","20,20,20,20,20,20,20,20","20,20,20,20,20,20,20,20","20,20,20,20,20,20,20,20","0,0,0,0,0,0,0,0","20,20,20,20,20,20,20,20","10,10,10,10,10,10,10,10","20,20,20,20,20,20,20,20","20,20,20,20,20,20,20,20","20,20,20,20,20,20,20,20","0,0,1,1,0,1,0,0","1576,1534,503,387,1056,1077,410,274","-17.40980488544615,10.151413220457188,23.75273322584504,39.416526767897054,23.57995430281455,51.34914832938307,21.269896273174716,-16.49767732512893","0.021431954695785082,-33.08678939755298,6.554575296243392,32.84318475892425,-13.76327965307249,17.230326789193953,-3.5386252203239614,-2.1153982467087564","0","0"
"124","86","text","0","47","503737","0-0","","","","","","","","","","","","","","","","","","","","","","","","","","","","","","","","","","","","",""
"","","plant-game","0","48","516460","0-0","","200","120","1","WHEAT CROP","Right","200","160","4","NETTLE WEED","experimental","11","1,2,3,4","160,177.62225880138388,171.88283487112707,160.18813006891122","4,3,2,1","NETTLE WEED,NETTLE WEED,NETTLE WEED,NETTLE WEED","120,170,179.39757283747633,155.35878823170302","1,3,2,1","WHEAT CROP,CORN CROP,CORN CROP,CORN CROP","0,0,0,0","20,20,20,20","10,10,10,10","20,20,20,20","20,20,20,20","20,20,20,20","0,0,0,0","20,20,20,20","10,10,10,10","20,20,20,20","20,20,20,20","20,20,20,20","0,0,0,1","4453,1363,347,490","17.622258801383875,-5.739423930256811,-11.694704802215867,48.832743891906674","-3.819693870526763,9.397572837476329,-24.03878460577332,55.56401427384939","0","0"
"140","86","text","0","49","516680","0-0","","","","","","","","","","","","","","","","","","","","","","","","","","","","","","","","","","","","",""
"","","plant-game","0","50","522700","0-0","","200","160","1","CORN CROP","Left","200","120","1","THISTLE WEED","experimental","12","1","160","1","CORN CROP","120","1","THISTLE WEED","20","20","10","20","0","20","20","20","10","20","0","20","0","1951","22.787156483753144","1.0312322151766153","0","0"
"893","86","text","0","51","523683","0-0","","","","","","","","","","","","","","","","","","","","","","","","","","","","","","","","","","","","",""
"","","plant-game","0","52","546698","0-0","","200","120","8","CORN CROP","Left","200","120","4","NETTLE WEED","experimental","13","1,2,3,4,5,6,7,8","120,172.79245003354674,195.07718526811766,211.87551202857273,207.74131324763107,177.08303426968047,199.0702505854924,184.11773592430626","8,7,6,5,4,3,2,1","CORN CROP,CORN CROP,CORN CROP,CORN CROP,CORN CROP,CORN CROP,CORN CROP,CORN CROP","120,132.39565347852104,142.68789356333835,175.47364892079688,160,186.0524082431119,197.27949460807588,181.69088654719755","4,3,2,1,4,3,2,1","NETTLE WEED,NETTLE WEED,NETTLE WEED,NETTLE WEED,THISTLE WEED,THISTLE WEED,THISTLE WEED,THISTLE WEED","20,20,20,20,20,20,20,20","20,20,20,20,20,20,20,20","10,10,10,10,10,10,10,10","20,20,20,20,20,20,20,20","0,0,0,0,0,0,0,0","20,20,20,20,20,20,20,20","20,20,20,20,20,20,20,20","20,20,20,20,20,20,20,20","10,10,10,10,10,10,10,10","20,20,20,20,20,20,20,20","0,0,0,0,0,0,0,0","20,20,20,20,20,20,20,20","0,0,0,1,1,0,0,0","4157,793,663,1337,6780,525,1127,751","52.79245003354675,22.284735234570928,16.798326760455076,-4.134198780941648,-30.658278977950616,21.98721631581194,-14.952514661186129,64.95216235820361","12.39565347852104,10.292240084817317,32.78575535745853,20.744045025182047,26.0524082431119,11.227086364963988,-15.588608060878329,16.88240725021769","0","0"
"774","86","text","0","53","547615","0-0","","","","","","","","","","","","","","","","","","","","","","","","","","","","","","","","","","","","",""
"","","plant-game","0","54","556315","0-0","","200","180","2","WHEAT CROP","Left","200","120","2","THISTLE WEED","experimental","14","1,2","180,158.33714169885923","2,1","WHEAT CROP,WHEAT CROP","120,127.2818209118105","2,1","THISTLE WEED,THISTLE WEED","20,20","20,20","10,10","20,20","0,0","20,20","20,20","20,20","10,10","20,20","0,0","20,20","0,0","2240,1910","-21.662858301140773,4.3765755964548205","7.281820911810504,22.19995496807798","0","0"
"610","86","text","0","55","557015","0-0","","","","","","","","","","","","","","","","","","","","","","","","","","","","","","","","","","","","",""
"","","plant-game","0","56","575012","0-0","","200","160","8","CORN CROP","Left","200","190","1","NETTLE WEED","experimental","15","1,2,3,4,5,6,7,8","160,208.55153846627147,218.40199394585866,198.39616177836558,246.4569972113832,272.70860796203993,273.24817713643546,257.3749461287868","8,7,6,5,4,3,2,1","CORN CROP,CORN CROP,CORN CROP,CORN CROP,CORN CROP,CORN CROP,CORN CROP,CORN CROP","190,130,108.45512896684264,80.38083713899238,99.82078433129041,137.84135453458086,150.8745925805313,159.38293818584427","1,7,6,5,4,3,2,1","NETTLE WEED,THISTLE WEED,THISTLE WEED,THISTLE WEED,THISTLE WEED,THISTLE WEED,THISTLE WEED,THISTLE WEED","20,20,20,20,20,20,20,20","20,20,20,20,20,20,20,20","10,10,10,10,10,10,10,10","20,20,20,20,20,20,20,20","0,0,0,0,0,0,0,0","20,20,20,20,20,20,20,20","20,20,20,20,20,20,20,20","20,20,20,20,20,20,20,20","10,10,10,10,10,10,10,10","20,20,20,20,20,20,20,20","0,0,0,0,0,0,0,0","20,20,20,20,20,20,20,20","0,1,1,0,0,1,1,1","2800,3103,540,579,2305,440,400,677","48.55153846627147,9.850455479587204,-20.005832167493075,48.06083543301761,26.251610750656756,0.5395691743955499,-15.873231007648666,22.25321142192624","51.76190423149169,-21.54487103315737,-28.074291827850256,19.439947192298032,38.02057020329044,13.033238045950439,8.508345605312956,23.055205763478707","0","0"
"570","86","text","0","57","575682","0-0","","","","","","","","","","","","","","","","","","","","","","","","","","","","","","","","","","","","",""
"","","plant-game","0","58","583995","0-0","","200","160","1","CORN CROP","Left","200","180","2","NETTLE WEED","experimental","16","1,2","160,190","1,1","CORN CROP,WHEAT CROP","180,163.7250166045736","2,1","NETTLE WEED,NETTLE WEED","20,20","20,20","10,10","20,20","0,0","20,20","20,20","20,20","10,10","20,20","0,0","20,20","1,0","2025,1444","-6.153513823763333,-8.538278912895475","-16.274983395426393,30.31678679147305","0","0"
"5219","86","text","0","59","589323","0-0","","","","","","","","","","","","","","","","","","","","","","","","","","","","","","","","","","","","",""
"","","plant-game","0","60","594925","0-0","","200","160","4","WHEAT CROP","Left","200","190","4","THISTLE WEED","experimental","17","1,2,3,4","160,141.60563961328404,144.10239340342824,197.5781886310234","4,3,2,1","WHEAT CROP,WHEAT CROP,WHEAT CROP,WHEAT CROP","190,209.74295203994453,239.77157948637313,265.81994365000486","4,3,2,1","THISTLE WEED,THISTLE WEED,THISTLE WEED,THISTLE WEED","20,20,20,20","20,20,20,20","10,10,10,10","20,20,20,20","0,0,0,0","20,20,20,20","20,20,20,20","20,20,20,20","10,10,10,10","20,20,20,20","0,0,0,0","20,20,20,20","0,0,0,0","1517,206,353,81","-18.394360386715945,2.4967537901442007,53.47579522759517,35.284160903695344","19.742952039944534,30.028627446428587,26.048364163631742,21.755195997157205","0","0"
"98","86","text","0","61","595103","0-0","","","","","","","","","","","","","","","","","","","","","","","","","","","","","","","","","","","","",""
"","","plant-game","0","62","603338","0-0","","200","190","1","CORN CROP","Right","200","120","4","THISTLE WEED","experimental","18","1,2,3,4","120,148.39770643229818,168.37480916113128,223.69640715747968","4,3,2,1","THISTLE WEED,THISTLE WEED,THISTLE WEED,THISTLE WEED","190,170,213.41472458566813,238.16994511368472","1,3,2,1","CORN CROP,WHEAT CROP,WHEAT CROP,WHEAT CROP","0,0,0,0","20,20,20,20","10,10,10,10","20,20,20,20","20,20,20,20","20,20,20,20","0,0,0,0","20,20,20,20","10,10,10,10","20,20,20,20","20,20,20,20","20,20,20,20","1,1,1,0","1152,1003,177,1176","28.39770643229818,19.977102728833092,55.32159799634841,8.857423304670279","34.86986130456499,43.414724585668125,24.755220528016594,-4.994901550740644","1","0"
"100","86","text","0","63","603508","0-0","","","","","","","","","","","","","","","","","","","","","","","","","","","","","","","","","","","","",""
"","","plant-game","0","64","607817","0-0","","200","180","1","WHEAT CROP","Right","200","120","1","NETTLE WEED","experimental","19","1","120","1","NETTLE WEED","180","1","WHEAT CROP","0","20","10","20","20","20","0","20","10","20","20","20","1","1052","43.2773607521743","-3.5896354642348527","0","0"
"83","86","text","0","65","607990","0-0","","","","","","","","","","","","","","","","","","","","","","","","","","","","","","","","","","","","",""
"","","plant-game","0","66","618364","0-0","","200","160","8","WHEAT CROP","Left","200","190","2","THISTLE WEED","experimental","20","1,2,3,4,5,6,7,8","160,144.1102551656826,171.77442372975233,172.9390035601582,177.82786228248452,204.8943199729617,239.89295656922303,258.26931029947195","8,7,6,5,4,3,2,1","WHEAT CROP,WHEAT CROP,WHEAT CROP,WHEAT CROP,WHEAT CROP,WHEAT CROP,WHEAT CROP,WHEAT CROP","190,115.67749677742023,140,147.92917006725054,158.4883760068863,143.32934883330805,165.88481005449557,155.00886642059592","2,1,6,5,4,3,2,1","THISTLE WEED,THISTLE WEED,NETTLE WEED,NETTLE WEED,NETTLE WEED,NETTLE WEED,NETTLE WEED,NETTLE WEED","20,20,20,20,20,20,20,20","20,20,20,20,20,20,20,20","10,10,10,10,10,10,10,10","20,20,20,20,20,20,20,20","0,0,0,0,0,0,0,0","20,20,20,20,20,20,20,20","20,20,20,20,20,20,20,20","20,20,20,20,20,20,20,20","10,10,10,10,10,10,10,10","20,20,20,20,20,20,20,20","0,0,0,0,0,0,0,0","20,20,20,20,20,20,20,20","1,0,0,0,0,0,0,0","667,586,1276,337,280,270,877,470","-15.889744834317408,27.664168564069733,1.1645798304058594,4.888858722326315,27.0664576904772,34.998636596261306,18.376353730248923,20.53639415003455","-74.32250322257977,-8.548058448558116,7.9291700672505385,10.559205939635776,-15.159027173578274,22.555461221187525,-10.875943633899663,50.99683493516905","0","0"
"76","86","text","0","67","618530","0-0","","","","","","","","","","","","","","","","","","","","","","","","","","","","","","","","","","","","",""
"","","plant-game","0","68","625997","0-0","","200","180","1","CORN CROP","Right","200","160","4","NETTLE WEED","experimental","21","1,2,3,4","160,191.28169040624363,202.1483689988175,203.78903949284228","4,3,2,1","NETTLE WEED,NETTLE WEED,NETTLE WEED,NETTLE WEED","180,170,185.73876736672634,184.73405667096984","1,3,2,1","CORN CROP,WHEAT CROP,WHEAT CROP,WHEAT CROP","0,0,0,0","20,20,20,20","10,10,10,10","20,20,20,20","20,20,20,20","20,20,20,20","0,0,0,0","20,20,20,20","10,10,10,10","20,20,20,20","20,20,20,20","20,20,20,20","1,1,1,0","882,490,352,252","31.281690406243627,10.866678592573875,1.640670494024782,2.4677872863356503","6.519973710328147,15.73876736672635,-1.0047106957564864,-9.89471786402188","0","0"
"2032","86","text","0","69","628133","0-0","","","","","","","","","","","","","","","","","","","","","","","","","","","","","","","","","","","","",""
"","","plant-game","0","70","636466","0-0","","200","120","2","WHEAT CROP","Left","200","120","4","NETTLE WEED","experimental","22","1,2,3,4","120,112.08092196448166,180,223.01702090394193","2,1,2,1","WHEAT CROP,WHEAT CROP,CORN CROP,CORN CROP","120,119.8260710248992,153.1199101861582,184.59499958509622","4,3,2,1","NETTLE WEED,NETTLE WEED,NETTLE WEED,NETTLE WEED","20,20,20,20","20,20,20,20","10,10,10,10","20,20,20,20","0,0,0,0","20,20,20,20","20,20,20,20","20,20,20,20","10,10,10,10","20,20,20,20","0,0,0,0","20,20,20,20","1,0,0,1","479,530,950,1880","-7.919078035518343,30.411300968228467,43.01702090394192,-19.531709173200756","-0.17392897510078698,33.29383916125898,31.47508939893804,12.12079831099578","0","0"
"74","86","text","0","71","636635","0-0","","","","","","","","","","","","","","","","","","","","","","","","","","","","","","","","","","","","",""
"","","plant-game","0","72","643040","0-0","","200","180","2","WHEAT CROP","Left","200","180","1","NETTLE WEED","experimental","23","1,2","180,208.32361127133987","2,1","WHEAT CROP,WHEAT CROP","180,190","1,1","NETTLE WEED,THISTLE WEED","20,20","20,20","10,10","20,20","0,0","20,20","20,20","20,20","10,10","20,20","0,0","20,20","1,0","492,1242","28.323611271339864,22.014898652812743","31.372514282544387,38.87981859675048","0","0"
"113","86","text","0","73","643243","0-0","","","","","","","","","","","","","","","","","","","","","","","","","","","","","","","","","","","","",""
"","","plant-game","0","74","649590","0-0","","200","160","1","WHEAT CROP","Left","200","120","2","THISTLE WEED","experimental","24","1,2","160,190","1,1","WHEAT CROP,CORN CROP","120,148.1218761498993","2,1","THISTLE WEED,THISTLE WEED","20,20","20,20","10,10","20,20","0,0","20,20","20,20","20,20","10,10","20,20","0,0","20,20","1,0","450,1228","48.48085157263067,-13.009453429726278","28.121876149899304,16.376313018969412","0","0"
"77","86","text","0","75","649757","0-0","","","","","","","","","","","","","","","","","","","","","","","","","","","","","","","","","","","","",""
"","","plant-game","0","76","658551","0-0","","200","160","8","CORN CROP","Left","200","180","1","NETTLE WEED","experimental","25","1,2,3,4,5,6,7,8","160,157.6523429578218,164.70250289111686,177.48669260901193,187.76902099557833,162.71808145573243,156.11475331188808,124.17356663660519","8,7,6,5,4,3,2,1","CORN CROP,CORN CROP,CORN CROP,CORN CROP,CORN CROP,CORN CROP,CORN CROP,CORN CROP","180,130,150.34005000151166,211.53364934272128,202.18979317967077,235.5797920851402,251.4016196410091,246.86299715788613","1,7,6,5,4,3,2,1","NETTLE WEED,THISTLE WEED,THISTLE WEED,THISTLE WEED,THISTLE WEED,THISTLE WEED,THISTLE WEED,THISTLE WEED","20,20,20,20,20,20,20,20","20,20,20,20,20,20,20,20","10,10,10,10,10,10,10,10","20,20,20,20,20,20,20,20","0,0,0,0,0,0,0,0","20,20,20,20,20,20,20,20","20,20,20,20,20,20,20,20","20,20,20,20,20,20,20,20","10,10,10,10,10,10,10,10","20,20,20,20,20,20,20,20","0,0,0,0,0,0,0,0","20,20,20,20,20,20,20,20","0,0,0,1,1,1,1,1","926,890,357,667,306,484,86,38","-2.3476570421782164,7.050159933295074,12.784189717895059,10.282328386566402,-25.050939539845906,-6.603328143844358,-31.941186675282886,-10.242940199500275","7.02525747912868,20.340050001511653,61.19359934120962,-9.343856163050493,33.38999890546943,15.821827555868888,-4.538622483122959,-1.7304624868113803","0","0"
"80","86","text","0","77","658718","0-0","","","","","","","","","","","","","","","","","","","","","","","","","","","","","","","","","","","","",""
"","","plant-game","0","78","666497","0-0","","200","180","1","WHEAT CROP","Left","200","180","8","NETTLE WEED","experimental","26","1,2,3,4,5,6,7,8","180,130,125.84862852002237,122.28334711919865,87.43050356179816,58.71016419237638,66.04098026161253,82.96059884525032","1,7,6,5,4,3,2,1","WHEAT CROP,CORN CROP,CORN CROP,CORN CROP,CORN CROP,CORN CROP,CORN CROP,CORN CROP","180,190.40622789250256,165.36762498549746,156.5468231576657,175.71759923582917,158.85099308283444,164.63986295657028,194.2183596513747","8,7,6,5,4,3,2,1","NETTLE WEED,NETTLE WEED,NETTLE WEED,NETTLE WEED,NETTLE WEED,NETTLE WEED,NETTLE WEED,NETTLE WEED","20,20,20,20,20,20,20,20","20,20,20,20,20,20,20,20","10,10,10,10,10,10,10,10","20,20,20,20,20,20,20,20","0,0,0,0,0,0,0,0","20,20,20,20,20,20,20,20","20,20,20,20,20,20,20,20","20,20,20,20,20,20,20,20","10,10,10,10,10,10,10,10","20,20,20,20,20,20,20,20","0,0,0,0,0,0,0,0","20,20,20,20,20,20,20,20","1,1,1,1,1,0,0,0","551,1110,253,253,260,290,97,136","-4.5841105484404,-4.151371479977623,-3.565281400823716,-34.85284355740048,-28.72033936942178,7.330816069236155,16.919618583637785,23.914123419775613","10.40622789250255,-25.038602907005085,-8.820801827831758,19.17077607816348,-16.866606152994724,5.7888698737358375,29.578496694804407,6.270532487645934","0","0"
"80","86","text","0","79","666657","0-0","","","","","","","","","","","","","","","","","","","","","","","","","","","","","","","","","","","","",""
"","","plant-game","0","80","678500","0-0","","200","120","1","WHEAT CROP","Left","200","190","8","NETTLE WEED","experimental","27","1,2,3,4,5,6,7,8","120,130,133.45428004562513,133.63949577731424,169.38064836762888,178.9159155326761,202.79452023875785,178.0495383449608","1,7,6,5,4,3,2,1","WHEAT CROP,CORN CROP,CORN CROP,CORN CROP,CORN CROP,CORN CROP,CORN CROP,CORN CROP","190,196.19262730244313,199.53969819938743,159.6521987688002,190.35730501432306,183.09130883610274,214.49419211921514,205.75416687252596","8,7,6,5,4,3,2,1","NETTLE WEED,NETTLE WEED,NETTLE WEED,NETTLE WEED,NETTLE WEED,NETTLE WEED,NETTLE WEED,NETTLE WEED","20,20,20,20,20,20,20,20","20,20,20,20,20,20,20,20","10,10,10,10,10,10,10,10","20,20,20,20,20,20,20,20","0,0,0,0,0,0,0,0","20,20,20,20,20,20,20,20","20,20,20,20,20,20,20,20","20,20,20,20,20,20,20,20","10,10,10,10,10,10,10,10","20,20,20,20,20,20,20,20","0,0,0,0,0,0,0,0","20,20,20,20,20,20,20,20","1,1,1,0,1,1,1,1","581,1047,1043,987,500,270,936,647","22.73526900270264,3.4542800456251284,0.18521573168912397,35.74115259031464,9.535267165047221,23.878604706081738,-24.74498189379706,26.12763914203803","6.192627302443129,3.347070896944314,-39.887499430587255,30.705106245522863,-7.265996178220324,31.4028832831124,-8.740025246689191,-26.065099394072817","0","0"
"93","86","text","0","81","678666","0-0","","","","","","","","","","","","","","","","","","","","","","","","","","","","","","","","","","","","",""
"","","plant-game","0","82","689455","0-0","","200","180","8","WHEAT CROP","Left","200","160","1","NETTLE WEED","experimental","28","1,2,3,4,5,6,7,8","180,206.79764638005523,232.39087032245504,238.1560539285114,230.3265140679904,197.70221867384095,184.21748130475962,219.80952975475367","8,7,6,5,4,3,2,1","WHEAT CROP,WHEAT CROP,WHEAT CROP,WHEAT CROP,WHEAT CROP,WHEAT CROP,WHEAT CROP,WHEAT CROP","160,130,107.6134374569022,77.9952376516535,49.35309155887932,70.05036114821337,94.0798991602228,143.05500617601416","1,7,6,5,4,3,2,1","NETTLE WEED,THISTLE WEED,THISTLE WEED,THISTLE WEED,THISTLE WEED,THISTLE WEED,THISTLE WEED,THISTLE WEED","20,20,20,20,20,20,20,20","20,20,20,20,20,20,20,20","10,10,10,10,10,10,10,10","20,20,20,20,20,20,20,20","0,0,0,0,0,0,0,0","20,20,20,20,20,20,20,20","20,20,20,20,20,20,20,20","20,20,20,20,20,20,20,20","10,10,10,10,10,10,10,10","20,20,20,20,20,20,20,20","0,0,0,0,0,0,0,0","20,20,20,20,20,20,20,20","1,1,1,1,1,1,0,0","787,557,526,358,377,949,1307,317","26.79764638005522,25.593223942399824,5.765183606056347,-7.829539860521003,-32.62429539414943,-13.484737369081323,35.592048449994046,9.784728066020634","25.08469977628666,-22.386562543097792,-29.618199805248715,-28.642146092774176,20.697269589334056,24.029538012009432,48.97510701579137,8.977904342951815","0","0"
"448","86","text","0","83","689993","0-0","","","","","","","","","","","","","","","","","","","","","","","","","","","","","","","","","","","","",""
"","","plant-game","0","84","703823","0-0","","200","190","4","CORN CROP","Right","200","190","8","THISTLE WEED","experimental","29","1,2,3,4,5,6,7,8","190,198.19639169173604,204.4879460591036,214.25909749743468,227.89900879527156,238.34080662010243,264.43169074669856,283.6251288244175","8,7,6,5,4,3,2,1","THISTLE WEED,THISTLE WEED,THISTLE WEED,THISTLE WEED,THISTLE WEED,THISTLE WEED,THISTLE WEED,THISTLE WEED","190,217.0973779153539,202.37744022165606,201.43653680550085,160,202.51704213720035,215.3413836094636,246.29769766398476","4,3,2,1,4,3,2,1","CORN CROP,CORN CROP,CORN CROP,CORN CROP,WHEAT CROP,WHEAT CROP,WHEAT CROP,WHEAT CROP","0,0,0,0,0,0,0,0","20,20,20,20,20,20,20,20","10,10,10,10,10,10,10,10","20,20,20,20,20,20,20,20","20,20,20,20,20,20,20,20","20,20,20,20,20,20,20,20","0,0,0,0,0,0,0,0","20,20,20,20,20,20,20,20","10,10,10,10,10,10,10,10","20,20,20,20,20,20,20,20","20,20,20,20,20,20,20,20","20,20,20,20,20,20,20,20","1,0,0,0,1,0,1,1","1080,1625,535,1137,1559,863,581,432","8.196391691736025,6.2915543673675405,9.771151438331083,13.639911297836885,10.441797824830859,26.09088412659613,19.19343807771898,16.209786913024328","27.09737791535389,-14.719937693697833,-0.9409034161552022,9.700966606764087,42.51704213720036,12.82434147226325,30.956314054521158,7.291681080360524","0","0"
"177","86","text","0","85","704080","0-0","","","","","","","","","","","","","","","","","","","","","","","","","","","","","","","","","","","","",""
"","","plant-game","0","86","713356","0-0","","200","120","2","CORN CROP","Left","200","160","8","THISTLE WEED","experimental","30","1,2,3,4,5,6,7,8","120,113.5391210173567,140,152.7157523532508,127.87747756409378,169.77726906461456,206.42006652092533,230.32529480513813","2,1,6,5,4,3,2,1","CORN CROP,CORN CROP,WHEAT CROP,WHEAT CROP,WHEAT CROP,WHEAT CROP,WHEAT CROP,WHEAT CROP","160,188.3611001705462,195.4782807123045,189.597958078351,220.3235883177733,239.33282887235202,203.62670466789336,167.80715618163072","8,7,6,5,4,3,2,1","THISTLE WEED,THISTLE WEED,THISTLE WEED,THISTLE WEED,THISTLE WEED,THISTLE WEED,THISTLE WEED,THISTLE WEED","20,20,20,20,20,20,20,20","20,20,20,20,20,20,20,20","10,10,10,10,10,10,10,10","20,20,20,20,20,20,20,20","0,0,0,0,0,0,0,0","20,20,20,20,20,20,20,20","20,20,20,20,20,20,20,20","20,20,20,20,20,20,20,20","10,10,10,10,10,10,10,10","20,20,20,20,20,20,20,20","0,0,0,0,0,0,0,0","20,20,20,20,20,20,20,20","1,1,1,1,1,1,1,1","567,407,1340,320,823,80,70,80","-6.460878982643288,-14.781109481231265,12.715752353250798,-24.838274789157015,41.89979150052078,36.64279745631076,23.905228284212782,26.681878181256586","28.36110017054621,7.1171805417583105,-5.880322633953485,30.72563023942228,19.00924055457873,-35.70612420445865,-35.81954848626265,14.772453323398862","0","0"
"107","86","text","0","87","713553","0-0","","","","","","","","","","","","","","","","","","","","","","","","","","","","","","","","","","","","",""
"","","plant-game","0","88","728356","0-0","","200","190","8","CORN CROP","Right","200","180","4","NETTLE WEED","experimental","31","1,2,3,4,5,6,7,8","180,191.41138088614176,184.9433840424499,196.80966034034148,160,207.37935581031212,196.50330678944496,223.5871973298742","4,3,2,1,4,3,2,1","NETTLE WEED,NETTLE WEED,NETTLE WEED,NETTLE WEED,THISTLE WEED,THISTLE WEED,THISTLE WEED,THISTLE WEED","190,235.06046960649255,213.11473504168632,233.63741206989602,206.280458146807,234.40455674480802,253.3572281568319,303.9305931639651","8,7,6,5,4,3,2,1","CORN CROP,CORN CROP,CORN CROP,CORN CROP,CORN CROP,CORN CROP,CORN CROP,CORN CROP","0,0,0,0,0,0,0,0","20,20,20,20,20,20,20,20","10,10,10,10,10,10,10,10","20,20,20,20,20,20,20,20","20,20,20,20,20,20,20,20","20,20,20,20,20,20,20,20","0,0,0,0,0,0,0,0","20,20,20,20,20,20,20,20","10,10,10,10,10,10,10,10","20,20,20,20,20,20,20,20","20,20,20,20,20,20,20,20","20,20,20,20,20,20,20,20","1,0,0,0,1,1,1,0","443,940,326,576,806,2358,1996,1163","11.411380886141751,-6.467996843691863,11.866276297891572,31.65119391382448,47.379355810312106,-10.876049020867168,27.083890540429223,-8.793402642691836","45.06046960649255,-21.945734564806223,20.5226770282097,-27.356953923088994,28.124098598001005,18.952671412023882,50.57336500713319,-6.349171555437048","1","0"
"1490","86","text","0","89","729946","0-0","","","","","","","","","","","","","","","","","","","","","","","","","","","","","","","","","","","","",""
"","","plant-game","0","90","734928","0-0","","200","180","4","WHEAT CROP","Right","200","120","4","THISTLE WEED","experimental","32","1,2,3,4","120,135.73260496770806,101.99793855944628,133.10151068056933","4,3,2,1","THISTLE WEED,THISTLE WEED,THISTLE WEED,THISTLE WEED","180,222.06721175324293,243.32682326255443,243.77161265656665","4,3,2,1","WHEAT CROP,WHEAT CROP,WHEAT CROP,WHEAT CROP","0,0,0,0","20,20,20,20","10,10,10,10","20,20,20,20","20,20,20,20","20,20,20,20","0,0,0,0","20,20,20,20","10,10,10,10","20,20,20,20","20,20,20,20","20,20,20,20","1,1,1,1","580,233,510,504","15.732604967708047,-33.734666408261766,31.103572121123037,-9.887247001278055","42.067211753242944,21.25961150931149,0.4447893940122256,29.75710460467525","0","0"
"75","86","text","0","91","735088","0-0","","","","","","","","","","","","","","","","","","","","","","","","","","","","","","","","","","","","",""
"","","plant-game","0","92","746046","0-0","","200","160","2","CORN CROP","Right","200","180","1","THISTLE WEED","experimental","33","1,2","180,190","1,1","THISTLE WEED,NETTLE WEED","160,213.69932943546127","2,1","CORN CROP,CORN CROP","0,0","20,20","10,10","20,20","20,20","20,20","0,0","20,20","10,10","20,20","20,20","20,20","1,1","3002,1626","21.1829508771184,13.099152759613517","53.69932943546126,-0.10933519445416806","1","0"
"598","86","text","0","93","746774","0-0","","","","","","","","","","","","","","","","","","","","","","","","","","","","","","","","","","","","",""
"","","plant-game","0","94","758432","0-0","","200","160","8","CORN CROP","Left","200","120","4","THISTLE WEED","experimental","34","1,2,3,4,5,6,7,8","160,146.1626588912574,167.02311470072254,140.44609300064047,151.22830011035595,158.9240105787007,173.4160556233704,192.35806723516453","8,7,6,5,4,3,2,1","CORN CROP,CORN CROP,CORN CROP,CORN CROP,CORN CROP,CORN CROP,CORN CROP,CORN CROP","120,126.94785236277302,125.91052425939183,140.34554868500018,160,151.4917503617888,201.856740575211,188.69866454860914","4,3,2,1,4,3,2,1","THISTLE WEED,THISTLE WEED,THISTLE WEED,THISTLE WEED,NETTLE WEED,NETTLE WEED,NETTLE WEED,NETTLE WEED","20,20,20,20,20,20,20,20","20,20,20,20,20,20,20,20","10,10,10,10,10,10,10,10","20,20,20,20,20,20,20,20","0,0,0,0,0,0,0,0","20,20,20,20,20,20,20,20","20,20,20,20,20,20,20,20","20,20,20,20,20,20,20,20","10,10,10,10,10,10,10,10","20,20,20,20,20,20,20,20","0,0,0,0,0,0,0,0","20,20,20,20,20,20,20,20","1,1,1,0,1,1,0,0","817,380,510,1293,1230,374,1245,605","-13.837341108742615,20.860455809465144,-26.577021700082057,10.782207109715475,7.695710468344731,14.492045044669704,18.94201161179414,30.608138054592658","6.947852362773023,-1.0373281033811796,14.435024425608356,11.990716529543853,-8.508249638211197,50.36499021342222,-13.158076026601854,11.25045410913102","0","0"
"74","86","text","0","95","758616","0-0","","","","","","","","","","","","","","","","","","","","","","","","","","","","","","","","","","","","",""
"","","plant-game","0","96","769536","0-0","","200","120","2","WHEAT CROP","Left","200","190","8","THISTLE WEED","experimental","35","1,2,3,4,5,6,7,8","120,101.28431132557078,140,154.8506372596062,175.17541651425304,179.28459571957376,176.33538059022936,186.75261930473192","2,1,6,5,4,3,2,1","WHEAT CROP,WHEAT CROP,CORN CROP,CORN CROP,CORN CROP,CORN CROP,CORN CROP,CORN CROP","190,192.3476351286101,183.09123797453458,184.02265280362315,206.73374166784149,199.6623307162706,195.13664772362776,219.88737122997787","8,7,6,5,4,3,2,1","THISTLE WEED,THISTLE WEED,THISTLE WEED,THISTLE WEED,THISTLE WEED,THISTLE WEED,THISTLE WEED,THISTLE WEED","20,20,20,20,20,20,20,20","20,20,20,20,20,20,20,20","10,10,10,10,10,10,10,10","20,20,20,20,20,20,20,20","0,0,0,0,0,0,0,0","20,20,20,20,20,20,20,20","20,20,20,20,20,20,20,20","20,20,20,20,20,20,20,20","10,10,10,10,10,10,10,10","20,20,20,20,20,20,20,20","0,0,0,0,0,0,0,0","20,20,20,20,20,20,20,20","1,1,0,0,1,1,0,1","577,1440,1117,397,473,393,504,510","-18.715688674429213,13.342864794478782,14.850637259606195,20.32477925464684,4.109179205320711,-2.9492151293443865,10.417238714502572,42.45040478801839","2.347635128610099,-9.256397154075534,0.9314148290885598,22.71108886421833,-7.071410951570889,-4.525682992642823,24.7507235063501,-44.15912023547215","0","0"
"481","86","text","0","97","770117","0-0","","","","","","","","","","","","","","","","","","","","","","","","","","","","","","","","","","","","",""
"","","plant-game","0","98","780845","0-0","","200","180","2","CORN CROP","Left","200","190","8","NETTLE WEED","experimental","36","1,2,3,4,5,6,7,8","180,172.62379902146884,140,151.8812204217453,143.5630953082902,176.54592659875038,198.92804786206798,210.54859344887367","2,1,6,5,4,3,2,1","CORN CROP,CORN CROP,WHEAT CROP,WHEAT CROP,WHEAT CROP,WHEAT CROP,WHEAT CROP,WHEAT CROP","190,182.3319113213654,233.37215533285305,199.98095839485848,199.61519668643655,183.5222058532445,165.11685849699444,159.1252733721326","8,7,6,5,4,3,2,1","NETTLE WEED,NETTLE WEED,NETTLE WEED,NETTLE WEED,NETTLE WEED,NETTLE WEED,NETTLE WEED,NETTLE WEED","20,20,20,20,20,20,20,20","20,20,20,20,20,20,20,20","10,10,10,10,10,10,10,10","20,20,20,20,20,20,20,20","0,0,0,0,0,0,0,0","20,20,20,20,20,20,20,20","20,20,20,20,20,20,20,20","20,20,20,20,20,20,20,20","10,10,10,10,10,10,10,10","20,20,20,20,20,20,20,20","0,0,0,0,0,0,0,0","20,20,20,20,20,20,20,20","1,0,1,1,0,0,0,0","1173,900,1064,546,869,668,437,423","-7.37620097853115,5.665928952444164,11.8812204217453,-8.318125113455082,32.982831290460176,22.382121263317604,11.620545586805699,10.729260926344665","-7.668088678634616,51.04024401148766,-33.391196937994586,-0.36576170842193334,-16.092990833192076,-18.40534735625004,-5.991585124861835,19.983767909464415","0","0"
"60","86","text","0","99","781035","0-0","","","","","","","","","","","","","","","","","","","","","","","","","","","","","","","","","","","","",""
"","","plant-game","0","100","784399","0-0","","200","120","1","CORN CROP","Right","200","120","1","THISTLE WEED","experimental","37","1","120","1","THISTLE WEED","120","1","CORN CROP","0","20","10","20","20","20","0","20","10","20","20","20","1","651","11.21897871409283","42.55101860901748","0","0"
"483","86","text","0","101","785002","0-0","","","","","","","","","","","","","","","","","","","","","","","","","","","","","","","","","","","","",""
"","","plant-game","0","102","795140","0-0","","200","180","8","WHEAT CROP","Right","200","190","4","NETTLE WEED","experimental","38","1,2,3,4,5,6,7,8","190,224.72781913929532,215.02888532498258,229.50697040224452,160,177.7853642224988,206.44616497782152,205.4306897041244","4,3,2,1,4,3,2,1","NETTLE WEED,NETTLE WEED,NETTLE WEED,NETTLE WEED,THISTLE WEED,THISTLE WEED,THISTLE WEED,THISTLE WEED","180,180.8412471693767,159.30361222567498,169.27237735287414,162.419749812919,189.76003648740942,210.09099426651457,214.40012810035307","8,7,6,5,4,3,2,1","WHEAT CROP,WHEAT CROP,WHEAT CROP,WHEAT CROP,WHEAT CROP,WHEAT CROP,WHEAT CROP,WHEAT CROP","0,0,0,0,0,0,0,0","20,20,20,20,20,20,20,20","10,10,10,10,10,10,10,10","20,20,20,20,20,20,20,20","20,20,20,20,20,20,20,20","20,20,20,20,20,20,20,20","0,0,0,0,0,0,0,0","20,20,20,20,20,20,20,20","10,10,10,10,10,10,10,10","20,20,20,20,20,20,20,20","20,20,20,20,20,20,20,20","20,20,20,20,20,20,20,20","1,0,0,0,1,1,0,0","745,770,263,350,694,358,390,372","34.727819139295335,-9.698933814312747,14.47808507726193,18.61273443447609,17.78536422249879,28.660800755322725,-1.0154752736971129,-13.422177732205483","0.8412471693766896,-21.537634943701704,9.96876512719915,-6.852627539955133,27.340286674490414,20.330957779105137,4.309133833838492,-33.2899890773123","0","0"
"71","86","text","0","103","795311","0-0","","","","","","","","","","","","","","","","","","","","","","","","","","","","","","","","","","","","",""
"","","plant-game","0","104","800583","0-0","","200","180","4","CORN CROP","Right","200","180","4","NETTLE WEED","experimental","39","1,2,3,4","180,198.96732983942266,187.53368325353358,213.16480816839385","4,3,2,1","NETTLE WEED,NETTLE WEED,NETTLE WEED,NETTLE WEED","180,192.79296556618377,168.7623240175232,160.609498115933","4,3,2,1","CORN CROP,CORN CROP,CORN CROP,CORN CROP","0,0,0,0","20,20,20,20","10,10,10,10","20,20,20,20","20,20,20,20","20,20,20,20","0,0,0,0","20,20,20,20","10,10,10,10","20,20,20,20","20,20,20,20","20,20,20,20","1,0,0,1","738,901,156,294","18.967329839422653,-11.433646585889088,25.63112491486028,31.089378404900664","12.792965566183767,-24.030641548660544,-8.152825901590198,-0.4113315209932651","0","0"
"63","86","text","0","105","800766","0-0","","","","","","","","","","","","","","","","","","","","","","","","","","","","","","","","","","","","",""
"","","plant-game","0","106","807143","0-0","","200","120","4","WHEAT CROP","Left","200","190","2","THISTLE WEED","experimental","40","1,2,3,4","120,109.34219896015067,101.86736723977496,126.2797018552516","4,3,2,1","WHEAT CROP,WHEAT CROP,WHEAT CROP,WHEAT CROP","190,248.42955646354255,180,158.03337352632042","2,1,2,1","THISTLE WEED,THISTLE WEED,NETTLE WEED,NETTLE WEED","20,20,20,20","20,20,20,20","10,10,10,10","20,20,20,20","0,0,0,0","20,20,20,20","20,20,20,20","20,20,20,20","10,10,10,10","20,20,20,20","0,0,0,0","20,20,20,20","0,1,0,0","670,498,678,322","-10.657801039849328,-7.474831720375702,24.41233461547664,17.472605420635887","58.42955646354257,6.989496212051366,-21.96662647367959,18.98109476867281","0","0"
"80","86","text","0","107","807333","0-0","","","","","","","","","","","","","","","","","","","","","","","","","","","","","","","","","","","","",""
"","","plant-game","0","108","817739","0-0","","200","160","8","CORN CROP","Left","200","120","1","NETTLE WEED","experimental","41","1,2,3,4,5,6,7,8","160,188.92478577536835,207.24418309154356,217.34785751997234,252.01914338899581,282.38269638830917,278.3967595122849,281.8884844788408","8,7,6,5,4,3,2,1","CORN CROP,CORN CROP,CORN CROP,CORN CROP,CORN CROP,CORN CROP,CORN CROP,CORN CROP","120,130,140.64668450004606,149.89271299600284,150.73482169322523,157.67925247194913,177.1458035901841,201.51570135571026","1,7,6,5,4,3,2,1","NETTLE WEED,THISTLE WEED,THISTLE WEED,THISTLE WEED,THISTLE WEED,THISTLE WEED,THISTLE WEED,THISTLE WEED","20,20,20,20,20,20,20,20","20,20,20,20,20,20,20,20","10,10,10,10,10,10,10,10","20,20,20,20,20,20,20,20","0,0,0,0,0,0,0,0","20,20,20,20,20,20,20,20","20,20,20,20,20,20,20,20","20,20,20,20,20,20,20,20","10,10,10,10,10,10,10,10","20,20,20,20,20,20,20,20","0,0,0,0,0,0,0,0","20,20,20,20,20,20,20,20","0,1,0,0,0,0,0,1","1213,795,708,610,456,442,340,471","28.92478577536836,18.31939731617522,10.103674428428768,34.67128586902348,30.363552999313345,-3.985936876024283,3.4917249665558536,38.0507405393357","8.872958581632888,10.646684500046074,9.246028495956779,0.8421086972223755,6.944430778723902,19.466551118234968,24.36989776552615,2.172590419502828","0","0"
"77","86","text","0","109","817926","0-0","","","","","","","","","","","","","","","","","","","","","","","","","","","","","","","","","","","","",""
"","","plant-game","0","110","827894","0-0","","200","190","8","WHEAT CROP","Right","200","180","2","NETTLE WEED","experimental","42","1,2,3,4,5,6,7,8","180,194.70682533378684,140,122.717192754676,139.17187120106257,158.70549956101965,184.81400760066543,154.8875733782219","2,1,6,5,4,3,2,1","NETTLE WEED,NETTLE WEED,THISTLE WEED,THISTLE WEED,THISTLE WEED,THISTLE WEED,THISTLE WEED,THISTLE WEED","190,205.3976232101336,190.121638509607,229.30120969950588,246.27046967624747,242.65109968000095,246.38210490435827,273.25451155008705","8,7,6,5,4,3,2,1","WHEAT CROP,WHEAT CROP,WHEAT CROP,WHEAT CROP,WHEAT CROP,WHEAT CROP,WHEAT CROP,WHEAT CROP","0,0,0,0,0,0,0,0","20,20,20,20,20,20,20,20","10,10,10,10,10,10,10,10","20,20,20,20,20,20,20,20","20,20,20,20,20,20,20,20","20,20,20,20,20,20,20,20","0,0,0,0,0,0,0,0","20,20,20,20,20,20,20,20","10,10,10,10,10,10,10,10","20,20,20,20,20,20,20,20","20,20,20,20,20,20,20,20","20,20,20,20,20,20,20,20","1,0,1,1,0,0,0,0","750,663,853,675,608,380,385,663","14.706825333786835,-13.1278457519453,-17.282807245323987,16.454678446386556,19.53362835995709,26.1085080396458,-29.926434222443525,-7.013881903811705","15.397623210133599,-15.275984700526564,39.17957118989888,16.969259976741604,-3.6193699962465082,3.731005224357329,26.87240664572876,25.06012815175241","0","0"
"129","86","text","0","111","828123","0-0","","","","","","","","","","","","","","","","","","","","","","","","","","","","","","","","","","","","",""
"","","plant-game","0","112","831429","0-0","","200","190","2","CORN CROP","Right","200","180","2","NETTLE WEED","experimental","43","1,2","180,237.96828509435227","2,1","NETTLE WEED,NETTLE WEED","190,176.1748635170189","2,1","CORN CROP,CORN CROP","0,0","20,20","10,10","20,20","20,20","20,20","0,0","20,20","10,10","20,20","20,20","20,20","1,0","517,430","57.96828509435228,7.1986982498542265","-13.825136482981094,-27.801837468835608","0","0"
"600","86","text","0","113","832139","0-0","","","","","","","","","","","","","","","","","","","","","","","","","","","","","","","","","","","","",""
"","","plant-game","0","114","840402","0-0","","200","160","8","CORN CROP","Left","200","160","2","NETTLE WEED","experimental","44","1,2,3,4,5,6,7,8","160,189.16998632291228,206.04318383233752,224.9582986329976,248.21726555267566,244.87013103213823,286.7805109547432,318.39419769257415","8,7,6,5,4,3,2,1","CORN CROP,CORN CROP,CORN CROP,CORN CROP,CORN CROP,CORN CROP,CORN CROP,CORN CROP","160,157.47293174521982,140,129.45958193890738,175.20524751906757,180.40170674703856,202.407106802304,225.95413032158004","2,1,6,5,4,3,2,1","NETTLE WEED,NETTLE WEED,THISTLE WEED,THISTLE WEED,THISTLE WEED,THISTLE WEED,THISTLE WEED,THISTLE WEED","20,20,20,20,20,20,20,20","20,20,20,20,20,20,20,20","10,10,10,10,10,10,10,10","20,20,20,20,20,20,20,20","0,0,0,0,0,0,0,0","20,20,20,20,20,20,20,20","20,20,20,20,20,20,20,20","20,20,20,20,20,20,20,20","10,10,10,10,10,10,10,10","20,20,20,20,20,20,20,20","0,0,0,0,0,0,0,0","20,20,20,20,20,20,20,20","1,1,1,1,1,0,0,0","287,656,790,360,277,366,569,77","29.169986322912273,16.87319750942525,18.915114800660085,23.258966919678038,-3.347134520537422,41.910379922604946,31.613686737830967,4.626743226891186","-2.527068254780163,7.432052516247398,-10.540418061092629,45.7456655801602,5.196459227970998,22.005400055265447,23.547023519276035,23.528347347377622","0","0"
"54","86","text","0","115","840576","0-0","","","","","","","","","","","","","","","","","","","","","","","","","","","","","","","","","","","","",""
"","","plant-game","0","116","849381","0-0","","200","160","2","CORN CROP","Left","200","120","8","NETTLE WEED","experimental","45","1,2,3,4,5,6,7,8","160,180.55439489368197,140,149.52947662437867,193.22595143026243,180.81132999160968,178.8405719972631,214.31306269175525","2,1,6,5,4,3,2,1","CORN CROP,CORN CROP,WHEAT CROP,WHEAT CROP,WHEAT CROP,WHEAT CROP,WHEAT CROP,WHEAT CROP","120,136.5239075830172,146.17742431311248,193.35507066135008,223.83175883464634,242.07605872784293,252.87519143571956,246.5967270027004","8,7,6,5,4,3,2,1","NETTLE WEED,NETTLE WEED,NETTLE WEED,NETTLE WEED,NETTLE WEED,NETTLE WEED,NETTLE WEED,NETTLE WEED","20,20,20,20,20,20,20,20","20,20,20,20,20,20,20,20","10,10,10,10,10,10,10,10","20,20,20,20,20,20,20,20","0,0,0,0,0,0,0,0","20,20,20,20,20,20,20,20","20,20,20,20,20,20,20,20","20,20,20,20,20,20,20,20","10,10,10,10,10,10,10,10","20,20,20,20,20,20,20,20","0,0,0,0,0,0,0,0","20,20,20,20,20,20,20,20","0,0,0,0,1,1,1,1","2452,85,570,213,404,91,73,77","20.554394893681966,16.171154513535274,9.529476624378674,43.69647480588375,-12.41462143865273,-1.9707579943465658,35.472490694492144,12.827471853886339","16.5239075830172,9.653516730095275,47.1776463482376,30.476688173296267,18.244299893196594,10.799132707876637,-6.278464433019174,-45.10700231034228","0","0"
"64","86","text","0","117","849595","0-0","","","","","","","","","","","","","","","","","","","","","","","","","","","","","","","","","","","","",""
"","","plant-game","0","118","856501","0-0","","200","180","2","WHEAT CROP","Left","200","180","4","THISTLE WEED","experimental","46","1,2,3,4","180,209.94049722128528,180,186.4836672679267","2,1,2,1","WHEAT CROP,WHEAT CROP,CORN CROP,CORN CROP","180,176.05174100858682,190.27460028083547,181.37613572341937","4,3,2,1","THISTLE WEED,THISTLE WEED,THISTLE WEED,THISTLE WEED","20,20,20,20","20,20,20,20","10,10,10,10","20,20,20,20","0,0,0,0","20,20,20,20","20,20,20,20","20,20,20,20","10,10,10,10","20,20,20,20","0,0,0,0","20,20,20,20","0,0,1,1","997,524,631,357","29.94049722128529,18.979796963066057,6.483667267926697,-18.70408935255194","-3.9482589914131907,14.222859272248654,-8.898464557416117,-11.295204033757674","0","0"
"80","86","text","0","119","856691","0-0","","","","","","","","","","","","","","","","","","","","","","","","","","","","","","","","","","","","",""
"","","plant-game","0","120","865061","0-0","","200","190","8","CORN CROP","Right","200","160","2","NETTLE WEED","experimental","47","1,2,3,4,5,6,7,8","160,203.40541584308312,140,138.6907905348123,122.14080985510802,150.8229549675698,171.76639212824549,200.09736303199153","2,1,6,5,4,3,2,1","NETTLE WEED,NETTLE WEED,THISTLE WEED,THISTLE WEED,THISTLE WEED,THISTLE WEED,THISTLE WEED,THISTLE WEED","190,196.74384734676363,192.52578169847894,212.26476752789165,207.51873805126604,208.95499703017902,215.8931949363353,226.37949579378335","8,7,6,5,4,3,2,1","CORN CROP,CORN CROP,CORN CROP,CORN CROP,CORN CROP,CORN CROP,CORN CROP,CORN CROP","0,0,0,0,0,0,0,0","20,20,20,20,20,20,20,20","10,10,10,10,10,10,10,10","20,20,20,20,20,20,20,20","20,20,20,20,20,20,20,20","20,20,20,20,20,20,20,20","0,0,0,0,0,0,0,0","20,20,20,20,20,20,20,20","10,10,10,10,10,10,10,10","20,20,20,20,20,20,20,20","20,20,20,20,20,20,20,20","20,20,20,20,20,20,20,20","1,0,1,1,1,1,1,0","656,866,873,370,147,350,256,468","43.405415843083105,6.158891313448899,-1.3092094651877133,-16.549980679704277,28.68214511246179,20.943437160675668,28.33097090374606,12.304985590247753","6.743847346763621,-4.218065648284684,19.738985829412727,-4.746029476625608,1.436258978912985,6.938197906156283,10.486300857448049,-14.901927212524015","0","0"
"107","86","text","0","121","865258","0-0","","","","","","","","","","","","","","","","","","","","","","","","","","","","","","","","","","","","",""
"","","plant-game","0","122","871381","0-0","","200","160","2","CORN CROP","Left","200","190","4","THISTLE WEED","experimental","48","1,2,3,4","160,169.01730843750255,180,158.0549038369132","2,1,2,1","CORN CROP,CORN CROP,WHEAT CROP,WHEAT CROP","190,180.0125674773156,177.73580921579,203.49573637512606","4,3,2,1","THISTLE WEED,THISTLE WEED,THISTLE WEED,THISTLE WEED","20,20,20,20","20,20,20,20","10,10,10,10","20,20,20,20","0,0,0,0","20,20,20,20","20,20,20,20","20,20,20,20","10,10,10,10","20,20,20,20","0,0,0,0","20,20,20,20","1,1,1,1","463,343,996,174","9.017308437502562,4.535142661415152,-21.94509616308679,-40.58464774787937","-9.987432522684404,-2.276758261525609,25.759927159336065,-21.987688692284287","0","0"
"62","86","text","0","123","871553","0-0","","","","","","","","","","","","","","","","","","","","","","","","","","","","","","","","","","","","",""
"","","plant-game","0","124","879958","0-0","","200","120","2","CORN CROP","Left","200","190","1","THISTLE WEED","experimental","49","1,2","120,113.02840188287351","2,1","CORN CROP,CORN CROP","190,190","1,1","THISTLE WEED,NETTLE WEED","20,20","20,20","10,10","20,20","0,0","20,20","20,20","20,20","10,10","20,20","0,0","20,20","1,1","532,949","-6.971598117126484,-13.433767284835422","-13.488032771733875,30.218231693837375","0","0"
"140","86","text","0","125","880258","0-0","","","","","","","","","","","","","","","","","","","","","","","","","","","","","","","","","","","","",""
"","","plant-game","0","126","886134","0-0","","200","120","1","CORN CROP","Right","200","160","2","NETTLE WEED","experimental","50","1,2","160,173.4186761088327","2,1","NETTLE WEED,NETTLE WEED","120,190","1,1","CORN CROP,WHEAT CROP","0,0","20,20","10,10","20,20","20,20","20,20","0,0","20,20","10,10","20,20","20,20","20,20","1,0","527,1078","13.418676108832706,-9.531116422753515","26.450419329750577,11.339593494328707","0","0"
"80","86","text","0","127","886304","0-0","","","","","","","","","","","","","","","","","","","","","","","","","","","","","","","","","","","","",""
"","","plant-game","0","128","891771","0-0","","200","160","2","WHEAT CROP","Right","200","160","1","NETTLE WEED","experimental","51","1,2","160,190","1,1","NETTLE WEED,THISTLE WEED","160,143.22131461051507","2,1","WHEAT CROP,WHEAT CROP","0,0","20,20","10,10","20,20","20,20","20,20","0,0","20,20","10,10","20,20","20,20","20,20","1,1","1062,709","9.040737282228486,12.041401092591425","-16.77868538948494,5.0212685396822625","0","0"
"67","86","text","0","129","891958","0-0","","","","","","","","","","","","","","","","","","","","","","","","","","","","","","","","","","","","",""
"","","plant-game","0","130","901494","0-0","","200","190","2","CORN CROP","Left","200","190","8","THISTLE WEED","experimental","52","1,2,3,4,5,6,7,8","190,183.96346410100523,140,135.80126452170288,128.9293608064752,116.29353586220178,136.44802533042093,148.69688607108202","2,1,6,5,4,3,2,1","CORN CROP,CORN CROP,WHEAT CROP,WHEAT CROP,WHEAT CROP,WHEAT CROP,WHEAT CROP,WHEAT CROP","190,172.15938083362784,185.19699594011442,165.65342384521313,183.71163183196896,224.77507810345048,200.36117708240045,202.2682934932014","8,7,6,5,4,3,2,1","THISTLE WEED,THISTLE WEED,THISTLE WEED,THISTLE WEED,THISTLE WEED,THISTLE WEED,THISTLE WEED,THISTLE WEED","20,20,20,20,20,20,20,20","20,20,20,20,20,20,20,20","10,10,10,10,10,10,10,10","20,20,20,20,20,20,20,20","0,0,0,0,0,0,0,0","20,20,20,20,20,20,20,20","20,20,20,20,20,20,20,20","20,20,20,20,20,20,20,20","10,10,10,10,10,10,10,10","20,20,20,20,20,20,20,20","0,0,0,0,0,0,0,0","20,20,20,20,20,20,20,20","1,0,1,1,1,1,1,1","391,1267,1921,362,560,590,137,106","-6.036535898994781,1.0290823602655195,-4.198735478297127,-6.8719037152276865,-12.635824944273413,20.154489468219143,12.248860740661094,-1.804287648453764","-17.840619166372164,13.037615106486578,-19.543572094901283,18.058207986755843,41.063446271481524,-24.413901021050023,1.9071164108009637,-5.869659010572995","0","0"
"77","86","text","0","131","901691","0-0","","","","","","","","","","","","","","","","","","","","","","","","","","","","","","","","","","","","",""
"","","plant-game","0","132","908637","0-0","","200","190","4","WHEAT CROP","Left","200","160","1","THISTLE WEED","experimental","53","1,2,3,4","190,188.85865817651438,177.21507942271387,203.74328311542374","4,3,2,1","WHEAT CROP,WHEAT CROP,WHEAT CROP,WHEAT CROP","160,170,188.2495992979923,214.2795006777354","1,3,2,1","THISTLE WEED,NETTLE WEED,NETTLE WEED,NETTLE WEED","20,20,20,20","20,20,20,20","10,10,10,10","20,20,20,20","0,0,0,0","20,20,20,20","20,20,20,20","20,20,20,20","10,10,10,10","20,20,20,20","0,0,0,0","20,20,20,20","1,1,0,0","558,1070,1093,157","-1.1413418234856219,-11.643578753800497,26.52820369270986,29.92793292245831","28.318663702553476,18.2495992979923,26.0299013797431,39.27470454187041","0","0"
"97","86","text","0","133","908824","0-0","","","","","","","","","","","","","","","","","","","","","","","","","","","","","","","","","","","","",""
"","","plant-game","0","134","916315","0-0","","200","120","2","WHEAT CROP","Right","200","180","8","NETTLE WEED","experimental","54","1,2,3,4,5,6,7,8","180,188.06524975934627,201.41138437862813,227.95907081931838,220.9476166497507,199.68718237209904,229.28305659077137,210.96822841776017","8,7,6,5,4,3,2,1","NETTLE WEED,NETTLE WEED,NETTLE WEED,NETTLE WEED,NETTLE WEED,NETTLE WEED,NETTLE WEED,NETTLE WEED","120,112.83843008140451,140,164.8558968172298,200.34616097260172,207.5328617371266,167.66447298458712,193.4694804673295","2,1,6,5,4,3,2,1","WHEAT CROP,WHEAT CROP,CORN CROP,CORN CROP,CORN CROP,CORN CROP,CORN CROP,CORN CROP","0,0,0,0,0,0,0,0","20,20,20,20,20,20,20,20","10,10,10,10,10,10,10,10","20,20,20,20,20,20,20,20","20,20,20,20,20,20,20,20","20,20,20,20,20,20,20,20","0,0,0,0,0,0,0,0","20,20,20,20,20,20,20,20","10,10,10,10,10,10,10,10","20,20,20,20,20,20,20,20","20,20,20,20,20,20,20,20","20,20,20,20,20,20,20,20","1,1,0,0,0,0,0,0","271,320,951,305,92,84,110,360","8.065249759346269,13.346134619281859,26.547686440690256,-7.011454169567697,-21.260434277651665,29.595874218672336,-18.314828173011197,-1.4292853431268158","-7.161569918595486,31.614002445019665,24.855896817229777,35.49026415537193,7.186700764524875,-39.868388752539495,25.80500748274239,-20.593580922117706","0","0"
"113","86","text","0","135","916578","0-0","","","","","","","","","","","","","","","","","","","","","","","","","","","","","","","","","","","","",""
"","","plant-game","0","136","924295","0-0","","200","120","1","CORN CROP","Right","200","180","2","THISTLE WEED","experimental","55","1,2","180,172.8747474053653","2,1","THISTLE WEED,THISTLE WEED","120,190","1,1","CORN CROP,WHEAT CROP","0,0","20,20","10,10","20,20","20,20","20,20","0,0","20,20","10,10","20,20","20,20","20,20","0,1","1466,1007","-7.125252594634714,0.5612713413676715","41.65462804199214,-6.520816179037542","0","0"
"567","86","text","0","137","925002","0-0","","","","","","","","","","","","","","","","","","","","","","","","","","","","","","","","","","","","",""
"","","plant-game","0","138","932359","0-0","","200","190","1","WHEAT CROP","Right","200","190","4","THISTLE WEED","experimental","56","1,2,3,4","190,190.11806113238165,198.21227032008096,224.8120122305316","4,3,2,1","THISTLE WEED,THISTLE WEED,THISTLE WEED,THISTLE WEED","190,170,168.19237848818472,214.45892035101915","1,3,2,1","WHEAT CROP,CORN CROP,CORN CROP,CORN CROP","0,0,0,0","20,20,20,20","10,10,10,10","20,20,20,20","20,20,20,20","20,20,20,20","0,0,0,0","20,20,20,20","10,10,10,10","20,20,20,20","20,20,20,20","20,20,20,20","0,0,1,1","1240,776,710,150","0.11806113238165619,8.094209187699308,26.599741910450646,-3.9466338271333754","14.376022100111598,-1.8076215118152763,46.26654186283442,47.98412947478344","0","0"
"81","86","text","0","139","932541","0-0","","","","","","","","","","","","","","","","","","","","","","","","","","","","","","","","","","","","",""
"","","plant-game","0","140","938706","0-0","","200","180","8","WHEAT CROP","Right","200","180","8","THISTLE WEED","experimental","57","1,2,3,4,5,6,7,8","180,233.86764005748682,255.235449708847,239.17415612528654,229.21262502091292,247.35342522557042,260.01881382050686,295.40081463854233","8,7,6,5,4,3,2,1","THISTLE WEED,THISTLE WEED,THISTLE WEED,THISTLE WEED,THISTLE WEED,THISTLE WEED,THISTLE WEED,THISTLE WEED","180,207.844354865145,216.72828860518672,229.5487919845638,232.10254599021314,221.17017775379657,209.9998090369909,200.9917586112121","8,7,6,5,4,3,2,1","WHEAT CROP,WHEAT CROP,WHEAT CROP,WHEAT CROP,WHEAT CROP,WHEAT CROP,WHEAT CROP,WHEAT CROP","0,0,0,0,0,0,0,0","20,20,20,20,20,20,20,20","10,10,10,10,10,10,10,10","20,20,20,20,20,20,20,20","20,20,20,20,20,20,20,20","20,20,20,20,20,20,20,20","0,0,0,0,0,0,0,0","20,20,20,20,20,20,20,20","10,10,10,10,10,10,10,10","20,20,20,20,20,20,20,20","20,20,20,20,20,20,20,20","20,20,20,20,20,20,20,20","1,0,0,0,0,0,0,0","1111,1007,247,153,102,137,173,87","53.86764005748684,21.36780965136019,-16.061293583560467,-9.961531104373634,18.140800204657502,12.665388594936424,35.38200081803547,-31.99695839428998","27.844354865144982,8.883933740041721,12.820503379377081,2.55375400564936,-10.932368236416574,-11.170368716805667,-9.008050425778794,-39.597837788314024","0","0"
"1947","86","text","0","141","940803","0-0","","","","","","","","","","","","","","","","","","","","","","","","","","","","","","","","","","","","",""
"","","plant-game","0","142","947613","0-0","","200","190","1","CORN CROP","Right","200","190","2","THISTLE WEED","experimental","58","1,2","190,209.44147295814616","2,1","THISTLE WEED,THISTLE WEED","190,190","1,1","CORN CROP,WHEAT CROP","0,0","20,20","10,10","20,20","20,20","20,20","0,0","20,20","10,10","20,20","20,20","20,20","1,1","860,765","19.441472958146154,15.403202493877137","11.281628128556951,44.22372116262793","0","0"
"603","86","text","0","143","948346","0-0","","","","","","","","","","","","","","","","","","","","","","","","","","","","","","","","","","","","",""
"","","plant-game","0","144","951811","0-0","","200","120","2","WHEAT CROP","Left","200","190","2","NETTLE WEED","experimental","59","1,2","120,126.30730197458976","2,1","WHEAT CROP,WHEAT CROP","190,183.031614751256","2,1","NETTLE WEED,NETTLE WEED","20,20","20,20","10,10","20,20","0,0","20,20","20,20","20,20","10,10","20,20","0,0","20,20","1,1","832,254","6.307301974589759,16.067969362799786","-6.9683852487439975,7.936400584135949","0","0"
"1950","86","text","0","145","953891","0-0","","","","","","","","","","","","","","","","","","","","","","","","","","","","","","","","","","","","",""
"","","plant-game","0","146","963905","0-0","","200","180","8","WHEAT CROP","Right","200","120","1","THISTLE WEED","experimental","60","1,2,3,4,5,6,7,8","120,130,143.27412780223378,181.29891247481237,172.11134279759057,183.89041312334822,156.24563202584557,145.16149742440507","1,7,6,5,4,3,2,1","THISTLE WEED,NETTLE WEED,NETTLE WEED,NETTLE WEED,NETTLE WEED,NETTLE WEED,NETTLE WEED,NETTLE WEED","180,182.79602670823675,216.48888819324884,222.52269332664403,204.0555417215176,222.35004324057553,241.83197532015535,220.023012527086","8,7,6,5,4,3,2,1","WHEAT CROP,WHEAT CROP,WHEAT CROP,WHEAT CROP,WHEAT CROP,WHEAT CROP,WHEAT CROP,WHEAT CROP","0,0,0,0,0,0,0,0","20,20,20,20,20,20,20,20","10,10,10,10,10,10,10,10","20,20,20,20,20,20,20,20","20,20,20,20,20,20,20,20","20,20,20,20,20,20,20,20","0,0,0,0,0,0,0,0","20,20,20,20,20,20,20,20","10,10,10,10,10,10,10,10","20,20,20,20,20,20,20,20","20,20,20,20,20,20,20,20","20,20,20,20,20,20,20,20","1,0,1,1,1,1,0,1","992,1450,249,386,372,407,626,498","3.774840799554589,13.274127802233783,38.024784672578605,-9.187569677221795,11.779070325757658,-27.644781097502644,-11.084134601440505,35.02174450777116","2.796026708236745,33.69286148501209,6.033805133395191,-18.467151605126418,18.29450151905791,19.48193207957983,-21.80896279306935,46.51451879044953","0","0"
"60","86","text","0","147","964085","0-0","","","","","","","","","","","","","","","","","","","","","","","","","","","","","","","","","","","","",""
"","","plant-game","0","148","972749","0-0","","200","160","1","CORN CROP","Left","200","190","8","NETTLE WEED","experimental","61","1,2,3,4,5,6,7,8","160,130,113.12675657007497,87.7079087782738,45.71563080388987,29.75373425562088,0,15.598670922256776","1,7,6,5,4,3,2,1","CORN CROP,WHEAT CROP,WHEAT CROP,WHEAT CROP,WHEAT CROP,WHEAT CROP,WHEAT CROP,WHEAT CROP","190,204.34088710856597,203.75095280038255,197.59911133959395,208.225134665668,199.32694058430772,189.60774142349518,184.00486976681415","8,7,6,5,4,3,2,1","NETTLE WEED,NETTLE WEED,NETTLE WEED,NETTLE WEED,NETTLE WEED,NETTLE WEED,NETTLE WEED,NETTLE WEED","20,20,20,20,20,20,20,20","20,20,20,20,20,20,20,20","10,10,10,10,10,10,10,10","20,20,20,20,20,20,20,20","0,0,0,0,0,0,0,0","20,20,20,20,20,20,20,20","20,20,20,20,20,20,20,20","20,20,20,20,20,20,20,20","10,10,10,10,10,10,10,10","20,20,20,20,20,20,20,20","0,0,0,0,0,0,0,0","20,20,20,20,20,20,20,20","1,1,1,1,1,1,1,1","1887,1010,453,137,103,200,105,91","-15.532470548477349,-16.873243429925033,-25.418847791801163,-41.99227797438393,-15.961896548268992,-32.50116879104726,15.598670922256776,7.145464019551968","14.340887108565967,-0.5899343081834174,-6.151841460788598,10.62602332607405,-8.898194081360275,-9.719199160812543,-5.602871656681026,-5.204520487754973","0","0"
"87","86","text","0","149","972936","0-0","","","","","","","","","","","","","","","","","","","","","","","","","","","","","","","","","","","","",""
"","","plant-game","0","150","979675","0-0","","200","120","1","CORN CROP","Left","200","190","2","THISTLE WEED","experimental","62","1,2","120,190","1,1","CORN CROP,WHEAT CROP","190,194.63295736257956","2,1","THISTLE WEED,THISTLE WEED","20,20","20,20","10,10","20,20","0,0","20,20","20,20","20,20","10,10","20,20","0,0","20,20","1,0","1450,1193","3.68367608101961,46.11476617090376","4.632957362579559,15.837624498487296","0","0"
"633","86","text","0","151","980438","0-0","","","","","","","","","","","","","","","","","","","","","","","","","","","","","","","","","","","","",""
"","","plant-game","0","152","989304","0-0","","200","160","8","WHEAT CROP","Left","200","190","4","NETTLE WEED","experimental","63","1,2,3,4,5,6,7,8","160,142.57374723202852,171.16600316311576,192.2690348735639,225.2623435891793,261.4380131246964,266.11217188455123,282.3926295071852","8,7,6,5,4,3,2,1","WHEAT CROP,WHEAT CROP,WHEAT CROP,WHEAT CROP,WHEAT CROP,WHEAT CROP,WHEAT CROP,WHEAT CROP","190,176.30611336972947,183.32955616776962,189.06780663392246,160,169.5399576457043,155.44829302153937,162.05692813591617","4,3,2,1,4,3,2,1","NETTLE WEED,NETTLE WEED,NETTLE WEED,NETTLE WEED,THISTLE WEED,THISTLE WEED,THISTLE WEED,THISTLE WEED","20,20,20,20,20,20,20,20","20,20,20,20,20,20,20,20","10,10,10,10,10,10,10,10","20,20,20,20,20,20,20,20","0,0,0,0,0,0,0,0","20,20,20,20,20,20,20,20","20,20,20,20,20,20,20,20","20,20,20,20,20,20,20,20","10,10,10,10,10,10,10,10","20,20,20,20,20,20,20,20","0,0,0,0,0,0,0,0","20,20,20,20,20,20,20,20","1,0,0,0,1,1,1,1","478,926,217,375,679,363,396,458","-17.426252767971466,28.592255931087223,21.10303171044814,32.99330871561541,36.175669535517095,4.674158759854837,16.28045762263397,0.2241988709560175","-13.693886630270523,7.023442798040161,5.738250466152827,-1.316578247665273,9.539957645704305,-14.091664624164936,6.608635114376806,-6.547021703766958","0","0"
"1175","86","text","0","153","990579","0-0","","","","","","","","","","","","","","","","","","","","","","","","","","","","","","","","","","","","",""
"","","plant-game","0","154","998719","0-0","","200","190","1","CORN CROP","Right","200","180","8","THISTLE WEED","experimental","64","1,2,3,4,5,6,7,8","180,194.29255337318384,190.16854001259,125.42109823632974,105.74067013733044,117.04722690775986,167.33622020683737,190.90828189458477","8,7,6,5,4,3,2,1","THISTLE WEED,THISTLE WEED,THISTLE WEED,THISTLE WEED,THISTLE WEED,THISTLE WEED,THISTLE WEED,THISTLE WEED","190,130,124.28398306747712,142.49516361552173,148.6240935124195,148.13555470081218,131.20565925529326,111.86844164032495","1,7,6,5,4,3,2,1","CORN CROP,WHEAT CROP,WHEAT CROP,WHEAT CROP,WHEAT CROP,WHEAT CROP,WHEAT CROP,WHEAT CROP","0,0,0,0,0,0,0,0","20,20,20,20,20,20,20,20","10,10,10,10,10,10,10,10","20,20,20,20,20,20,20,20","20,20,20,20,20,20,20,20","20,20,20,20,20,20,20,20","0,0,0,0,0,0,0,0","20,20,20,20,20,20,20,20","10,10,10,10,10,10,10,10","20,20,20,20,20,20,20,20","20,20,20,20,20,20,20,20","20,20,20,20,20,20,20,20","1,0,0,0,1,1,1,0","672,1062,77,97,532,107,119,1378","14.292553373183846,-4.124013360593829,-64.74744177626026,-19.680428098999297,11.306556770429431,50.28899329907752,23.5720616877474,12.488735358647993","2.8305309394303997,-5.716016932522878,18.211180548044624,6.128929896897785,-0.4885388116073308,-16.92989544551891,-19.33721761496831,-5.705374031452433","0","0"
"98","86","text","0","155","998917","0-0","","","","","","","","","","","","","","","","","","","","","","","","","","","","","","","","","","","","",""
"","","plant-game","0","156","1007467","0-0","","200","180","1","WHEAT CROP","Right","200","190","8","THISTLE WEED","experimental","65","1,2,3,4,5,6,7,8","190,230.37286768515708,279.82162080268955,282.8030067652984,274.3585118170296,306.4281330485635,318.9874706424348,322.68909157505317","8,7,6,5,4,3,2,1","THISTLE WEED,THISTLE WEED,THISTLE WEED,THISTLE WEED,THISTLE WEED,THISTLE WEED,THISTLE WEED,THISTLE WEED","180,130,153.29053275965992,184.13231341344567,201.73121678877908,216.63306851570457,222.55286737624562,234.8591902926694","1,7,6,5,4,3,2,1","WHEAT CROP,CORN CROP,CORN CROP,CORN CROP,CORN CROP,CORN CROP,CORN CROP,CORN CROP","0,0,0,0,0,0,0,0","20,20,20,20,20,20,20,20","10,10,10,10,10,10,10,10","20,20,20,20,20,20,20,20","20,20,20,20,20,20,20,20","20,20,20,20,20,20,20,20","0,0,0,0,0,0,0,0","20,20,20,20,20,20,20,20","10,10,10,10,10,10,10,10","20,20,20,20,20,20,20,20","20,20,20,20,20,20,20,20","20,20,20,20,20,20,20,20","0,1,1,1,1,1,1,1","1743,708,231,122,82,159,166,88","40.37286768515707,49.448753117532455,2.981385962608819,-8.444494948268797,32.069621231533915,12.559337593871307,3.7016209326183755,26.781787102611265","19.81067894409414,23.290532759659918,30.84178065378576,17.59890337533341,14.901851726925479,5.919798860541054,12.306322916423788,9.82528523328185","0","0"
"82","86","text","0","157","1007669","0-0","","","","","","","","","","","","","","","","","","","","","","","","","","","","","","","","","","","","",""
"","","plant-game","0","158","1014382","0-0","","200","160","1","CORN CROP","Right","200","180","4","NETTLE WEED","experimental","66","1,2,3,4","180,162.7163672379315,179.79163788612595,223.52938300500858","4,3,2,1","NETTLE WEED,NETTLE WEED,NETTLE WEED,NETTLE WEED","160,170,190.6474385373227,205.98280353114112","1,3,2,1","CORN CROP,WHEAT CROP,WHEAT CROP,WHEAT CROP","0,0,0,0","20,20,20,20","10,10,10,10","20,20,20,20","20,20,20,20","20,20,20,20","0,0,0,0","20,20,20,20","10,10,10,10","20,20,20,20","20,20,20,20","20,20,20,20","0,1,1,1","1351,782,64,65","-17.2836327620685,17.07527064819445,43.73774511888263,21.075137455956963","-3.215574155440257,20.647438537322707,15.335364993818427,38.91849404076064","0","0"
"73","86","text","0","159","1014565","0-0","","","","","","","","","","","","","","","","","","","","","","","","","","","","","","","","","","","","",""
"","","plant-game","0","160","1020914","0-0","","200","160","2","WHEAT CROP","Left","200","160","8","THISTLE WEED","experimental","67","1,2,3,4,5,6,7,8","160,136.63207108922524,140,144.70308201187885,159.83865043344778,195.58429606928982,219.30640665687403,239.99691497825057","2,1,6,5,4,3,2,1","WHEAT CROP,WHEAT CROP,CORN CROP,CORN CROP,CORN CROP,CORN CROP,CORN CROP,CORN CROP","160,170.5935724797093,204.60870759791817,228.1892529807105,266.779973970267,305.58497610334314,338.2139629889646,336.37470291739487","8,7,6,5,4,3,2,1","THISTLE WEED,THISTLE WEED,THISTLE WEED,THISTLE WEED,THISTLE WEED,THISTLE WEED,THISTLE WEED,THISTLE WEED","20,20,20,20,20,20,20,20","20,20,20,20,20,20,20,20","10,10,10,10,10,10,10,10","20,20,20,20,20,20,20,20","0,0,0,0,0,0,0,0","20,20,20,20,20,20,20,20","20,20,20,20,20,20,20,20","20,20,20,20,20,20,20,20","10,10,10,10,10,10,10,10","20,20,20,20,20,20,20,20","0,0,0,0,0,0,0,0","20,20,20,20,20,20,20,20","1,1,0,0,0,0,0,0","458,320,750,93,133,96,84,88","-23.36792891077478,-7.675478369287018,4.703082011878852,15.135568421568923,35.74564563584204,23.722110587584204,20.690508321376548,3.195309630618514","10.59357247970931,34.015135118208875,23.58054538279233,38.590720989556495,38.8050021330761,32.62898688562149,-1.8392600715697505,69.05262390638401","0","0"
"1647","86","text","0","161","1022651","0-0","","","","","","","","","","","","","","","","","","","","","","","","","","","","","","","","","","","","",""
"","","plant-game","0","162","1029151","0-0","","200","190","2","WHEAT CROP","Right","200","190","4","NETTLE WEED","experimental","68","1,2,3,4","190,210.49066373632266,233.15178412400508,249.35978805268357","4,3,2,1","NETTLE WEED,NETTLE WEED,NETTLE WEED,NETTLE WEED","190,200.94875131335664,180,181.23861482420745","2,1,2,1","WHEAT CROP,WHEAT CROP,CORN CROP,CORN CROP","0,0,0,0","20,20,20,20","10,10,10,10","20,20,20,20","20,20,20,20","20,20,20,20","0,0,0,0","20,20,20,20","10,10,10,10","20,20,20,20","20,20,20,20","20,20,20,20","1,1,1,1","717,479,1018,366","20.490663736322666,22.66112038768242,16.208003928678504,8.109930775665193","10.948751313356642,25.276690088354442,1.2386148242074526,18.472849413439803","0","0"
"83","86","text","0","163","1029334","0-0","","","","","","","","","","","","","","","","","","","","","","","","","","","","","","","","","","","","",""
"","","plant-game","0","164","1037524","0-0","","200","160","4","WHEAT CROP","Right","200","160","8","NETTLE WEED","experimental","69","1,2,3,4,5,6,7,8","160,155.97460546715817,143.29401879633033,129.29365048873592,175.6142346717527,164.36674043012002,148.1392108243568,168.91653263298912","8,7,6,5,4,3,2,1","NETTLE WEED,NETTLE WEED,NETTLE WEED,NETTLE WEED,NETTLE WEED,NETTLE WEED,NETTLE WEED,NETTLE WEED","160,156.3437506002157,207.58119367882733,210.95372473102566,160,196.42122493289114,229.35917024415951,221.2042484961435","4,3,2,1,4,3,2,1","WHEAT CROP,WHEAT CROP,WHEAT CROP,WHEAT CROP,CORN CROP,CORN CROP,CORN CROP,CORN CROP","0,0,0,0,0,0,0,0","20,20,20,20,20,20,20,20","10,10,10,10,10,10,10,10","20,20,20,20,20,20,20,20","20,20,20,20,20,20,20,20","20,20,20,20,20,20,20,20","0,0,0,0,0,0,0,0","20,20,20,20,20,20,20,20","10,10,10,10,10,10,10,10","20,20,20,20,20,20,20,20","20,20,20,20,20,20,20,20","20,20,20,20,20,20,20,20","1,1,1,1,1,1,1,0","549,234,142,373,702,295,624,715","-4.025394532841823,-12.680586670827843,-14.000368307594428,46.32058418301679,-11.247494241632698,-16.227529605763202,20.777321808632323,6.425889204425329","-3.6562493997842758,51.23744307861163,3.3725310521983296,-6.150879001665,36.421224932891135,32.93794531126838,-8.154921748016019,25.417403360086716","0","0"
"127","86","text","0","165","1037724","0-0","","","","","","","","","","","","","","","","","","","","","","","","","","","","","","","","","","","","",""
"","","plant-game","0","166","1044348","0-0","","200","160","8","WHEAT CROP","Left","200","190","8","THISTLE WEED","experimental","70","1,2,3,4,5,6,7,8","160,175.84656799732107,206.92043734193703,226.04615607927445,185.60806882338235,183.04707878964197,140.6035875347568,137.31465623744774","8,7,6,5,4,3,2,1","WHEAT CROP,WHEAT CROP,WHEAT CROP,WHEAT CROP,WHEAT CROP,WHEAT CROP,WHEAT CROP,WHEAT CROP","190,182.81859115261605,174.59978823466955,212.48364656742655,190.25608363637943,198.70182405324996,211.57534925932134,185.38292240106935","8,7,6,5,4,3,2,1","THISTLE WEED,THISTLE WEED,THISTLE WEED,THISTLE WEED,THISTLE WEED,THISTLE WEED,THISTLE WEED,THISTLE WEED","20,20,20,20,20,20,20,20","20,20,20,20,20,20,20,20","10,10,10,10,10,10,10,10","20,20,20,20,20,20,20,20","0,0,0,0,0,0,0,0","20,20,20,20,20,20,20,20","20,20,20,20,20,20,20,20","20,20,20,20,20,20,20,20","10,10,10,10,10,10,10,10","20,20,20,20,20,20,20,20","0,0,0,0,0,0,0,0","20,20,20,20,20,20,20,20","1,1,1,1,1,1,1,1","1402,159,188,1423,122,83,160,140","15.846567997321074,31.07386934461597,19.125718737337415,-40.43808725589209,-2.5609900337403833,-42.443491254885174,-3.288931297309052,-2.4871935199117914","-7.181408847383949,-8.218802917946496,37.883858332756986,-22.227562931047107,8.445740416870533,12.873525206071365,-26.192426858251988,-0.9602581244852728","0","0"
"80","86","text","0","167","1044525","0-0","","","","","","","","","","","","","","","","","","","","","","","","","","","","","","","","","","","","",""
"","","plant-game","0","168","1053862","0-0","","200","180","2","WHEAT CROP","Right","200","160","4","THISTLE WEED","experimental","71","1,2,3,4","160,192.4452579208088,228.4486761921195,264.47465917720405","4,3,2,1","THISTLE WEED,THISTLE WEED,THISTLE WEED,THISTLE WEED","180,208.62988256900775,180,192.81787902288355","2,1,2,1","WHEAT CROP,WHEAT CROP,CORN CROP,CORN CROP","0,0,0,0","20,20,20,20","10,10,10,10","20,20,20,20","20,20,20,20","20,20,20,20","0,0,0,0","20,20,20,20","10,10,10,10","20,20,20,20","20,20,20,20","20,20,20,20","1,1,1,1","727,2662,1158,459","32.44525792080881,36.00341827131069,36.02598298508454,18.857493668534282","28.629882569007762,35.645588403470384,12.817879022883547,8.656125815271412","0","0"
"94","86","text","0","169","1054056","0-0","","","","","","","","","","","","","","","","","","","","","","","","","","","","","","","","","","","","",""
"","","plant-game","0","170","1062838","0-0","","200","190","4","WHEAT CROP","Left","200","180","2","THISTLE WEED","experimental","72","1,2,3,4","190,197.75513183147524,212.9915098965505,210.2468191015983","4,3,2,1","WHEAT CROP,WHEAT CROP,WHEAT CROP,WHEAT CROP","180,194.93693250855708,180,187.12588065516255","2,1,2,1","THISTLE WEED,THISTLE WEED,NETTLE WEED,NETTLE WEED","20,20,20,20","20,20,20,20","10,10,10,10","20,20,20,20","0,0,0,0","20,20,20,20","20,20,20,20","20,20,20,20","10,10,10,10","20,20,20,20","0,0,0,0","20,20,20,20","1,1,1,1","1554,1321,967,930","7.755131831475225,15.236378065075256,-2.7446907949522,-14.930875891935187","14.936932508557083,53.05031440401693,7.125880655162554,-8.497902211592013","0","0"
"96","86","text","0","171","1063064","0-0","","","","","","","","","","","","","","","","","","","","","","","","","","","","","","","","","","","","",""
"","","plant-game","0","172","1071004","0-0","","200","160","2","CORN CROP","Left","200","180","4","THISTLE WEED","experimental","73","1,2,3,4","160,202.01152399253263,180,189.39907970323537","2,1,2,1","CORN CROP,CORN CROP,WHEAT CROP,WHEAT CROP","180,182.28245387949391,163.09023028979723,145.80571850517035","4,3,2,1","THISTLE WEED,THISTLE WEED,THISTLE WEED,THISTLE WEED","20,20,20,20","20,20,20,20","10,10,10,10","20,20,20,20","0,0,0,0","20,20,20,20","20,20,20,20","20,20,20,20","10,10,10,10","20,20,20,20","0,0,0,0","20,20,20,20","1,1,1,1","1207,1233,702,371","42.01152399253264,-20.263338588830557,9.399079703235376,-28.91822998766385","2.282453879493911,-19.19222358969668,-17.284511784626886,1.3684987159432511","0","0"
"87","86","text","0","173","1071191","0-0","","","","","","","","","","","","","","","","","","","","","","","","","","","","","","","","","","","","",""
"","","plant-game","0","174","1076475","0-0","","200","180","4","WHEAT CROP","Right","200","190","1","THISTLE WEED","experimental","74","1,2,3,4","190,170,198.1529011468426,220.32664474283877","1,3,2,1","THISTLE WEED,NETTLE WEED,NETTLE WEED,NETTLE WEED","180,214.62396194434726,219.0162533371318,247.5515779177162","4,3,2,1","WHEAT CROP,WHEAT CROP,WHEAT CROP,WHEAT CROP","0,0,0,0","20,20,20,20","10,10,10,10","20,20,20,20","20,20,20,20","20,20,20,20","0,0,0,0","20,20,20,20","10,10,10,10","20,20,20,20","20,20,20,20","20,20,20,20","1,1,1,1","470,645,248,269","63.35513420358454,28.152901146842588,22.173743595996182,11.614479953165697","34.62396194434726,4.392291392784525,28.53532458058441,33.89679396031316","0","0"
"60","86","text","0","175","1076652","0-0","","","","","","","","","","","","","","","","","","","","","","","","","","","","","","","","","","","","",""
"","","plant-game","0","176","1082438","0-0","","200","190","1","WHEAT CROP","Left","200","160","2","THISTLE WEED","experimental","75","1,2","190,190","1,1","WHEAT CROP,CORN CROP","160,143.3653857428355","2,1","THISTLE WEED,THISTLE WEED","20,20","20,20","10,10","20,20","0,0","20,20","20,20","20,20","10,10","20,20","0,0","20,20","1,1","990,669","-8.978666245835127,8.823228750925164","-16.63461425716449,44.75787005634551","0","0"
"68","86","text","0","177","1082626","0-0","","","","","","","","","","","","","","","","","","","","","","","","","","","","","","","","","","","","",""
"","","plant-game","0","178","1089336","0-0","","200","160","4","CORN CROP","Right","200","120","2","NETTLE WEED","experimental","76","1,2,3,4","120,120.26449438655621,180,170.3410661952337","2,1,2,1","NETTLE WEED,NETTLE WEED,THISTLE WEED,THISTLE WEED","160,200.09779913491843,211.11203839760256,236.81553041292082","4,3,2,1","CORN CROP,CORN CROP,CORN CROP,CORN CROP","0,0,0,0","20,20,20,20","10,10,10,10","20,20,20,20","20,20,20,20","20,20,20,20","0,0,0,0","20,20,20,20","10,10,10,10","20,20,20,20","20,20,20,20","20,20,20,20","1,1,0,0","602,503,1441,245","0.26449438655621194,20.513811481497033,-9.658933804766294,4.825086092354571","40.097799134918446,11.01423926268413,25.70349201531826,-3.7986256264357388","0","0"
"61","86","text","0","179","1089507","0-0","","","","","","","","","","","","","","","","","","","","","","","","","","","","","","","","","","","","",""
"","","plant-game","0","180","1094107","0-0","","200","120","2","WHEAT CROP","Right","200","180","2","THISTLE WEED","experimental","77","1,2","180,198.260868188455","2,1","THISTLE WEED,THISTLE WEED","120,122.20281522774708","2,1","WHEAT CROP,WHEAT CROP","0,0","20,20","10,10","20,20","20,20","20,20","0,0","20,20","10,10","20,20","20,20","20,20","1,0","922,595","18.26086818845499,-1.6671376296178984","2.2028152277470845,0.11359113142556547","0","0"
"532","86","text","0","181","1094749","0-0","","","","","","","","","","","","","","","","","","","","","","","","","","","","","","","","","","","","",""
"","","plant-game","0","182","1102538","0-0","","200","120","1","WHEAT CROP","Left","200","180","8","THISTLE WEED","experimental","78","1,2,3,4,5,6,7,8","120,130,117.2173359895132,173.73039921145417,201.13747043063964,183.238746693429,190.7575846009463,206.43400616308404","1,7,6,5,4,3,2,1","WHEAT CROP,CORN CROP,CORN CROP,CORN CROP,CORN CROP,CORN CROP,CORN CROP,CORN CROP","180,172.64918627994618,199.20220203031562,217.56846793751356,251.82214815169212,305.0091061980303,314.054732006522,333.594627829138","8,7,6,5,4,3,2,1","THISTLE WEED,THISTLE WEED,THISTLE WEED,THISTLE WEED,THISTLE WEED,THISTLE WEED,THISTLE WEED,THISTLE WEED","20,20,20,20,20,20,20,20","20,20,20,20,20,20,20,20","10,10,10,10,10,10,10,10","20,20,20,20,20,20,20,20","0,0,0,0,0,0,0,0","20,20,20,20,20,20,20,20","20,20,20,20,20,20,20,20","20,20,20,20,20,20,20,20","10,10,10,10,10,10,10,10","20,20,20,20,20,20,20,20","0,0,0,0,0,0,0,0","20,20,20,20,20,20,20,20","1,1,0,0,0,0,0,0","1003,928,577,111,204,142,521,114","-26.08136118900035,-12.7826640104868,56.513063221940975,27.40707121918546,-17.89872373721066,7.518837907517316,15.676421562137726,99.63332584348754","-7.3508137200538135,26.553015750369433,18.36626590719795,34.25368021417855,53.18695804633815,9.04562580849168,19.53989582261602,39.52499673285032","0","0"
"93","86","text","0","183","1102771","0-0","","","","","","","","","","","","","","","","","","","","","","","","","","","","","","","","","","","","",""
"","","plant-game","0","184","1111105","0-0","","200","160","1","CORN CROP","Right","200","160","8","THISTLE WEED","experimental","79","1,2,3,4,5,6,7,8","160,183.20641085125231,224.13833462695607,236.94955673092605,252.235209621138,269.7928655330074,258.09427719952083,273.4784047436892","8,7,6,5,4,3,2,1","THISTLE WEED,THISTLE WEED,THISTLE WEED,THISTLE WEED,THISTLE WEED,THISTLE WEED,THISTLE WEED,THISTLE WEED","160,130,148.26273373192515,170.37954349313614,203.8179985988695,207.82732613316858,213.3246675228738,201.78013986456824","1,7,6,5,4,3,2,1","CORN CROP,WHEAT CROP,WHEAT CROP,WHEAT CROP,WHEAT CROP,WHEAT CROP,WHEAT CROP,WHEAT CROP","0,0,0,0,0,0,0,0","20,20,20,20,20,20,20,20","10,10,10,10,10,10,10,10","20,20,20,20,20,20,20,20","20,20,20,20,20,20,20,20","20,20,20,20,20,20,20,20","0,0,0,0,0,0,0,0","20,20,20,20,20,20,20,20","10,10,10,10,10,10,10,10","20,20,20,20,20,20,20,20","20,20,20,20,20,20,20,20","20,20,20,20,20,20,20,20","1,1,1,1,1,0,0,0","880,568,388,145,92,341,80,104","23.206410851252308,40.93192377570375,12.811222103969977,15.285652890211967,17.557655911869375,-11.698588333486562,15.384127544168413,1.7828143040823683","8.81338365705011,18.262733731925152,22.116809761210977,33.43845510573338,4.00932753429908,5.497341389705213,-11.544527658305558,5.2521667872981395","0","0"
"102","86","text","0","185","1111347","0-0","","","","","","","","","","","","","","","","","","","","","","","","","","","","","","","","","","","","",""
"","","plant-game","0","186","1115402","0-0","","200","120","4","WHEAT CROP","Left","200","120","4","NETTLE WEED","experimental","80","1,2,3,4","120,141.9913172985987,150.23637190341253,115.30318778598344","4,3,2,1","WHEAT CROP,WHEAT CROP,WHEAT CROP,WHEAT CROP","120,112.52725526893745,122.50431620139565,141.3434669484765","4,3,2,1","NETTLE WEED,NETTLE WEED,NETTLE WEED,NETTLE WEED","20,20,20,20","20,20,20,20","10,10,10,10","20,20,20,20","0,0,0,0","20,20,20,20","20,20,20,20","20,20,20,20","10,10,10,10","20,20,20,20","0,0,0,0","20,20,20,20","1,1,1,1","688,318,252,267","21.9913172985987,8.24505460481383,-34.93318411742909,-14.507412586432205","-7.472744731062551,9.977060932458194,18.83915074708085,-29.231651065208606","0","0"
"9483","86","text","0","187","1125015","0-0","","","","","","","","","","","","","","","","","","","","","","","","","","","","","","","","","","","","",""
