"rt","key_press","trial_type","trial_index","trial_index_global","time_elapsed","internal_chunk_id","responses","experimental_goal_height","experimental_start_height","experimental_weeks_total","experimental_crop_type","experimental_crop_side","fixed_goal_height","fixed_start_height","fixed_weeks_total","fixed_crop_type","trial_kind","trial_number","stage","left_current_height","left_weeks_remaining","left_crop_type","right_current_height","right_weeks_remaining","right_crop_type","mean_left_growth_given_left","sd_left_growth_given_left","mean_left_growth_given_middle","sd_left_growth_given_middle","mean_left_growth_given_right","sd_left_growth_given_right","mean_right_growth_given_left","sd_right_growth_given_left","mean_right_growth_given_middle","sd_right_growth_given_middle","mean_right_growth_given_right","sd_right_growth_given_right","response","response_time","left_growth","right_growth","other_key_pressed","mouse_clicked"
"4510576","87","text","0","0","4510655","0-0","","","","","","","","","","","","","","","","","","","","","","","","","","","","","","","","","","","","",""
"4463","","survey-text","0","1","4516127","0-0","{""Q0"":""22""}","","","","","","","","","","","","","","","","","","","","","","","","","","","","","","","","","","","",""
"4781","86","text","0","2","4875","0-0","","","","","","","","","","","","","","","","","","","","","","","","","","","","","","","","","","","","",""
"","","plant-game","0","3","72591","0-0","","200","120","8","CORN CROP","Right","200","120","8","THISTLE WEED","practice","1","1,2,3,4,5,6,7,8","120,172.14574506062542,159.42736056230788,149.5050934069589,129.36941213943985,147.39049095065184,187.4417837494379,173.817496864957","8,7,6,5,4,3,2,1","THISTLE WEED,THISTLE WEED,THISTLE WEED,THISTLE WEED,THISTLE WEED,THISTLE WEED,THISTLE WEED,THISTLE WEED","120,116.62024441023873,100.09281485836482,123.34730450215855,124.56251437580153,135.63976578685742,127.7298776773669,139.9506350746717","8,7,6,5,4,3,2,1","CORN CROP,CORN CROP,CORN CROP,CORN CROP,CORN CROP,CORN CROP,CORN CROP,CORN CROP","0,0,0,0,0,0,0,0","20,20,20,20,20,20,20,20","10,10,10,10,10,10,10,10","20,20,20,20,20,20,20,20","20,20,20,20,20,20,20,20","20,20,20,20,20,20,20,20","0,0,0,0,0,0,0,0","20,20,20,20,20,20,20,20","10,10,10,10,10,10,10,10","20,20,20,20,20,20,20,20","20,20,20,20,20,20,20,20","20,20,20,20,20,20,20,20","0,0,0,0,1,1,0,0","12075,3827,2720,4321,2290,1422,2092,2663","52.14574506062543,-12.718384498317521,-9.922267155348983,-20.135681267519068,18.021078811211982,40.05129279878605,-13.624286884480885,20.32702286186112","-3.3797555897612783,-16.527429551873908,23.25448964379374,1.2152098736429815,11.077251411055899,-7.909888109490527,12.220757397304798,21.33079464077236","0","0"
"2053","86","text","0","4","74769","0-0","","","","","","","","","","","","","","","","","","","","","","","","","","","","","","","","","","","","",""
"","","plant-game","0","5","108736","0-0","","200","160","4","WHEAT CROP","Right","200","160","4","NETTLE WEED","practice","2","1,2,3,4","160,179.90125817790323,191.71021529113364,180.88587861851622","4,3,2,1","NETTLE WEED,NETTLE WEED,NETTLE WEED,NETTLE WEED","160,128.14328363833192,149.65742867065413,156.2895448999038","4,3,2,1","WHEAT CROP,WHEAT CROP,WHEAT CROP,WHEAT CROP","0,0,0,0","20,20,20,20","10,10,10,10","20,20,20,20","20,20,20,20","20,20,20,20","0,0,0,0","20,20,20,20","10,10,10,10","20,20,20,20","20,20,20,20","20,20,20,20","1,1,0,0","8617,4132,926,1245","19.901258177903216,11.808957113230406,-10.824336672617427,-16.425721994497135","-31.856716361668084,21.514145032322194,6.632116229249663,1.279279091647985","0","0"
"786","86","text","0","6","109631","0-0","","","","","","","","","","","","","","","","","","","","","","","","","","","","","","","","","","","","",""
"","","plant-game","0","7","138382","0-0","","200","180","2","CORN CROP","Left","200","180","2","THISTLE WEED","practice","3","1,2","180,218.09715160649205","2,1","CORN CROP,CORN CROP","180,245.16796179084633","2,1","THISTLE WEED,THISTLE WEED","20,20","20,20","10,10","20,20","0,0","20,20","20,20","20,20","10,10","20,20","0,0","20,20","0,1","2078,7487","38.09715160649205,32.24631503983363","65.16796179084633,-14.880053195108706","0","0"
"833","86","text","0","8","139295","0-0","","","","","","","","","","","","","","","","","","","","","","","","","","","","","","","","","","","","",""
"","","plant-game","0","9","158408","0-0","","200","190","1","WHEAT CROP","Right","200","190","1","THISTLE WEED","practice","4","1","190","1","THISTLE WEED","190","1","WHEAT CROP","0","20","10","20","20","20","0","20","10","20","20","20","0","1158","-33.95850514722272","-12.990938963244634","0","0"
"725","86","text","0","10","159226","0-0","","","","","","","","","","","","","","","","","","","","","","","","","","","","","","","","","","","","",""
"","","plant-game","0","11","197537","0-0","","200","120","8","WHEAT CROP","Right","200","160","8","THISTLE WEED","practice","5","1,2,3,4,5,6,7,8","160,181.97838309657507,183.67114714198715,183.74505417683412,194.5983106126583,207.28253775424182,206.7453427470847,214.8848791566805","8,7,6,5,4,3,2,1","THISTLE WEED,THISTLE WEED,THISTLE WEED,THISTLE WEED,THISTLE WEED,THISTLE WEED,THISTLE WEED,THISTLE WEED","120,135.43950093305128,121.09935142605556,138.75637249850348,155.3257572704178,215.23530117455618,211.0771519706738,222.17348798760196","8,7,6,5,4,3,2,1","WHEAT CROP,WHEAT CROP,WHEAT CROP,WHEAT CROP,WHEAT CROP,WHEAT CROP,WHEAT CROP,WHEAT CROP","0,0,0,0,0,0,0,0","20,20,20,20,20,20,20,20","10,10,10,10,10,10,10,10","20,20,20,20,20,20,20,20","20,20,20,20,20,20,20,20","20,20,20,20,20,20,20,20","0,0,0,0,0,0,0,0","20,20,20,20,20,20,20,20","10,10,10,10,10,10,10,10","20,20,20,20,20,20,20,20","20,20,20,20,20,20,20,20","20,20,20,20,20,20,20,20","1,0,0,0,1,0,0,0","1642,2215,1154,1253,1551,1908,683,1760","21.97838309657508,1.6927640454120758,0.07390703484697317,10.853256435824195,12.684227141583493,-0.5371950071571133,8.139536409595808,7.193765113705148","15.439500933051278,-14.34014950699572,17.657021072447932,16.56938477191431,59.90954390413839,-4.158149203882385,11.096336016928134,24.659191875508878","0","0"
"761","86","text","0","12","198378","0-0","","","","","","","","","","","","","","","","","","","","","","","","","","","","","","","","","","","","",""
"","","plant-game","0","13","229883","0-0","","200","180","4","WHEAT CROP","Right","200","160","4","NETTLE WEED","practice","6","1,2,3,4","160,176.6491490639009,168.37232526155248,209.07045614793853","4,3,2,1","NETTLE WEED,NETTLE WEED,NETTLE WEED,NETTLE WEED","180,176.73801383706694,174.5268894962785,225.2169291941309","4,3,2,1","WHEAT CROP,WHEAT CROP,WHEAT CROP,WHEAT CROP","0,0,0,0","20,20,20,20","10,10,10,10","20,20,20,20","20,20,20,20","20,20,20,20","0,0,0,0","20,20,20,20","10,10,10,10","20,20,20,20","20,20,20,20","20,20,20,20","1,1,1,0","5428,1085,1288,2577","16.649149063900897,-8.276823802348424,40.69813088638605,-7.1176802439941955","-3.26198616293307,-2.2111243407884515,50.6900396978524,-11.94804628537038","0","0"
"700","86","text","0","14","230693","0-0","","","","","","","","","","","","","","","","","","","","","","","","","","","","","","","","","","","","",""
"","","plant-game","0","15","256952","0-0","","200","180","2","WHEAT CROP","Left","200","190","2","NETTLE WEED","practice","7","1,2","180,199.64355206890937","2,1","WHEAT CROP,WHEAT CROP","190,186.89022852718585","2,1","NETTLE WEED,NETTLE WEED","20,20","20,20","10,10","20,20","0,0","20,20","20,20","20,20","10,10","20,20","0,0","20,20","1,1","1495,2363","19.64355206890936,-9.626691850751465","-3.1097714728141597,3.7634810759804265","0","0"
"586","86","text","0","16","257662","0-0","","","","","","","","","","","","","","","","","","","","","","","","","","","","","","","","","","","","",""
"","","plant-game","0","17","315978","0-0","","200","120","4","CORN CROP","Left","200","120","8","NETTLE WEED","practice","8","1,2,3,4,5,6,7,8","120,116.71791179453339,143.9339288488448,169.41360442038317,160,167.79199957452877,136.42056707533482,130.6214382921837","4,3,2,1,4,3,2,1","CORN CROP,CORN CROP,CORN CROP,CORN CROP,WHEAT CROP,WHEAT CROP,WHEAT CROP,WHEAT CROP","120,171.09784246482766,179.99387855001436,221.62437516770385,261.1061554342946,256.9546130425712,246.17066933927632,242.51365683665443","8,7,6,5,4,3,2,1","NETTLE WEED,NETTLE WEED,NETTLE WEED,NETTLE WEED,NETTLE WEED,NETTLE WEED,NETTLE WEED,NETTLE WEED","20,20,20,20,20,20,20,20","20,20,20,20,20,20,20,20","10,10,10,10,10,10,10,10","20,20,20,20,20,20,20,20","0,0,0,0,0,0,0,0","20,20,20,20,20,20,20,20","20,20,20,20,20,20,20,20","20,20,20,20,20,20,20,20","10,10,10,10,10,10,10,10","20,20,20,20,20,20,20,20","0,0,0,0,0,0,0,0","20,20,20,20,20,20,20,20","0,0,0,0,1,1,1,1","4375,637,894,2051,3528,628,618,529","-3.2820882054666,27.216017054311394,25.47967557153837,-21.887213123841846,7.791999574528765,-31.37143249919395,-5.799128783151103,-15.722047112989294","51.09784246482767,8.89603608518669,41.63049661768949,39.48178026659074,-4.151542391723328,-10.783943703294911,-3.6570125026218787,-23.545265289735397","0","0"
"739","86","text","0","18","316842","0-0","","","","","","","","","","","","","","","","","","","","","","","","","","","","","","","","","","","","",""
"","","plant-game","0","19","357053","0-0","","200","160","4","CORN CROP","Left","200","160","2","NETTLE WEED","practice","9","1,2,3,4","160,192.5803646208497,223.83539528135162,202.19445985894663","4,3,2,1","CORN CROP,CORN CROP,CORN CROP,CORN CROP","160,161.03314142038425,180,179.41694494642107","2,1,2,1","NETTLE WEED,NETTLE WEED,THISTLE WEED,THISTLE WEED","20,20,20,20","20,20,20,20","10,10,10,10","20,20,20,20","0,0,0,0","20,20,20,20","20,20,20,20","20,20,20,20","10,10,10,10","20,20,20,20","0,0,0,0","20,20,20,20","0,0,1,1","1937,2051,4406,1309","32.58036462084969,31.255030660501916,-21.64093542240499,-23.082142302821506","1.0331414203842648,-15.473473772360144,-0.5830550535789424,17.566740876784554","0","0"
"596","86","text","0","20","357758","0-0","","","","","","","","","","","","","","","","","","","","","","","","","","","","","","","","","","","","",""
"","","plant-game","0","21","401990","0-0","","200","180","2","WHEAT CROP","Left","200","180","1","THISTLE WEED","practice","10","1,2","180,229.68287340326737","2,1","WHEAT CROP,WHEAT CROP","180,190","1,1","THISTLE WEED,NETTLE WEED","20,20","20,20","10,10","20,20","0,0","20,20","20,20","20,20","10,10","20,20","0,0","20,20","0,1","1999,9028","49.68287340326738,-32.34942556549317","42.49923387575325,2.960586152306629","0","0"
"699","86","text","0","22","402814","0-0","","","","","","","","","","","","","","","","","","","","","","","","","","","","","","","","","","","","",""
"","","plant-game","0","23","474860","0-0","","200","120","8","CORN CROP","Left","200","160","4","NETTLE WEED","practice","11","1,2,3,4,5,6,7,8","120,111.342182461654,102.03368320730726,122.29337245695802,110.28196034537565,136.95655445166557,156.2635743415134,160.07604836649742","8,7,6,5,4,3,2,1","CORN CROP,CORN CROP,CORN CROP,CORN CROP,CORN CROP,CORN CROP,CORN CROP,CORN CROP","160,151.24642597148267,167.60094937974083,204.7943264167548,160,192.47383505524607,183.08963274814795,177.4855799413394","4,3,2,1,4,3,2,1","NETTLE WEED,NETTLE WEED,NETTLE WEED,NETTLE WEED,THISTLE WEED,THISTLE WEED,THISTLE WEED,THISTLE WEED","20,20,20,20,20,20,20,20","20,20,20,20,20,20,20,20","10,10,10,10,10,10,10,10","20,20,20,20,20,20,20,20","0,0,0,0,0,0,0,0","20,20,20,20,20,20,20,20","20,20,20,20,20,20,20,20","20,20,20,20,20,20,20,20","10,10,10,10,10,10,10,10","20,20,20,20,20,20,20,20","0,0,0,0,0,0,0,0","20,20,20,20,20,20,20,20","1,1,1,1,0,1,1,0","17815,1353,2842,3056,7980,3726,2794,7739","-8.657817538346,-9.308499254346735,20.25968924965076,-12.011412111582374,26.67459410628991,19.307019889847826,3.8124740249840254,54.00288733100694","-8.753574028517336,16.354523408258164,37.193377037013974,-6.125970892906926,32.47383505524607,-9.384202307098127,-5.604052806808536,1.8446126421284212","0","0"
"642","86","text","0","24","475632","0-0","","","","","","","","","","","","","","","","","","","","","","","","","","","","","","","","","","","","",""
"","","plant-game","0","25","523407","0-0","","200","180","2","CORN CROP","Left","200","160","4","THISTLE WEED","practice","12","1,2,3,4","180,192.4783669479479,180,214.7020918246085","2,1,2,1","CORN CROP,CORN CROP,WHEAT CROP,WHEAT CROP","160,182.77152291963546,237.91106924803432,208.55151798267445","4,3,2,1","THISTLE WEED,THISTLE WEED,THISTLE WEED,THISTLE WEED","20,20,20,20","20,20,20,20","10,10,10,10","20,20,20,20","0,0,0,0","20,20,20,20","20,20,20,20","20,20,20,20","10,10,10,10","20,20,20,20","0,0,0,0","20,20,20,20","0,0,1,1","4598,1363,3663,2076","12.478366947947894,7.411820829266684,34.70209182460847,9.852702176305616","22.77152291963545,55.13954632839885,-29.359551265359876,2.2296114306114423","0","0"
"4722","86","text","0","26","528259","0-0","","","","","","","","","","","","","","","","","","","","","","","","","","","","","","","","","","","","",""
"10072","86","text","0","27","539513","0-0","","","","","","","","","","","","","","","","","","","","","","","","","","","","","","","","","","","","",""
"","","plant-game","0","28","577664","0-0","","200","190","8","CORN CROP","Right","200","190","2","THISTLE WEED","experimental","1","1,2,3,4,5,6,7,8","190,172.66595819109762,140,194.2479766312266,175.20840725876133,159.86912748486276,154.82653776470437,176.93127743853987","2,1,6,5,4,3,2,1","THISTLE WEED,THISTLE WEED,NETTLE WEED,NETTLE WEED,NETTLE WEED,NETTLE WEED,NETTLE WEED,NETTLE WEED","190,158.29898510232476,143.92683555717383,158.87076167738903,131.2605881812056,150.64708296141407,189.89455420681264,206.89309638585667","8,7,6,5,4,3,2,1","CORN CROP,CORN CROP,CORN CROP,CORN CROP,CORN CROP,CORN CROP,CORN CROP,CORN CROP","0,0,0,0,0,0,0,0","20,20,20,20,20,20,20,20","10,10,10,10,10,10,10,10","20,20,20,20,20,20,20,20","20,20,20,20,20,20,20,20","20,20,20,20,20,20,20,20","0,0,0,0,0,0,0,0","20,20,20,20,20,20,20,20","10,10,10,10,10,10,10,10","20,20,20,20,20,20,20,20","20,20,20,20,20,20,20,20","20,20,20,20,20,20,20,20","0,0,1,0,0,0,1,1","6738,1751,5095,3991,2070,3841,2445,2101","-17.334041808902377,-13.597793546624438,54.24797663122662,-19.039569372465294,-15.339279773898578,-5.042589720158384,22.104739673835493,8.115100914763122","-31.701014897675243,-14.372149545150934,14.943926120215203,-27.610173496183414,19.386494780208473,39.24747124539856,16.998542179044026,0.8225399403424589","0","0"
"592","86","text","0","29","578336","0-0","","","","","","","","","","","","","","","","","","","","","","","","","","","","","","","","","","","","",""
"","","plant-game","0","30","615537","0-0","","200","180","2","CORN CROP","Right","200","120","1","NETTLE WEED","experimental","2","1,2","120,190","1,1","NETTLE WEED,THISTLE WEED","180,183.27459920395043","2,1","CORN CROP,CORN CROP","0,0","20,20","10,10","20,20","20,20","20,20","0,0","20,20","10,10","20,20","20,20","20,20","0,0","11169,13173","-11.007482773953631,10.540701957127748","3.2745992039504266,4.45971643363727","0","0"
"1180","86","text","0","31","616807","0-0","","","","","","","","","","","","","","","","","","","","","","","","","","","","","","","","","","","","",""
"","","plant-game","0","32","669201","0-0","","200","160","1","WHEAT CROP","Left","200","180","4","NETTLE WEED","experimental","3","1,2,3,4","160,170,177.2894501807854,162.5146424900318","1,3,2,1","WHEAT CROP,CORN CROP,CORN CROP,CORN CROP","180,181.9029429426487,214.01416368090506,225.09604598827377","4,3,2,1","NETTLE WEED,NETTLE WEED,NETTLE WEED,NETTLE WEED","20,20,20,20","20,20,20,20","10,10,10,10","20,20,20,20","0,0,0,0","20,20,20,20","20,20,20,20","20,20,20,20","10,10,10,10","20,20,20,20","0,0,0,0","20,20,20,20","1,1,1,1","17127,16281,4231,2233","7.817034469089359,7.289450180785404,-14.774807690753576,11.27959131491113","1.9029429426487061,32.11122073825636,11.081882307368716,1.6626349759947954","0","0"
"715","86","text","0","33","670036","0-0","","","","","","","","","","","","","","","","","","","","","","","","","","","","","","","","","","","","",""
"","","plant-game","0","34","682707","0-0","","200","190","2","WHEAT CROP","Right","200","120","2","THISTLE WEED","experimental","4","1,2","120,133.70922007639803","2,1","THISTLE WEED,THISTLE WEED","190,194.60483297722823","2,1","WHEAT CROP,WHEAT CROP","0,0","20,20","10,10","20,20","20,20","20,20","0,0","20,20","10,10","20,20","20,20","20,20","1,1","5781,1130","13.70922007639802,33.85981932935914","4.6048329772282415,40.41128285629449","0","0"
"937","86","text","0","35","683754","0-0","","","","","","","","","","","","","","","","","","","","","","","","","","","","","","","","","","","","",""
"","","plant-game","0","36","723838","0-0","","200","160","4","WHEAT CROP","Left","200","120","8","THISTLE WEED","experimental","5","1,2,3,4,5,6,7,8","160,157.41977238777397,170.89591417007333,200.21055784011676,160,184.77016579833708,202.79316454023459,198.80111420154742","4,3,2,1,4,3,2,1","WHEAT CROP,WHEAT CROP,WHEAT CROP,WHEAT CROP,CORN CROP,CORN CROP,CORN CROP,CORN CROP","120,147.23373322880116,148.68032684476165,185.58060401557887,215.43307939562337,231.81633104509365,247.09701503309728,238.0499975124507","8,7,6,5,4,3,2,1","THISTLE WEED,THISTLE WEED,THISTLE WEED,THISTLE WEED,THISTLE WEED,THISTLE WEED,THISTLE WEED,THISTLE WEED","20,20,20,20,20,20,20,20","20,20,20,20,20,20,20,20","10,10,10,10,10,10,10,10","20,20,20,20,20,20,20,20","0,0,0,0,0,0,0,0","20,20,20,20,20,20,20,20","20,20,20,20,20,20,20,20","20,20,20,20,20,20,20,20","10,10,10,10,10,10,10,10","20,20,20,20,20,20,20,20","0,0,0,0,0,0,0,0","20,20,20,20,20,20,20,20","0,0,0,0,1,1,1,1","10641,1427,1751,5960,5157,769,1173,1990","-2.5802276122260324,13.476141782299347,29.314643670043438,10.836307199831621,24.770165798337068,18.022998741897517,-3.992050338687163,-14.887207266972561","27.233733228801164,1.4465936159604986,36.90027717081722,29.852475380044496,16.383251649470285,15.280683988003625,-9.047017520646602,-14.47919236640195","1","0"
"1079","86","text","0","37","725007","0-0","","","","","","","","","","","","","","","","","","","","","","","","","","","","","","","","","","","","",""
"","","plant-game","0","38","787560","0-0","","200","190","1","CORN CROP","Left","200","190","4","THISTLE WEED","experimental","6","1,2,3,4","190,170,168.5902118117635,137.68984366037708","1,3,2,1","CORN CROP,WHEAT CROP,WHEAT CROP,WHEAT CROP","190,194.7295222273801,193.02558257563794,220.16483131723493","4,3,2,1","THISTLE WEED,THISTLE WEED,THISTLE WEED,THISTLE WEED","20,20,20,20","20,20,20,20","10,10,10,10","20,20,20,20","0,0,0,0","20,20,20,20","20,20,20,20","20,20,20,20","10,10,10,10","20,20,20,20","0,0,0,0","20,20,20,20","1,1,1,1","44738,4009,1015,1425","1.6175965001881258,-1.4097881882365035,-30.900368151386424,13.825250540142985","4.729522227380115,-1.7039396517421712,27.139248741597,-28.2610006728585","0","0"
"698","86","text","0","39","788378","0-0","","","","","","","","","","","","","","","","","","","","","","","","","","","","","","","","","","","","",""
"","","plant-game","0","40","833684","0-0","","200","120","2","CORN CROP","Left","200","160","8","THISTLE WEED","experimental","7","1,2,3,4,5,6,7,8","120,125.74192668650952,140,183.7489211703867,172.42948256230764,173.98037896792079,173.40774295854175,209.20284082791483","2,1,6,5,4,3,2,1","CORN CROP,CORN CROP,WHEAT CROP,WHEAT CROP,WHEAT CROP,WHEAT CROP,WHEAT CROP,WHEAT CROP","160,149.08549453832327,114.11088621743815,168.45140824671347,221.0149523821069,242.12120859182,285.8993609802689,290.9498653256135","8,7,6,5,4,3,2,1","THISTLE WEED,THISTLE WEED,THISTLE WEED,THISTLE WEED,THISTLE WEED,THISTLE WEED,THISTLE WEED,THISTLE WEED","20,20,20,20,20,20,20,20","20,20,20,20,20,20,20,20","10,10,10,10,10,10,10,10","20,20,20,20,20,20,20,20","0,0,0,0,0,0,0,0","20,20,20,20,20,20,20,20","20,20,20,20,20,20,20,20","20,20,20,20,20,20,20,20","10,10,10,10,10,10,10,10","20,20,20,20,20,20,20,20","0,0,0,0,0,0,0,0","20,20,20,20,20,20,20,20","1,1,0,0,0,0,0,1","10648,2893,12690,537,1065,1066,719,4952","5.741926686509512,-4.904127414637913,43.748921170386694,-11.319438608079054,1.5508964056131411,-0.5726360093790497,35.795097869373095,-18.400467041994336","-10.914505461676718,-34.97460832088513,54.340522029275306,52.563544135393435,21.106256209713067,43.7781523884489,5.050504345344578,27.937468139079566","0","0"
"1019","86","text","0","41","834833","0-0","","","","","","","","","","","","","","","","","","","","","","","","","","","","","","","","","","","","",""
"","","plant-game","0","42","857228","0-0","","200","180","2","CORN CROP","Left","200","120","4","THISTLE WEED","experimental","8","1,2,3,4","180,190.19692407242118,180,198.48373650380947","2,1,2,1","CORN CROP,CORN CROP,WHEAT CROP,WHEAT CROP","120,126.57569094993642,148.4058752646963,162.02180369102234","4,3,2,1","THISTLE WEED,THISTLE WEED,THISTLE WEED,THISTLE WEED","20,20,20,20","20,20,20,20","10,10,10,10","20,20,20,20","0,0,0,0","20,20,20,20","20,20,20,20","20,20,20,20","10,10,10,10","20,20,20,20","0,0,0,0","20,20,20,20","0,0,0,0","7547,490,5232,507","10.196924072421176,29.133842951505898,18.483736503809464,4.190898867433008","6.5756909499364085,21.8301843147599,13.615928426326047,13.250090084229612","0","0"
"700","86","text","0","43","858029","0-0","","","","","","","","","","","","","","","","","","","","","","","","","","","","","","","","","","","","",""
"","","plant-game","0","44","902806","0-0","","200","180","2","CORN CROP","Left","200","180","8","NETTLE WEED","experimental","9","1,2,3,4,5,6,7,8","180,182.3103232478473,140,128.1761033519637,154.79443393819332,144.08482103538947,154.2748145725126,152.65166834668182","2,1,6,5,4,3,2,1","CORN CROP,CORN CROP,WHEAT CROP,WHEAT CROP,WHEAT CROP,WHEAT CROP,WHEAT CROP,WHEAT CROP","180,167.49778110428304,202.54065641068385,206.33500134677885,222.0420123704621,209.4668191510274,214.99739101661612,206.049012671464","8,7,6,5,4,3,2,1","NETTLE WEED,NETTLE WEED,NETTLE WEED,NETTLE WEED,NETTLE WEED,NETTLE WEED,NETTLE WEED,NETTLE WEED","20,20,20,20,20,20,20,20","20,20,20,20,20,20,20,20","10,10,10,10,10,10,10,10","20,20,20,20,20,20,20,20","0,0,0,0,0,0,0,0","20,20,20,20,20,20,20,20","20,20,20,20,20,20,20,20","20,20,20,20,20,20,20,20","10,10,10,10,10,10,10,10","20,20,20,20,20,20,20,20","0,0,0,0,0,0,0,0","20,20,20,20,20,20,20,20","0,0,1,1,1,1,1,1","8643,438,19036,1415,636,663,629,2279","2.3103232478472933,-1.3872406822815044,-11.823896648036312,26.61833058622962,-10.709612902803867,10.18999353712315,-1.6231462258308027,11.86435302895404","-12.50221889571695,35.04287530640081,3.7943449360949986,15.70701102368324,-12.575193219434688,5.530571865588701,-8.948378345152113,-0.8465369005194006","0","0"
"666","86","text","0","45","903565","0-0","","","","","","","","","","","","","","","","","","","","","","","","","","","","","","","","","","","","",""
"","","plant-game","0","46","948531","0-0","","200","190","4","CORN CROP","Right","200","160","1","NETTLE WEED","experimental","10","1,2,3,4","160,170,158.92518705647734,183.17519510901514","1,3,2,1","NETTLE WEED,THISTLE WEED,THISTLE WEED,THISTLE WEED","190,213.5743227915042,246.53375165423398,255.09573191798637","4,3,2,1","CORN CROP,CORN CROP,CORN CROP,CORN CROP","0,0,0,0","20,20,20,20","10,10,10,10","20,20,20,20","20,20,20,20","20,20,20,20","0,0,0,0","20,20,20,20","10,10,10,10","20,20,20,20","20,20,20,20","20,20,20,20","1,1,1,0","13163,16055,2151,3056","32.42873994792749,-11.074812943522645,24.250008052537797,21.50068329342314","23.574322791504194,32.95942886272979,8.56198026375238,27.105729007672043","0","0"
"692","86","text","0","47","949313","0-0","","","","","","","","","","","","","","","","","","","","","","","","","","","","","","","","","","","","",""
"","","plant-game","0","48","990182","0-0","","200","120","1","WHEAT CROP","Left","200","120","8","THISTLE WEED","experimental","11","1,2,3,4,5,6,7,8","120,130,142.82572346789564,148.35956604461967,146.23283708739172,124.06749733038578,141.6629137476154,127.36158156886523","1,7,6,5,4,3,2,1","WHEAT CROP,CORN CROP,CORN CROP,CORN CROP,CORN CROP,CORN CROP,CORN CROP,CORN CROP","120,171.53535404271855,184.28946693977804,170.3062583130263,198.50508623212045,193.353728285264,213.90284088994238,181.17448434030413","8,7,6,5,4,3,2,1","THISTLE WEED,THISTLE WEED,THISTLE WEED,THISTLE WEED,THISTLE WEED,THISTLE WEED,THISTLE WEED,THISTLE WEED","20,20,20,20,20,20,20,20","20,20,20,20,20,20,20,20","10,10,10,10,10,10,10,10","20,20,20,20,20,20,20,20","0,0,0,0,0,0,0,0","20,20,20,20,20,20,20,20","20,20,20,20,20,20,20,20","20,20,20,20,20,20,20,20","10,10,10,10,10,10,10,10","20,20,20,20,20,20,20,20","0,0,0,0,0,0,0,0","20,20,20,20,20,20,20,20","0,1,1,1,1,1,1,1","5285,14373,958,2844,3676,1306,1093,1283","5.093766551418533,12.825723467895644,5.533842576724014,-2.1267289572279413,-22.16533975700594,17.5954164172296,-14.301332178750156,-9.223386987284158","51.535354042718545,12.754112897059493,-13.983208626751738,28.198827919094164,-5.151357946856459,20.54911260467838,-32.72835654963825,0.8954667024573691","0","0"
"611","86","text","0","49","990913","0-0","","","","","","","","","","","","","","","","","","","","","","","","","","","","","","","","","","","","",""
"","","plant-game","0","50","1024878","0-0","","200","120","4","WHEAT CROP","Right","200","160","4","NETTLE WEED","experimental","12","1,2,3,4","160,159.50595550518346,195.05688720126324,163.24015135311546","4,3,2,1","NETTLE WEED,NETTLE WEED,NETTLE WEED,NETTLE WEED","120,162.9083204202675,194.4475506181643,200.21914869347353","4,3,2,1","WHEAT CROP,WHEAT CROP,WHEAT CROP,WHEAT CROP","0,0,0,0","20,20,20,20","10,10,10,10","20,20,20,20","20,20,20,20","20,20,20,20","0,0,0,0","20,20,20,20","10,10,10,10","20,20,20,20","20,20,20,20","20,20,20,20","1,1,1,1","25426,421,568,2498","-0.49404449481653145,35.550931696079786,-31.81673584814778,40.193567223572","42.908320420267515,31.539230197896824,5.771598075309223,46.12706257377745","0","0"
"656","86","text","0","51","1025671","0-0","","","","","","","","","","","","","","","","","","","","","","","","","","","","","","","","","","","","",""
"","","plant-game","0","52","1058869","0-0","","200","120","8","CORN CROP","Left","200","160","4","NETTLE WEED","experimental","13","1,2,3,4,5,6,7,8","120,157.3369508085061,178.21308776526047,195.97189070391738,224.3061438063181,209.75487397613597,212.86103367710695,196.09807706305602","8,7,6,5,4,3,2,1","CORN CROP,CORN CROP,CORN CROP,CORN CROP,CORN CROP,CORN CROP,CORN CROP,CORN CROP","160,184.8598321680876,221.23868647392993,252.92064052971153,160,136.7436158744799,166.4798926045192,173.68511040700898","4,3,2,1,4,3,2,1","NETTLE WEED,NETTLE WEED,NETTLE WEED,NETTLE WEED,THISTLE WEED,THISTLE WEED,THISTLE WEED,THISTLE WEED","20,20,20,20,20,20,20,20","20,20,20,20,20,20,20,20","10,10,10,10,10,10,10,10","20,20,20,20,20,20,20,20","0,0,0,0,0,0,0,0","20,20,20,20,20,20,20,20","20,20,20,20,20,20,20,20","20,20,20,20,20,20,20,20","10,10,10,10,10,10,10,10","20,20,20,20,20,20,20,20","0,0,0,0,0,0,0,0","20,20,20,20,20,20,20,20","0,0,0,0,1,1,1,1","7754,570,824,482,12087,1186,852,1287","37.33695080850609,20.876136956754376,17.758802938656906,28.334253102400698,-14.551269830182115,3.106159700970967,-16.762956614050914,15.222730390794608","24.859832168087596,36.37885430584235,31.681954055781592,3.6300484760451646,-23.256384125520096,29.73627673003929,7.205217802489789,-15.79104252870033","0","0"
"857","86","text","0","53","1059820","0-0","","","","","","","","","","","","","","","","","","","","","","","","","","","","","","","","","","","","",""
"","","plant-game","0","54","1082977","0-0","","200","180","8","WHEAT CROP","Left","200","180","8","THISTLE WEED","experimental","14","1,2,3,4,5,6,7,8","180,217.9920765197638,228.9013694638113,246.80203582475986,304.3060142826461,318.71141257370266,362.8265448886689,401.0201201078579","8,7,6,5,4,3,2,1","WHEAT CROP,WHEAT CROP,WHEAT CROP,WHEAT CROP,WHEAT CROP,WHEAT CROP,WHEAT CROP,WHEAT CROP","180,216.2795995339771,239.08853338826552,297.2273626949669,300.34157472709563,282.1049602762773,256.3279141108454,294.0694846654874","8,7,6,5,4,3,2,1","THISTLE WEED,THISTLE WEED,THISTLE WEED,THISTLE WEED,THISTLE WEED,THISTLE WEED,THISTLE WEED,THISTLE WEED","20,20,20,20,20,20,20,20","20,20,20,20,20,20,20,20","10,10,10,10,10,10,10,10","20,20,20,20,20,20,20,20","0,0,0,0,0,0,0,0","20,20,20,20,20,20,20,20","20,20,20,20,20,20,20,20","20,20,20,20,20,20,20,20","10,10,10,10,10,10,10,10","20,20,20,20,20,20,20,20","0,0,0,0,0,0,0,0","20,20,20,20,20,20,20,20","0,0,0,0,0,0,0,0","8807,1778,776,866,981,530,294,458","37.99207651976379,10.9092929440475,17.90066636094856,57.50397845788625,14.405398291056548,44.1151323149662,38.193575219189015,17.28217869943491","36.27959953397709,22.80893385428842,58.138829306701425,3.1142120321287017,-18.23661445081833,-25.777046165431905,37.74157055464197,-0.34513283500460545","0","0"
"649","86","text","0","55","1083686","0-0","","","","","","","","","","","","","","","","","","","","","","","","","","","","","","","","","","","","",""
"","","plant-game","0","56","1093597","0-0","","200","190","1","WHEAT CROP","Right","200","180","1","THISTLE WEED","experimental","15","1","180","1","THISTLE WEED","190","1","WHEAT CROP","0","20","10","20","20","20","0","20","10","20","20","20","1","6055","19.84061082339007","60.47576037257382","0","0"
"981","86","text","0","57","1094654","0-0","","","","","","","","","","","","","","","","","","","","","","","","","","","","","","","","","","","","",""
"","","plant-game","0","58","1120670","0-0","","200","180","8","WHEAT CROP","Right","200","160","4","NETTLE WEED","experimental","16","1,2,3,4,5,6,7,8","160,186.22875784208887,197.9674177297113,157.68518483503544,160,182.1626547885796,181.1144317338379,121.92496000954533","4,3,2,1,4,3,2,1","NETTLE WEED,NETTLE WEED,NETTLE WEED,NETTLE WEED,THISTLE WEED,THISTLE WEED,THISTLE WEED,THISTLE WEED","180,247.64151817537055,279.9831144460299,261.42757507895715,271.4206137433117,252.38401501041022,245.94186437007858,298.4003986642716","8,7,6,5,4,3,2,1","WHEAT CROP,WHEAT CROP,WHEAT CROP,WHEAT CROP,WHEAT CROP,WHEAT CROP,WHEAT CROP,WHEAT CROP","0,0,0,0,0,0,0,0","20,20,20,20,20,20,20,20","10,10,10,10,10,10,10,10","20,20,20,20,20,20,20,20","20,20,20,20,20,20,20,20","20,20,20,20,20,20,20,20","0,0,0,0,0,0,0,0","20,20,20,20,20,20,20,20","10,10,10,10,10,10,10,10","20,20,20,20,20,20,20,20","20,20,20,20,20,20,20,20","20,20,20,20,20,20,20,20","1,0,0,0,0,0,0,0","4396,3962,859,1609,5344,506,457,533","26.228757842088857,11.738659887622413,-40.28223289467584,-30.257294830483726,22.16265478857959,-1.0482230547417037,-59.189471724292574,-13.92713352016135","67.64151817537056,32.341596270659366,-18.555539367072775,9.993038664354582,-19.036598732901485,-6.44215064033165,52.45853429419304,1.9691863479700396","0","0"
"17231","86","text","0","59","1137995","0-0","","","","","","","","","","","","","","","","","","","","","","","","","","","","","","","","","","","","",""
"","","plant-game","0","60","1161921","0-0","","200","120","4","WHEAT CROP","Left","200","190","1","THISTLE WEED","experimental","17","1,2,3,4","120,117.22205864869797,111.05437267959223,114.28904123906247","4,3,2,1","WHEAT CROP,WHEAT CROP,WHEAT CROP,WHEAT CROP","190,170,156.06339459175612,176.5779758468074","1,3,2,1","THISTLE WEED,NETTLE WEED,NETTLE WEED,NETTLE WEED","20,20,20,20","20,20,20,20","10,10,10,10","20,20,20,20","0,0,0,0","20,20,20,20","20,20,20,20","20,20,20,20","10,10,10,10","20,20,20,20","0,0,0,0","20,20,20,20","1,1,1,1","7543,3913,1685,1480","-2.777941351302036,-6.167685969105729,3.234668559470235,25.581806692572325","-3.3573067066620843,-13.936605408243878,20.51458125505126,39.212091266912175","0","0"
"820","86","text","0","61","1162841","0-0","","","","","","","","","","","","","","","","","","","","","","","","","","","","","","","","","","","","",""
"","","plant-game","0","62","1197915","0-0","","200","190","4","WHEAT CROP","Left","200","120","8","NETTLE WEED","experimental","18","1,2,3,4,5,6,7,8","190,224.19460593777526,234.76298612392407,255.5377013434677,160,173.65342002088565,143.7015273427948,157.2295670200454","4,3,2,1,4,3,2,1","WHEAT CROP,WHEAT CROP,WHEAT CROP,WHEAT CROP,CORN CROP,CORN CROP,CORN CROP,CORN CROP","120,136.46916139030645,136.39723332907516,192.1398449800775,174.006213784216,144.32418444703913,139.04645434312883,129.28896410655022","8,7,6,5,4,3,2,1","NETTLE WEED,NETTLE WEED,NETTLE WEED,NETTLE WEED,NETTLE WEED,NETTLE WEED,NETTLE WEED,NETTLE WEED","20,20,20,20,20,20,20,20","20,20,20,20,20,20,20,20","10,10,10,10,10,10,10,10","20,20,20,20,20,20,20,20","0,0,0,0,0,0,0,0","20,20,20,20,20,20,20,20","20,20,20,20,20,20,20,20","20,20,20,20,20,20,20,20","10,10,10,10,10,10,10,10","20,20,20,20,20,20,20,20","0,0,0,0,0,0,0,0","20,20,20,20,20,20,20,20","0,0,0,1,1,1,1,1","13638,1419,1191,1864,6178,708,706,665","34.194605937775265,10.568380186148808,20.774715219543626,-7.928415162845752,13.653420020885642,-29.951892678090832,13.52803967725059,42.266574298537506","16.469161390306457,-0.07192806123128292,55.74261165100232,-18.133631195861522,-29.68202933717685,-5.277730103910296,-9.757490236578612,-20.309380347092258","0","0"
"731","86","text","0","63","1198724","0-0","","","","","","","","","","","","","","","","","","","","","","","","","","","","","","","","","","","","",""
"","","plant-game","0","64","1223844","0-0","","200","190","2","CORN CROP","Left","200","180","8","THISTLE WEED","experimental","19","1,2,3,4,5,6,7,8","190,179.86918530931422,140,118.01643891503518,106.17263552058532,80.81642353344274,102.53459854843884,120.80608200952578","2,1,6,5,4,3,2,1","CORN CROP,CORN CROP,WHEAT CROP,WHEAT CROP,WHEAT CROP,WHEAT CROP,WHEAT CROP,WHEAT CROP","180,182.02091046595856,220.90748737327021,211.03950170385806,220.4982115350985,217.10708263262183,237.82304216267337,234.53591618624768","8,7,6,5,4,3,2,1","THISTLE WEED,THISTLE WEED,THISTLE WEED,THISTLE WEED,THISTLE WEED,THISTLE WEED,THISTLE WEED,THISTLE WEED","20,20,20,20,20,20,20,20","20,20,20,20,20,20,20,20","10,10,10,10,10,10,10,10","20,20,20,20,20,20,20,20","0,0,0,0,0,0,0,0","20,20,20,20,20,20,20,20","20,20,20,20,20,20,20,20","20,20,20,20,20,20,20,20","10,10,10,10,10,10,10,10","20,20,20,20,20,20,20,20","0,0,0,0,0,0,0,0","20,20,20,20,20,20,20,20","0,0,1,1,1,1,1,1","7253,831,5641,577,514,518,562,530","-10.130814690685792,11.224787463589747,-21.983561084964816,-11.84380339444987,-25.35621198714257,21.718175014996092,18.271483461086948,30.90091288138288","2.0209104659585577,38.886576907311664,-9.867985669412157,9.458709831240444,-3.3911289024766944,20.715959530051556,-3.287125976425709,20.696451337696573","0","0"
"843","86","text","0","65","1224767","0-0","","","","","","","","","","","","","","","","","","","","","","","","","","","","","","","","","","","","",""
"","","plant-game","0","66","1260431","0-0","","200","180","4","WHEAT CROP","Left","200","160","2","NETTLE WEED","experimental","20","1,2,3,4","180,165.544385445768,140.4485466598422,140.2942050101236","4,3,2,1","WHEAT CROP,WHEAT CROP,WHEAT CROP,WHEAT CROP","160,179.39918267012354,180,235.03112601036366","2,1,2,1","NETTLE WEED,NETTLE WEED,THISTLE WEED,THISTLE WEED","20,20,20,20","20,20,20,20","10,10,10,10","20,20,20,20","0,0,0,0","20,20,20,20","20,20,20,20","20,20,20,20","10,10,10,10","20,20,20,20","0,0,0,0","20,20,20,20","1,1,0,0","17133,1154,6070,1496","-14.45561455423199,-25.0958387859258,-0.15434164971861009,0.5965470719207744","19.39918267012353,6.180371481416954,55.03112601036365,0.43092530840141663","0","0"
"773","86","text","0","67","1261284","0-0","","","","","","","","","","","","","","","","","","","","","","","","","","","","","","","","","","","","",""
"","","plant-game","0","68","1293633","0-0","","200","120","8","CORN CROP","Right","200","190","1","THISTLE WEED","experimental","21","1,2,3,4,5,6,7,8","190,130,168.53754811974545,156.06772176454825,147.0839768609836,141.26826789592792,164.0482979029322,138.04185475903543","1,7,6,5,4,3,2,1","THISTLE WEED,NETTLE WEED,NETTLE WEED,NETTLE WEED,NETTLE WEED,NETTLE WEED,NETTLE WEED,NETTLE WEED","120,165.33435964789555,215.52130006898122,211.77289014539693,238.50692281197126,276.6894877188604,273.0051493926139,280.27639330612294","8,7,6,5,4,3,2,1","CORN CROP,CORN CROP,CORN CROP,CORN CROP,CORN CROP,CORN CROP,CORN CROP,CORN CROP","0,0,0,0,0,0,0,0","20,20,20,20,20,20,20,20","10,10,10,10,10,10,10,10","20,20,20,20,20,20,20,20","20,20,20,20,20,20,20,20","20,20,20,20,20,20,20,20","0,0,0,0,0,0,0,0","20,20,20,20,20,20,20,20","10,10,10,10,10,10,10,10","20,20,20,20,20,20,20,20","20,20,20,20,20,20,20,20","20,20,20,20,20,20,20,20","1,1,0,0,0,0,0,0","5441,11698,2364,1266,944,898,539,485","1.263797314607224,38.53754811974544,-12.469826355197204,-8.983744903564668,-5.815708965055684,22.78003000700428,-26.006443143896767,33.18715068708544","45.33435964789554,50.18694042108567,-3.7484099235842776,26.734032666574343,38.18256490688911,-3.6843383262465013,7.271243913509082,-12.698767809558287","0","0"
"672","86","text","0","69","1294375","0-0","","","","","","","","","","","","","","","","","","","","","","","","","","","","","","","","","","","","",""
"","","plant-game","0","70","1314654","0-0","","200","120","4","WHEAT CROP","Right","200","120","1","NETTLE WEED","experimental","22","1,2,3,4","120,170,184.25238809381176,189.97276965573897","1,3,2,1","NETTLE WEED,THISTLE WEED,THISTLE WEED,THISTLE WEED","120,112.77899001552765,134.735122533368,156.98302960761055","4,3,2,1","WHEAT CROP,WHEAT CROP,WHEAT CROP,WHEAT CROP","0,0,0,0","20,20,20,20","10,10,10,10","20,20,20,20","20,20,20,20","20,20,20,20","0,0,0,0","20,20,20,20","10,10,10,10","20,20,20,20","20,20,20,20","20,20,20,20","1,1,0,0","5319,3330,1744,1509","25.1861261719001,14.252388093811758,5.720381561927203,3.5000269708835","-7.221009984472349,21.956132517840352,22.247907074242526,24.357078994838155","0","0"
"652","86","text","0","71","1315400","0-0","","","","","","","","","","","","","","","","","","","","","","","","","","","","","","","","","","","","",""
"","","plant-game","0","72","1335696","0-0","","200","180","4","WHEAT CROP","Right","200","180","4","NETTLE WEED","experimental","23","1,2,3,4","180,192.4181136015007,179.95258266346787,130.59421668293368","4,3,2,1","NETTLE WEED,NETTLE WEED,NETTLE WEED,NETTLE WEED","180,194.32625794549182,215.70841514339432,227.4658432335972","4,3,2,1","WHEAT CROP,WHEAT CROP,WHEAT CROP,WHEAT CROP","0,0,0,0","20,20,20,20","10,10,10,10","20,20,20,20","20,20,20,20","20,20,20,20","0,0,0,0","20,20,20,20","10,10,10,10","20,20,20,20","20,20,20,20","20,20,20,20","1,1,0,0","10089,2834,2386,515","12.418113601500693,-12.465530938032813,-49.358365980534195,-6.10257854585032","14.326257945491824,21.38215719790249,11.757428090202902,-11.156359456255032","0","0"
"623","86","text","0","73","1336409","0-0","","","","","","","","","","","","","","","","","","","","","","","","","","","","","","","","","","","","",""
"","","plant-game","0","74","1346154","0-0","","200","190","2","WHEAT CROP","Right","200","160","2","THISTLE WEED","experimental","24","1,2","160,164.92516244073258","2,1","THISTLE WEED,THISTLE WEED","190,212.0415186058165","2,1","WHEAT CROP,WHEAT CROP","0,0","20,20","10,10","20,20","20,20","20,20","0,0","20,20","10,10","20,20","20,20","20,20","1,0","3403,1723","4.925162440732567,-4.678456918072237","22.041518605816485,-2.2956463589507177","0","0"
"676","86","text","0","75","1346930","0-0","","","","","","","","","","","","","","","","","","","","","","","","","","","","","","","","","","","","",""
"","","plant-game","0","76","1367581","0-0","","200","160","1","WHEAT CROP","Left","200","180","8","THISTLE WEED","experimental","25","1,2,3,4,5,6,7,8","160,130,130.27162375886843,139.9070226245604,158.02252997898705,143.41013811240933,175.86096933208773,174.02179232985577","1,7,6,5,4,3,2,1","WHEAT CROP,CORN CROP,CORN CROP,CORN CROP,CORN CROP,CORN CROP,CORN CROP,CORN CROP","180,197.59872979112663,194.53075402347957,186.7476942556076,187.66111171397722,204.3996275175484,221.1154699558673,202.2948505636036","8,7,6,5,4,3,2,1","THISTLE WEED,THISTLE WEED,THISTLE WEED,THISTLE WEED,THISTLE WEED,THISTLE WEED,THISTLE WEED,THISTLE WEED","20,20,20,20,20,20,20,20","20,20,20,20,20,20,20,20","10,10,10,10,10,10,10,10","20,20,20,20,20,20,20,20","0,0,0,0,0,0,0,0","20,20,20,20,20,20,20,20","20,20,20,20,20,20,20,20","20,20,20,20,20,20,20,20","10,10,10,10,10,10,10,10","20,20,20,20,20,20,20,20","0,0,0,0,0,0,0,0","20,20,20,20,20,20,20,20","0,1,1,1,1,1,1,1","6031,3706,471,458,402,349,565,537","-6.502217573792951,0.2716237588684414,9.635398865691965,18.115507354426658,-14.612391866577731,32.450831219678406,-1.8391770022319593,-18.75479006216767","17.598729791126637,-3.067975767647044,-7.783059767871961,0.9134174583696117,16.738515803571172,16.715842438318912,-18.820619392263684,-38.51941006016808","0","0"
"629","86","text","0","77","1368290","0-0","","","","","","","","","","","","","","","","","","","","","","","","","","","","","","","","","","","","",""
"","","plant-game","0","78","1378761","0-0","","200","120","1","WHEAT CROP","Left","200","120","1","NETTLE WEED","experimental","26","1","120","1","WHEAT CROP","120","1","NETTLE WEED","20","20","10","20","0","20","20","20","10","20","0","20","0","4946","24.452437174050367","12.132611534742255","0","0"
"661","86","text","0","79","1379494","0-0","","","","","","","","","","","","","","","","","","","","","","","","","","","","","","","","","","","","",""
"","","plant-game","0","80","1401651","0-0","","200","160","8","WHEAT CROP","Right","200","180","8","THISTLE WEED","experimental","27","1,2,3,4,5,6,7,8","180,177.66149062712356,150.1505747099314,149.45050659127003,139.1262707315895,123.28130423434452,166.98413322015244,191.76058522217596","8,7,6,5,4,3,2,1","THISTLE WEED,THISTLE WEED,THISTLE WEED,THISTLE WEED,THISTLE WEED,THISTLE WEED,THISTLE WEED,THISTLE WEED","160,149.8912024020773,143.81892401359647,141.48112316509162,149.25996698581753,163.44408465632796,194.4657665061912,227.99325961258978","8,7,6,5,4,3,2,1","WHEAT CROP,WHEAT CROP,WHEAT CROP,WHEAT CROP,WHEAT CROP,WHEAT CROP,WHEAT CROP,WHEAT CROP","0,0,0,0,0,0,0,0","20,20,20,20,20,20,20,20","10,10,10,10,10,10,10,10","20,20,20,20,20,20,20,20","20,20,20,20,20,20,20,20","20,20,20,20,20,20,20,20","0,0,0,0,0,0,0,0","20,20,20,20,20,20,20,20","10,10,10,10,10,10,10,10","20,20,20,20,20,20,20,20","20,20,20,20,20,20,20,20","20,20,20,20,20,20,20,20","0,0,0,0,0,1,1,0","7952,1591,833,582,1104,2119,653,2652","-2.338509372876457,-27.510915917192165,-0.7000681186613733,-10.32423585968052,-15.84496649724498,43.70282898580794,24.77645200202352,1.5746740130744488","-10.108797597922681,-6.072278388480827,-2.3378008485048487,7.778843820725896,14.184117670510421,31.021681849863242,33.52749310639858,-23.653361226475504","0","0"
"567","86","text","0","81","1402308","0-0","","","","","","","","","","","","","","","","","","","","","","","","","","","","","","","","","","","","",""
"","","plant-game","0","82","1417498","0-0","","200","190","4","CORN CROP","Right","200","120","4","THISTLE WEED","experimental","28","1,2,3,4","120,165.76537608325808,219.403918707987,228.24462928025827","4,3,2,1","THISTLE WEED,THISTLE WEED,THISTLE WEED,THISTLE WEED","190,196.33254864595867,227.0670592026726,213.05911222422748","4,3,2,1","CORN CROP,CORN CROP,CORN CROP,CORN CROP","0,0,0,0","20,20,20,20","10,10,10,10","20,20,20,20","20,20,20,20","20,20,20,20","0,0,0,0","20,20,20,20","10,10,10,10","20,20,20,20","20,20,20,20","20,20,20,20","1,1,0,0","6265,656,3144,593","45.765376083258076,53.63854262472893,8.84071057227127,7.686239397811024","6.332548645958671,30.734510556713936,-14.007946978445133,27.34987721622154","0","0"
"543","86","text","0","83","1418121","0-0","","","","","","","","","","","","","","","","","","","","","","","","","","","","","","","","","","","","",""
"","","plant-game","0","84","1438320","0-0","","200","120","1","WHEAT CROP","Left","200","160","2","THISTLE WEED","experimental","29","1,2","120,190","1,1","WHEAT CROP,CORN CROP","160,186.33444685957124","2,1","THISTLE WEED,THISTLE WEED","20,20","20,20","10,10","20,20","0,0","20,20","20,20","20,20","10,10","20,20","0,0","20,20","0,1","6469,7384","26.32112148046151,13.589968946543129","26.334446859571255,-7.722088421294627","0","0"
"929","86","text","0","85","1439328","0-0","","","","","","","","","","","","","","","","","","","","","","","","","","","","","","","","","","","","",""
"","","plant-game","0","86","1476079","0-0","","200","160","4","CORN CROP","Right","200","180","8","NETTLE WEED","experimental","30","1,2,3,4,5,6,7,8","180,191.52458221784966,192.28462466835475,185.7667327982743,178.21681549175744,147.87883436036114,157.48826277727386,170.64504848079463","8,7,6,5,4,3,2,1","NETTLE WEED,NETTLE WEED,NETTLE WEED,NETTLE WEED,NETTLE WEED,NETTLE WEED,NETTLE WEED,NETTLE WEED","160,141.96069346405295,147.9057714440119,132.1125252376099,160,145.90241254813412,124.60733419280231,147.0791679193609","4,3,2,1,4,3,2,1","CORN CROP,CORN CROP,CORN CROP,CORN CROP,WHEAT CROP,WHEAT CROP,WHEAT CROP,WHEAT CROP","0,0,0,0,0,0,0,0","20,20,20,20,20,20,20,20","10,10,10,10,10,10,10,10","20,20,20,20,20,20,20,20","20,20,20,20,20,20,20,20","20,20,20,20,20,20,20,20","0,0,0,0,0,0,0,0","20,20,20,20,20,20,20,20","10,10,10,10,10,10,10,10","20,20,20,20,20,20,20,20","20,20,20,20,20,20,20,20","20,20,20,20,20,20,20,20","0,0,0,0,0,0,0,0","17976,1411,459,456,7553,735,462,1077","11.524582217849657,0.7600424505051007,-6.517891870080463,-7.549917306516855,-30.337981131396305,9.609428416912733,13.156785703520761,-30.55104737568091","-18.03930653594705,5.94507797995893,-15.793246206401985,16.30238207345575,-14.097587451865891,-21.295078355331817,22.47183372655861,-11.647631536908275","0","0"
"593","86","text","0","87","1476765","0-0","","","","","","","","","","","","","","","","","","","","","","","","","","","","","","","","","","","","",""
"","","plant-game","0","88","1497325","0-0","","200","120","4","CORN CROP","Right","200","190","4","THISTLE WEED","experimental","31","1,2,3,4","190,175.07245660805575,142.4088144147491,157.94681725025126","4,3,2,1","THISTLE WEED,THISTLE WEED,THISTLE WEED,THISTLE WEED","120,131.90245867534784,153.65170753968198,126.42444753142246","4,3,2,1","CORN CROP,CORN CROP,CORN CROP,CORN CROP","0,0,0,0","20,20,20,20","10,10,10,10","20,20,20,20","20,20,20,20","20,20,20,20","0,0,0,0","20,20,20,20","10,10,10,10","20,20,20,20","20,20,20,20","20,20,20,20","0,0,0,0","13244,632,1423,919","-14.927543391944244,-32.66364219330665,15.538002835502168,-0.43251781496580405","11.902458675347852,21.74924886433412,-27.227260008259528,-27.637584515163574","0","0"
"595","86","text","0","89","1498045","0-0","","","","","","","","","","","","","","","","","","","","","","","","","","","","","","","","","","","","",""
"","","plant-game","0","90","1522154","0-0","","200","120","8","WHEAT CROP","Left","200","120","4","NETTLE WEED","experimental","32","1,2,3,4,5,6,7,8","120,129.94089409608148,133.90322983659794,137.35221402458112,160.9544562420448,145.14720713350056,146.52179905830548,184.04813164043537","8,7,6,5,4,3,2,1","WHEAT CROP,WHEAT CROP,WHEAT CROP,WHEAT CROP,WHEAT CROP,WHEAT CROP,WHEAT CROP,WHEAT CROP","120,202.54130885212953,202.37158525387306,205.52347870429531,160,175.21380956056606,182.55196292980028,232.07878616232028","4,3,2,1,4,3,2,1","NETTLE WEED,NETTLE WEED,NETTLE WEED,NETTLE WEED,THISTLE WEED,THISTLE WEED,THISTLE WEED,THISTLE WEED","20,20,20,20,20,20,20,20","20,20,20,20,20,20,20,20","10,10,10,10,10,10,10,10","20,20,20,20,20,20,20,20","0,0,0,0,0,0,0,0","20,20,20,20,20,20,20,20","20,20,20,20,20,20,20,20","20,20,20,20,20,20,20,20","10,10,10,10,10,10,10,10","20,20,20,20,20,20,20,20","0,0,0,0,0,0,0,0","20,20,20,20,20,20,20,20","0,1,1,1,0,0,0,0","7477,2089,1001,501,3509,77,307,433","9.940894096081465,3.9623357405164663,3.4489841879831786,23.602242217463704,-15.80724910854427,1.374591924804907,37.5263325821299,48.19181109830252","82.54130885212952,-0.16972359825646066,3.151893450422238,2.119794923566732,15.21380956056607,7.338153369234213,49.526823232520016,13.67994244590967","0","0"
"4858","86","text","0","91","1527102","0-0","","","","","","","","","","","","","","","","","","","","","","","","","","","","","","","","","","","","",""
"","","plant-game","0","92","1567150","0-0","","200","190","1","CORN CROP","Right","200","190","8","NETTLE WEED","experimental","33","1,2,3,4,5,6,7,8","190,226.7950207037543,254.47137225186296,249.1356872201518,275.24981007540106,305.9229561666666,333.56979203371304,383.2177194562546","8,7,6,5,4,3,2,1","NETTLE WEED,NETTLE WEED,NETTLE WEED,NETTLE WEED,NETTLE WEED,NETTLE WEED,NETTLE WEED,NETTLE WEED","190,130,124.92627100187636,160.7213922845944,222.37372568297326,248.6666210245776,253.4633245146653,254.51526261103473","1,7,6,5,4,3,2,1","CORN CROP,WHEAT CROP,WHEAT CROP,WHEAT CROP,WHEAT CROP,WHEAT CROP,WHEAT CROP,WHEAT CROP","0,0,0,0,0,0,0,0","20,20,20,20,20,20,20,20","10,10,10,10,10,10,10,10","20,20,20,20,20,20,20,20","20,20,20,20,20,20,20,20","20,20,20,20,20,20,20,20","0,0,0,0,0,0,0,0","20,20,20,20,20,20,20,20","10,10,10,10,10,10,10,10","20,20,20,20,20,20,20,20","20,20,20,20,20,20,20,20","20,20,20,20,20,20,20,20","1,1,1,1,1,1,1,1","4526,23038,240,283,3543,520,382,191","36.795020703754304,27.676351548108663,-5.335685031711151,26.11412285524924,30.67314609126555,27.646835867046434,49.64792742254154,53.5964767516779","0.06757447069341538,-5.073728998123638,35.79512128271804,61.65233339837887,26.29289534160435,4.796703490087689,1.0519380963694438,-17.988867082980235","0","0"
"792","86","text","0","93","1568032","0-0","","","","","","","","","","","","","","","","","","","","","","","","","","","","","","","","","","","","",""
"","","plant-game","0","94","1592426","0-0","","200","120","4","CORN CROP","Right","200","160","8","THISTLE WEED","experimental","34","1,2,3,4,5,6,7,8","160,164.41201708095022,167.50601118107946,160.30017967712996,154.88963425680558,175.45311017173017,191.82395683154522,258.39020177019734","8,7,6,5,4,3,2,1","THISTLE WEED,THISTLE WEED,THISTLE WEED,THISTLE WEED,THISTLE WEED,THISTLE WEED,THISTLE WEED,THISTLE WEED","120,105.36273568795394,104.32817058236394,101.42236566797871,160,150.46931585872852,125.50669435425446,130.88185659314345","4,3,2,1,4,3,2,1","CORN CROP,CORN CROP,CORN CROP,CORN CROP,WHEAT CROP,WHEAT CROP,WHEAT CROP,WHEAT CROP","0,0,0,0,0,0,0,0","20,20,20,20,20,20,20,20","10,10,10,10,10,10,10,10","20,20,20,20,20,20,20,20","20,20,20,20,20,20,20,20","20,20,20,20,20,20,20,20","0,0,0,0,0,0,0,0","20,20,20,20,20,20,20,20","10,10,10,10,10,10,10,10","20,20,20,20,20,20,20,20","20,20,20,20,20,20,20,20","20,20,20,20,20,20,20,20","0,0,0,0,0,0,0,0","8021,382,422,406,4243,216,113,140","4.4120170809502115,3.0939941001292266,-7.205831503949497,-5.410545420324382,20.563475914924606,16.370846659815058,66.56624493865212,-14.769303562561635","-14.63726431204605,-1.0345651055899996,-2.905804914385236,-9.149009835445288,-9.53068414127149,-24.962621504474054,5.375162238888977,-25.956804708053745","1","0"
"656","86","text","0","95","1593172","0-0","","","","","","","","","","","","","","","","","","","","","","","","","","","","","","","","","","","","",""
"","","plant-game","0","96","1622069","0-0","","200","190","4","CORN CROP","Left","200","190","1","NETTLE WEED","experimental","35","1,2,3,4","190,175.71098969356788,196.90608222662848,208.92815570877067","4,3,2,1","CORN CROP,CORN CROP,CORN CROP,CORN CROP","190,170,202.47138875888027,231.4739953433617","1,3,2,1","NETTLE WEED,THISTLE WEED,THISTLE WEED,THISTLE WEED","20,20,20,20","20,20,20,20","10,10,10,10","20,20,20,20","0,0,0,0","20,20,20,20","20,20,20,20","20,20,20,20","10,10,10,10","20,20,20,20","0,0,0,0","20,20,20,20","0,0,0,0","4337,16277,392,1231","-14.289010306432118,21.195092533060613,12.022073482142195,56.30666515358806","16.79019109690159,32.47138875888027,29.00260658448145,20.336334828722606","0","0"
"612","86","text","0","97","1622761","0-0","","","","","","","","","","","","","","","","","","","","","","","","","","","","","","","","","","","","",""
"","","plant-game","0","98","1647528","0-0","","200","160","2","WHEAT CROP","Left","200","160","4","NETTLE WEED","experimental","36","1,2,3,4","160,186.6738864973177,180,217.0421508528372","2,1,2,1","WHEAT CROP,WHEAT CROP,CORN CROP,CORN CROP","160,204.81170101565914,210.14690398051218,202.89431371506302","4,3,2,1","NETTLE WEED,NETTLE WEED,NETTLE WEED,NETTLE WEED","20,20,20,20","20,20,20,20","10,10,10,10","20,20,20,20","0,0,0,0","20,20,20,20","20,20,20,20","20,20,20,20","10,10,10,10","20,20,20,20","0,0,0,0","20,20,20,20","0,0,0,0","8273,594,9808,280","26.673886497317696,17.696100554334958,37.042150852837224,36.86486926448823","44.81170101565915,5.33520296485305,-7.252590265449168,5.974323038893406","0","0"
"593","86","text","0","99","1648217","0-0","","","","","","","","","","","","","","","","","","","","","","","","","","","","","","","","","","","","",""
"","","plant-game","0","100","1661032","0-0","","200","190","8","CORN CROP","Right","200","190","8","NETTLE WEED","experimental","37","1,2,3,4,5,6,7,8","190,202.01187131477693,233.96076065700657,268.8919658470335,297.87610280956716,324.9674855826556,342.80412210134676,330.3244686447594","8,7,6,5,4,3,2,1","NETTLE WEED,NETTLE WEED,NETTLE WEED,NETTLE WEED,NETTLE WEED,NETTLE WEED,NETTLE WEED,NETTLE WEED","190,210.47625552860572,246.0263412137241,280.7069654339866,290.45578148586344,268.9708627766278,289.253251826781,321.26260826439324","8,7,6,5,4,3,2,1","CORN CROP,CORN CROP,CORN CROP,CORN CROP,CORN CROP,CORN CROP,CORN CROP,CORN CROP","0,0,0,0,0,0,0,0","20,20,20,20,20,20,20,20","10,10,10,10,10,10,10,10","20,20,20,20,20,20,20,20","20,20,20,20,20,20,20,20","20,20,20,20,20,20,20,20","0,0,0,0,0,0,0,0","20,20,20,20,20,20,20,20","10,10,10,10,10,10,10,10","20,20,20,20,20,20,20,20","20,20,20,20,20,20,20,20","20,20,20,20,20,20,20,20","1,1,1,1,1,1,1,1","5233,720,466,477,416,440,413,406","12.011871314776936,31.948889342229645,34.931205190026894,28.98413696253368,27.091382773088473,17.83663651869116,-12.479653456587343,43.080885278566356","20.476255528605716,35.55008568511836,34.68062422026253,9.748816051876792,-21.4849187092356,20.282389050153217,32.00935643761219,6.244973768634431","0","0"
"639","86","text","0","101","1661761","0-0","","","","","","","","","","","","","","","","","","","","","","","","","","","","","","","","","","","","",""
"","","plant-game","0","102","1677485","0-0","","200","120","1","CORN CROP","Right","200","180","2","THISTLE WEED","experimental","38","1,2","180,177.69817128681748","2,1","THISTLE WEED,THISTLE WEED","120,190","1,1","CORN CROP,WHEAT CROP","0,0","20,20","10,10","20,20","20,20","20,20","0,0","20,20","10,10","20,20","20,20","20,20","0,1","3329,5278","-2.3018287131825033,41.656010746389946","5.3541205864371735,-19.04372862164528","0","0"
"571","86","text","0","103","1678135","0-0","","","","","","","","","","","","","","","","","","","","","","","","","","","","","","","","","","","","",""
"","","plant-game","0","104","1694064","0-0","","200","190","8","WHEAT CROP","Right","200","180","8","NETTLE WEED","experimental","39","1,2,3,4,5,6,7,8","180,157.00139162215464,202.981194777775,173.18747133136873,164.40900006627737,151.83540872296783,145.24478778070522,151.5136216587872","8,7,6,5,4,3,2,1","NETTLE WEED,NETTLE WEED,NETTLE WEED,NETTLE WEED,NETTLE WEED,NETTLE WEED,NETTLE WEED,NETTLE WEED","190,241.67361922567778,261.1609161095775,262.71849720380317,249.9472676872269,253.26024953363182,257.0509691312903,249.63982762104604","8,7,6,5,4,3,2,1","WHEAT CROP,WHEAT CROP,WHEAT CROP,WHEAT CROP,WHEAT CROP,WHEAT CROP,WHEAT CROP,WHEAT CROP","0,0,0,0,0,0,0,0","20,20,20,20,20,20,20,20","10,10,10,10,10,10,10,10","20,20,20,20,20,20,20,20","20,20,20,20,20,20,20,20","20,20,20,20,20,20,20,20","0,0,0,0,0,0,0,0","20,20,20,20,20,20,20,20","10,10,10,10,10,10,10,10","20,20,20,20,20,20,20,20","20,20,20,20,20,20,20,20","20,20,20,20,20,20,20,20","1,1,0,0,0,0,0,0","4790,1614,1506,1342,728,732,635,584","-22.998608377845365,45.97980315562036,-29.793723446406275,-8.778471265091367,-12.573591343309536,-6.590620942262596,6.268833878081969,-10.919349974970423","51.6736192256778,19.48729688389971,1.5575810942256427,-12.77122951657626,3.3129818464049143,3.7907195976584633,-7.411141510244262,15.965847526587424","0","0"
"580","86","text","0","105","1694714","0-0","","","","","","","","","","","","","","","","","","","","","","","","","","","","","","","","","","","","",""
"","","plant-game","0","106","1718485","0-0","","200","160","4","WHEAT CROP","Left","200","160","1","THISTLE WEED","experimental","40","1,2,3,4","160,190.17825513086353,189.29008696640244,206.7743907403562","4,3,2,1","WHEAT CROP,WHEAT CROP,WHEAT CROP,WHEAT CROP","160,170,172.668881152936,152.66994221520997","1,3,2,1","THISTLE WEED,NETTLE WEED,NETTLE WEED,NETTLE WEED","20,20,20,20","20,20,20,20","10,10,10,10","20,20,20,20","0,0,0,0","20,20,20,20","20,20,20,20","20,20,20,20","10,10,10,10","20,20,20,20","0,0,0,0","20,20,20,20","1,0,0,0","7235,7886,321,1280","30.178255130863526,-0.8881681644610993,17.484303773953762,-29.36317422494816","-31.375599867138256,2.668881152935999,-19.998938937726024,41.477566420597654","0","0"
"555","86","text","0","107","1719110","0-0","","","","","","","","","","","","","","","","","","","","","","","","","","","","","","","","","","","","",""
"","","plant-game","0","108","1742785","0-0","","200","190","4","CORN CROP","Right","200","190","2","THISTLE WEED","experimental","41","1,2,3,4","190,188.28873777918454,180,194.238655928545","2,1,2,1","THISTLE WEED,THISTLE WEED,NETTLE WEED,NETTLE WEED","190,219.16339045147942,183.5624446313687,223.05334530442184","4,3,2,1","CORN CROP,CORN CROP,CORN CROP,CORN CROP","0,0,0,0","20,20,20,20","10,10,10,10","20,20,20,20","20,20,20,20","20,20,20,20","0,0,0,0","20,20,20,20","10,10,10,10","20,20,20,20","20,20,20,20","20,20,20,20","1,0,1,0","9826,1665,3382,1323","-1.7112622208154562,-11.328973837675987,14.238655928545,-11.612461450730773","29.163390451479415,-35.60094582011073,39.49090067305316,27.026064098527666","0","0"
"698","86","text","0","109","1743553","0-0","","","","","","","","","","","","","","","","","","","","","","","","","","","","","","","","","","","","",""
"","","plant-game","0","110","1770449","0-0","","200","190","2","CORN CROP","Left","200","120","8","NETTLE WEED","experimental","42","1,2,3,4,5,6,7,8","190,200.4766646432681,140,171.8336438064932,219.6486084383799,219.1399461662296,194.46902791422752,200.84025118879998","2,1,6,5,4,3,2,1","CORN CROP,CORN CROP,WHEAT CROP,WHEAT CROP,WHEAT CROP,WHEAT CROP,WHEAT CROP,WHEAT CROP","120,140.4332884891107,130.8279271592354,167.9267821319151,188.1913279114282,156.77185139438967,130.91851121183234,172.52671543608372","8,7,6,5,4,3,2,1","NETTLE WEED,NETTLE WEED,NETTLE WEED,NETTLE WEED,NETTLE WEED,NETTLE WEED,NETTLE WEED,NETTLE WEED","20,20,20,20,20,20,20,20","20,20,20,20,20,20,20,20","10,10,10,10,10,10,10,10","20,20,20,20,20,20,20,20","0,0,0,0,0,0,0,0","20,20,20,20,20,20,20,20","20,20,20,20,20,20,20,20","20,20,20,20,20,20,20,20","10,10,10,10,10,10,10,10","20,20,20,20,20,20,20,20","0,0,0,0,0,0,0,0","20,20,20,20,20,20,20,20","0,0,0,0,1,1,0,1","3652,465,6563,906,3712,735,1826,2201","10.4766646432681,14.433759886356881,31.8336438064932,47.81496463188671,-0.5086622721503093,-24.670918252002085,6.371223274572447,50.66249010498069","20.433288489110705,-9.605361329875322,37.09885497267969,20.26454577951309,-31.419476517038525,-25.853340182557343,41.608204224251374,11.529978129060254","0","0"
"601","86","text","0","111","1771130","0-0","","","","","","","","","","","","","","","","","","","","","","","","","","","","","","","","","","","","",""
"","","plant-game","0","112","1795456","0-0","","200","160","8","WHEAT CROP","Right","200","120","1","THISTLE WEED","experimental","43","1,2,3,4,5,6,7,8","120,130,152.49879355762417,171.89556434754806,235.1618381443281,278.03409309440394,294.01899493942517,278.2240669841864","1,7,6,5,4,3,2,1","THISTLE WEED,NETTLE WEED,NETTLE WEED,NETTLE WEED,NETTLE WEED,NETTLE WEED,NETTLE WEED,NETTLE WEED","160,195.378430383693,178.07559708952874,210.7906041109122,228.0907065323403,225.06363128519095,231.56281884068105,244.42798630093262","8,7,6,5,4,3,2,1","WHEAT CROP,WHEAT CROP,WHEAT CROP,WHEAT CROP,WHEAT CROP,WHEAT CROP,WHEAT CROP,WHEAT CROP","0,0,0,0,0,0,0,0","20,20,20,20,20,20,20,20","10,10,10,10,10,10,10,10","20,20,20,20,20,20,20,20","20,20,20,20,20,20,20,20","20,20,20,20,20,20,20,20","0,0,0,0,0,0,0,0","20,20,20,20,20,20,20,20","10,10,10,10,10,10,10,10","20,20,20,20,20,20,20,20","20,20,20,20,20,20,20,20","20,20,20,20,20,20,20,20","1,1,1,1,0,0,0,0","3518,2217,1379,4523,1633,841,486,695","20.917762627267884,22.498793557624165,19.39677078992389,63.26627379678004,42.87225495007587,15.984901845021206,-15.794927955238816,4.304659473469902","35.378430383693015,-17.302833294164273,32.715007021383464,17.300102421428114,-3.027075247149358,6.499187555490094,12.865167460251577,1.8012082239193392","0","0"
"553","86","text","0","113","1796120","0-0","","","","","","","","","","","","","","","","","","","","","","","","","","","","","","","","","","","","",""
"","","plant-game","0","114","1811637","0-0","","200","190","8","WHEAT CROP","Left","200","120","8","NETTLE WEED","experimental","44","1,2,3,4,5,6,7,8","190,198.87223471723553,243.72670571020694,256.7871345815124,257.4765922759164,261.1808086093112,276.0656235430316,257.1415186985484","8,7,6,5,4,3,2,1","WHEAT CROP,WHEAT CROP,WHEAT CROP,WHEAT CROP,WHEAT CROP,WHEAT CROP,WHEAT CROP,WHEAT CROP","120,118.72069275039291,154.91912359679313,167.72264616412477,170.18269097235384,163.08347104396873,188.43080997882888,218.782789687167","8,7,6,5,4,3,2,1","NETTLE WEED,NETTLE WEED,NETTLE WEED,NETTLE WEED,NETTLE WEED,NETTLE WEED,NETTLE WEED,NETTLE WEED","20,20,20,20,20,20,20,20","20,20,20,20,20,20,20,20","10,10,10,10,10,10,10,10","20,20,20,20,20,20,20,20","0,0,0,0,0,0,0,0","20,20,20,20,20,20,20,20","20,20,20,20,20,20,20,20","20,20,20,20,20,20,20,20","10,10,10,10,10,10,10,10","20,20,20,20,20,20,20,20","0,0,0,0,0,0,0,0","20,20,20,20,20,20,20,20","0,0,1,1,1,1,1,1","4467,489,2473,514,556,480,481,808","8.872234717235543,44.85447099297141,13.060428871305483,0.6894576944039716,3.704216333394818,14.884814933720378,-18.924104844483224,-10.300379327724489","-1.2793072496070934,36.198430846400214,12.803522567331648,2.4600448082290605,-7.099219928385109,25.34733893486014,30.35197970833813,10.939375719529687","0","0"
"674","86","text","0","115","1812411","0-0","","","","","","","","","","","","","","","","","","","","","","","","","","","","","","","","","","","","",""
"","","plant-game","0","116","1832354","0-0","","200","180","8","CORN CROP","Right","200","180","1","THISTLE WEED","experimental","45","1,2,3,4,5,6,7,8","180,130,154.68902605010027,165.22701302335622,180.86902701257668,146.45189362295193,125.96988048211922,121.51993861470761","1,7,6,5,4,3,2,1","THISTLE WEED,NETTLE WEED,NETTLE WEED,NETTLE WEED,NETTLE WEED,NETTLE WEED,NETTLE WEED,NETTLE WEED","180,177.71751766325184,178.88539361241357,212.2234336599147,263.91820140907873,259.3166454145515,266.56425786715516,295.54811211628277","8,7,6,5,4,3,2,1","CORN CROP,CORN CROP,CORN CROP,CORN CROP,CORN CROP,CORN CROP,CORN CROP,CORN CROP","0,0,0,0,0,0,0,0","20,20,20,20,20,20,20,20","10,10,10,10,10,10,10,10","20,20,20,20,20,20,20,20","20,20,20,20,20,20,20,20","20,20,20,20,20,20,20,20","0,0,0,0,0,0,0,0","20,20,20,20,20,20,20,20","10,10,10,10,10,10,10,10","20,20,20,20,20,20,20,20","20,20,20,20,20,20,20,20","20,20,20,20,20,20,20,20","0,1,1,1,0,0,0,0","2676,6118,922,1773,862,414,364,344","-13.94828818779088,24.68902605010026,10.53798697325595,15.642013989220455,-34.41713338962476,-20.482013140832702,-4.449941867411613,25.36992383205284","-2.2824823367481644,1.167875949161722,33.33804004750113,51.69476774916407,-4.601555994527261,7.247612452603675,28.98385424912761,22.78050925680099","0","0"
"754","86","text","0","117","1833208","0-0","","","","","","","","","","","","","","","","","","","","","","","","","","","","","","","","","","","","",""
"","","plant-game","0","118","1845150","0-0","","200","120","2","CORN CROP","Right","200","120","1","NETTLE WEED","experimental","46","1,2","120,190","1,1","NETTLE WEED,THISTLE WEED","120,135.28052961312738","2,1","CORN CROP,CORN CROP","0,0","20,20","10,10","20,20","20,20","20,20","0,0","20,20","10,10","20,20","20,20","20,20","1,0","2960,2626","-2.2341057567637463,18.165992814143305","15.280529613127397,-23.002774368902013","0","0"
"632","86","text","0","119","1845862","0-0","","","","","","","","","","","","","","","","","","","","","","","","","","","","","","","","","","","","",""
"","","plant-game","0","120","1887355","0-0","","200","120","2","WHEAT CROP","Left","200","120","4","THISTLE WEED","experimental","47","1,2,3,4","120,149.2182488247006,180,174.17951742591256","2,1,2,1","WHEAT CROP,WHEAT CROP,CORN CROP,CORN CROP","120,128.66955538249596,108.48574938248449,110.32768417289384","4,3,2,1","THISTLE WEED,THISTLE WEED,THISTLE WEED,THISTLE WEED","20,20,20,20","20,20,20,20","10,10,10,10","20,20,20,20","0,0,0,0","20,20,20,20","20,20,20,20","20,20,20,20","10,10,10,10","20,20,20,20","0,0,0,0","20,20,20,20","1,1,0,0","25769,1469,6478,570","29.218248824700584,28.620491211625897,-5.820482574087443,18.08643133236112","8.669555382495961,-20.183806000011476,1.8419347904093577,5.455863720373333","4","0"
"1181","86","text","0","121","1888639","0-0","","","","","","","","","","","","","","","","","","","","","","","","","","","","","","","","","","","","",""
"","","plant-game","0","122","1923756","0-0","","200","180","4","WHEAT CROP","Left","200","190","8","NETTLE WEED","experimental","48","1,2,3,4,5,6,7,8","180,178.5679451856456,162.13471817372934,146.35513663209395,160,189.29943471137196,183.73759358779762,218.20180338815237","4,3,2,1,4,3,2,1","WHEAT CROP,WHEAT CROP,WHEAT CROP,WHEAT CROP,CORN CROP,CORN CROP,CORN CROP,CORN CROP","190,151.52305976107542,115.55019550668663,115.92692907260358,111.38215104985002,152.81772272900963,148.21602183108502,189.48943445167353","8,7,6,5,4,3,2,1","NETTLE WEED,NETTLE WEED,NETTLE WEED,NETTLE WEED,NETTLE WEED,NETTLE WEED,NETTLE WEED,NETTLE WEED","20,20,20,20,20,20,20,20","20,20,20,20,20,20,20,20","10,10,10,10,10,10,10,10","20,20,20,20,20,20,20,20","0,0,0,0,0,0,0,0","20,20,20,20,20,20,20,20","20,20,20,20,20,20,20,20","20,20,20,20,20,20,20,20","10,10,10,10,10,10,10,10","20,20,20,20,20,20,20,20","0,0,0,0,0,0,0,0","20,20,20,20,20,20,20,20","1,1,1,1,0,0,0,1","9117,714,881,1277,12952,574,662,1974","-1.432054814354387,-16.433227011916284,-15.779581541635386,-7.485363019502867,29.29943471137195,-5.56184112357435,34.46420980035476,11.312895270909337","-38.47694023892458,-35.972864254388774,0.3767335659169565,-4.544778022753556,41.43557167915961,-4.601700897924616,41.27341262058852,-3.90789663388635","0","0"
"13280","86","text","0","123","1937239","0-0","","","","","","","","","","","","","","","","","","","","","","","","","","","","","","","","","","","","",""
"","","plant-game","0","124","1949574","0-0","","200","120","2","CORN CROP","Left","200","180","2","NETTLE WEED","experimental","49","1,2","120,129.48521488362553","2,1","CORN CROP,CORN CROP","180,203.28351651926977","2,1","NETTLE WEED,NETTLE WEED","20,20","20,20","10,10","20,20","0,0","20,20","20,20","20,20","10,10","20,20","0,0","20,20","1,1","6792,1836","9.485214883625524,-2.7660409695895014","23.283516519269757,-23.054427340684235","0","0"
"1316","86","text","0","125","1950980","0-0","","","","","","","","","","","","","","","","","","","","","","","","","","","","","","","","","","","","",""
"","","plant-game","0","126","1969255","0-0","","200","120","1","WHEAT CROP","Right","200","180","4","NETTLE WEED","experimental","50","1,2,3,4","180,185.72141966139418,219.09867999525338,225.3075216333107","4,3,2,1","NETTLE WEED,NETTLE WEED,NETTLE WEED,NETTLE WEED","120,170,170.04713755774463,183.4308579881741","1,3,2,1","WHEAT CROP,CORN CROP,CORN CROP,CORN CROP","0,0,0,0","20,20,20,20","10,10,10,10","20,20,20,20","20,20,20,20","20,20,20,20","0,0,0,0","20,20,20,20","10,10,10,10","20,20,20,20","20,20,20,20","20,20,20,20","0,0,0,1","3606,3764,1338,1898","5.721419661394167,33.377260333859205,6.208841638057331,-7.79926986155807","-13.824265941116536,0.04713755774464471,13.383720430429467,12.861963690872665","0","0"
"713","86","text","0","127","1970098","0-0","","","","","","","","","","","","","","","","","","","","","","","","","","","","","","","","","","","","",""
"","","plant-game","0","128","2020413","0-0","","200","160","1","CORN CROP","Left","200","190","8","NETTLE WEED","experimental","51","1,2,3,4,5,6,7,8","160,130,145.46098258011202,131.83181522716916,122.49986061169436,145.28941603348142,116.11628958904977,85.85882352567958","1,7,6,5,4,3,2,1","CORN CROP,WHEAT CROP,WHEAT CROP,WHEAT CROP,WHEAT CROP,WHEAT CROP,WHEAT CROP,WHEAT CROP","190,169.33301351688203,167.31018131064405,172.2954204120569,147.3961733682339,142.5080081178036,137.20183974345133,127.13433091368893","8,7,6,5,4,3,2,1","NETTLE WEED,NETTLE WEED,NETTLE WEED,NETTLE WEED,NETTLE WEED,NETTLE WEED,NETTLE WEED,NETTLE WEED","20,20,20,20,20,20,20,20","20,20,20,20,20,20,20,20","10,10,10,10,10,10,10,10","20,20,20,20,20,20,20,20","0,0,0,0,0,0,0,0","20,20,20,20,20,20,20,20","20,20,20,20,20,20,20,20","20,20,20,20,20,20,20,20","10,10,10,10,10,10,10,10","20,20,20,20,20,20,20,20","0,0,0,0,0,0,0,0","20,20,20,20,20,20,20,20","1,1,1,1,1,1,1,1","13158,4281,583,809,609,605,657,609","-27.806567436326915,15.460982580112017,-13.629167352942865,-9.3319546154748,22.789555421787053,-29.173126444431645,-30.257466063370188,-4.311102611839227","-20.666986483117967,-2.0228322062379918,4.985239101412845,-24.899247043823003,-4.888165250430295,-5.306168374352257,-10.067508829762403,-4.9095915453943935","0","0"
"682","86","text","0","129","2021189","0-0","","","","","","","","","","","","","","","","","","","","","","","","","","","","","","","","","","","","",""
"","","plant-game","0","130","2035955","0-0","","200","120","1","CORN CROP","Right","200","120","2","NETTLE WEED","experimental","52","1,2","120,97.02605673062108","2,1","NETTLE WEED,NETTLE WEED","120,190","1,1","CORN CROP,WHEAT CROP","0,0","20,20","10,10","20,20","20,20","20,20","0,0","20,20","10,10","20,20","20,20","20,20","0,0","4611,2630","-22.973943269378925,-1.1629611716607977","12.396164274964113,-6.025215806670983","0","0"
"644","86","text","0","131","2036692","0-0","","","","","","","","","","","","","","","","","","","","","","","","","","","","","","","","","","","","",""
"","","plant-game","0","132","2044475","0-0","","200","120","1","CORN CROP","Left","200","190","1","NETTLE WEED","experimental","53","1","120","1","CORN CROP","190","1","NETTLE WEED","20","20","10","20","0","20","20","20","10","20","0","20","0","4274","8.125003518774767","20.036352003419186","0","0"
"1925","86","text","0","133","2046471","0-0","","","","","","","","","","","","","","","","","","","","","","","","","","","","","","","","","","","","",""
"","","plant-game","0","134","2068490","0-0","","200","180","8","CORN CROP","Left","200","190","2","NETTLE WEED","experimental","54","1,2,3,4,5,6,7,8","180,178.05105712569863,199.35279885840464,183.76544124995772,177.2178220160142,217.54639298043764,216.86122614226898,198.8926325341317","8,7,6,5,4,3,2,1","CORN CROP,CORN CROP,CORN CROP,CORN CROP,CORN CROP,CORN CROP,CORN CROP,CORN CROP","190,201.19065154954745,140,170.74250507287488,203.68149083947833,240.56609656756052,237.54929400199606,222.03554235346104","2,1,6,5,4,3,2,1","NETTLE WEED,NETTLE WEED,THISTLE WEED,THISTLE WEED,THISTLE WEED,THISTLE WEED,THISTLE WEED,THISTLE WEED","20,20,20,20,20,20,20,20","20,20,20,20,20,20,20,20","10,10,10,10,10,10,10,10","20,20,20,20,20,20,20,20","0,0,0,0,0,0,0,0","20,20,20,20,20,20,20,20","20,20,20,20,20,20,20,20","20,20,20,20,20,20,20,20","10,10,10,10,10,10,10,10","20,20,20,20,20,20,20,20","0,0,0,0,0,0,0,0","20,20,20,20,20,20,20,20","0,0,0,0,0,0,1,1","3091,1862,3269,1810,802,2089,1197,564","-1.9489428743013768,21.301741732705995,-15.587357608446915,-6.547619233943532,40.328570964423434,-0.6851668381686622,-17.96859360813727,-16.84821478461116","11.190651549547445,0.49912657258643023,30.74250507287488,32.938985766603444,36.8846057280822,-3.0168025655644684,-15.513751648535024,2.304581454385866","0","0"
"644","86","text","0","135","2069244","0-0","","","","","","","","","","","","","","","","","","","","","","","","","","","","","","","","","","","","",""
"","","plant-game","0","136","2094215","0-0","","200","120","8","CORN CROP","Right","200","180","4","NETTLE WEED","experimental","55","1,2,3,4,5,6,7,8","180,164.07284284837314,157.71392260403897,159.28637957093235,160,185.53991173727508,160.25946365336176,163.54084159813905","4,3,2,1,4,3,2,1","NETTLE WEED,NETTLE WEED,NETTLE WEED,NETTLE WEED,THISTLE WEED,THISTLE WEED,THISTLE WEED,THISTLE WEED","120,139.22929842123028,143.98592941792188,150.8498971204722,159.5222475926984,175.27717591520235,185.69351321709178,190.20430834029935","8,7,6,5,4,3,2,1","CORN CROP,CORN CROP,CORN CROP,CORN CROP,CORN CROP,CORN CROP,CORN CROP,CORN CROP","0,0,0,0,0,0,0,0","20,20,20,20,20,20,20,20","10,10,10,10,10,10,10,10","20,20,20,20,20,20,20,20","20,20,20,20,20,20,20,20","20,20,20,20,20,20,20,20","0,0,0,0,0,0,0,0","20,20,20,20,20,20,20,20","10,10,10,10,10,10,10,10","20,20,20,20,20,20,20,20","20,20,20,20,20,20,20,20","20,20,20,20,20,20,20,20","0,0,0,1,1,1,1,1","9937,531,1513,625,2948,418,445,492","-15.927157151626854,-6.3589202443341675,1.5724569668933914,35.11523380056041,25.53991173727507,-25.2804480839133,3.281377944777283,22.557315557623433","19.229298421230293,4.7566309966916,6.863967702550333,8.672350472226194,15.754928322503952,10.416337301889442,4.5107951232075685,7.209544761140235","0","0"
"646","86","text","0","137","2094954","0-0","","","","","","","","","","","","","","","","","","","","","","","","","","","","","","","","","","","","",""
"","","plant-game","0","138","2104900","0-0","","200","180","4","CORN CROP","Left","200","120","4","NETTLE WEED","experimental","56","1,2,3,4","180,183.54955064110922,250.51912561044682,231.68398849972314","4,3,2,1","CORN CROP,CORN CROP,CORN CROP,CORN CROP","120,143.47204208611848,128.7511763640961,131.04064810470862","4,3,2,1","NETTLE WEED,NETTLE WEED,NETTLE WEED,NETTLE WEED","20,20,20,20","20,20,20,20","10,10,10,10","20,20,20,20","0,0,0,0","20,20,20,20","20,20,20,20","20,20,20,20","10,10,10,10","20,20,20,20","0,0,0,0","20,20,20,20","0,0,1,1","3713,449,1595,465","3.5495506411092173,66.9695749693376,-18.835137110723675,18.16728930072831","23.47204208611849,-14.720865722022374,2.2894717406125276,11.573465091459356","0","0"
"686","86","text","0","139","2105686","0-0","","","","","","","","","","","","","","","","","","","","","","","","","","","","","","","","","","","","",""
"","","plant-game","0","140","2128822","0-0","","200","180","8","WHEAT CROP","Left","200","160","1","THISTLE WEED","experimental","57","1,2,3,4,5,6,7,8","180,187.63887073508334,211.12236092877453,181.0672741152571,217.00234526318886,207.8898392530793,247.75490319354728,250.74625470582382","8,7,6,5,4,3,2,1","WHEAT CROP,WHEAT CROP,WHEAT CROP,WHEAT CROP,WHEAT CROP,WHEAT CROP,WHEAT CROP,WHEAT CROP","160,130,167.27432506876815,222.75799687125752,219.8348017472302,231.53952364166219,254.80605998267004,234.92003274650926","1,7,6,5,4,3,2,1","THISTLE WEED,NETTLE WEED,NETTLE WEED,NETTLE WEED,NETTLE WEED,NETTLE WEED,NETTLE WEED,NETTLE WEED","20,20,20,20,20,20,20,20","20,20,20,20,20,20,20,20","10,10,10,10,10,10,10,10","20,20,20,20,20,20,20,20","0,0,0,0,0,0,0,0","20,20,20,20,20,20,20,20","20,20,20,20,20,20,20,20","20,20,20,20,20,20,20,20","10,10,10,10,10,10,10,10","20,20,20,20,20,20,20,20","0,0,0,0,0,0,0,0","20,20,20,20,20,20,20,20","0,0,1,1,1,0,0,0","3231,2894,1217,1243,3904,1512,827,487","7.638870735083357,23.48349019369119,-30.055086813517413,35.93507114793175,-9.112506010109563,39.86506394046799,2.9913515122765446,-1.5301142525223383","29.979256396177657,37.27432506876816,55.48367180248937,-2.9231951240273224,11.704721894432007,23.266536341007864,-19.88602723616077,-7.867895989584504","0","0"
"549","86","text","0","141","2129461","0-0","","","","","","","","","","","","","","","","","","","","","","","","","","","","","","","","","","","","",""
"","","plant-game","0","142","2172971","0-0","","200","190","2","CORN CROP","Right","200","160","8","THISTLE WEED","experimental","58","1,2,3,4,5,6,7,8","160,202.07425677695937,233.80758266284278,268.9614380422547,290.32122829010774,287.5530725637937,307.6128387268703,311.6128822649321","8,7,6,5,4,3,2,1","THISTLE WEED,THISTLE WEED,THISTLE WEED,THISTLE WEED,THISTLE WEED,THISTLE WEED,THISTLE WEED,THISTLE WEED","190,179.61346997213414,140,183.18752891110856,193.14942587061154,214.4914096740612,225.8862429503063,268.18461014671215","2,1,6,5,4,3,2,1","CORN CROP,CORN CROP,WHEAT CROP,WHEAT CROP,WHEAT CROP,WHEAT CROP,WHEAT CROP,WHEAT CROP","0,0,0,0,0,0,0,0","20,20,20,20,20,20,20,20","10,10,10,10,10,10,10,10","20,20,20,20,20,20,20,20","20,20,20,20,20,20,20,20","20,20,20,20,20,20,20,20","0,0,0,0,0,0,0,0","20,20,20,20,20,20,20,20","10,10,10,10,10,10,10,10","20,20,20,20,20,20,20,20","20,20,20,20,20,20,20,20","20,20,20,20,20,20,20,20","1,1,1,1,1,1,1,1","26004,1083,7418,446,439,800,541,498","42.07425677695937,31.733325885883403,35.15385537941194,21.359790247853034,-2.7681557263140206,20.05976616307657,4.000043538061824,39.705693368211776","-10.38653002786587,17.829347984959416,43.18752891110856,9.961896959502983,21.341983803449665,11.394833276245093,42.298367196405856,29.522740713018106","0","0"
"1081","86","text","0","143","2174152","0-0","","","","","","","","","","","","","","","","","","","","","","","","","","","","","","","","","","","","",""
"","","plant-game","0","144","2194118","0-0","","200","180","8","CORN CROP","Right","200","180","4","THISTLE WEED","experimental","59","1,2,3,4,5,6,7,8","180,213.31089044767086,221.84863853304097,243.9024628245936,160,116.43237761211846,88.83895309105417,98.86104834803237","4,3,2,1,4,3,2,1","THISTLE WEED,THISTLE WEED,THISTLE WEED,THISTLE WEED,NETTLE WEED,NETTLE WEED,NETTLE WEED,NETTLE WEED","180,240.02998415248516,295.87700559218797,295.123999251551,320.63664884401874,312.63726288802343,262.6065387894312,290.5888254362468","8,7,6,5,4,3,2,1","CORN CROP,CORN CROP,CORN CROP,CORN CROP,CORN CROP,CORN CROP,CORN CROP,CORN CROP","0,0,0,0,0,0,0,0","20,20,20,20,20,20,20,20","10,10,10,10,10,10,10,10","20,20,20,20,20,20,20,20","20,20,20,20,20,20,20,20","20,20,20,20,20,20,20,20","0,0,0,0,0,0,0,0","20,20,20,20,20,20,20,20","10,10,10,10,10,10,10,10","20,20,20,20,20,20,20,20","20,20,20,20,20,20,20,20","20,20,20,20,20,20,20,20","1,1,1,1,0,0,0,0","2969,1082,556,585,6551,513,556,562","33.310890447670864,8.537748085370113,22.053824291552633,16.475932906029794,-43.56762238788154,-27.593424521064293,10.022095256978197,-7.1051402641894175","60.02998415248514,55.84702143970281,-0.7530063406369365,25.51264959246768,-7.9993859559952885,-50.03072409859218,27.982286646815574,-38.81656338090157","0","0"
"706","86","text","0","145","2194904","0-0","","","","","","","","","","","","","","","","","","","","","","","","","","","","","","","","","","","","",""
"","","plant-game","0","146","2207446","0-0","","200","120","1","WHEAT CROP","Left","200","190","2","NETTLE WEED","experimental","60","1,2","120,190","1,1","WHEAT CROP,CORN CROP","190,169.7920617223316","2,1","NETTLE WEED,NETTLE WEED","20,20","20,20","10,10","20,20","0,0","20,20","20,20","20,20","10,10","20,20","0,0","20,20","1,0","3058,2507","-3.015530564637197,18.793028839752953","-20.20793827766841,26.8679920945757","0","0"
"538","86","text","0","147","2208076","0-0","","","","","","","","","","","","","","","","","","","","","","","","","","","","","","","","","","","","",""
"","","plant-game","0","148","2221218","0-0","","200","120","4","CORN CROP","Right","200","190","2","NETTLE WEED","experimental","61","1,2,3,4","190,187.46648066239874,180,145.3754532732429","2,1,2,1","NETTLE WEED,NETTLE WEED,THISTLE WEED,THISTLE WEED","120,118.92850323575887,116.3753440399584,111.81013204759586","4,3,2,1","CORN CROP,CORN CROP,CORN CROP,CORN CROP","0,0,0,0","20,20,20,20","10,10,10,10","20,20,20,20","20,20,20,20","20,20,20,20","0,0,0,0","20,20,20,20","10,10,10,10","20,20,20,20","20,20,20,20","20,20,20,20","0,0,0,0","2907,553,2846,548","-2.5335193376012666,-5.913601999564867,-34.6245467267571,5.390640321624373","-1.071496764241133,-2.553159195800461,-4.565211992362547,-42.822056756604766","0","0"
"766","86","text","0","149","2222062","0-0","","","","","","","","","","","","","","","","","","","","","","","","","","","","","","","","","","","","",""
"","","plant-game","0","150","2237717","0-0","","200","160","2","WHEAT CROP","Left","200","190","4","THISTLE WEED","experimental","62","1,2,3,4","160,196.1226297830924,180,181.75268139581394","2,1,2,1","WHEAT CROP,WHEAT CROP,CORN CROP,CORN CROP","190,241.70418076742175,262.1375068731384,273.1357803034002","4,3,2,1","THISTLE WEED,THISTLE WEED,THISTLE WEED,THISTLE WEED","20,20,20,20","20,20,20,20","10,10,10,10","20,20,20,20","0,0,0,0","20,20,20,20","20,20,20,20","20,20,20,20","10,10,10,10","20,20,20,20","0,0,0,0","20,20,20,20","0,0,0,0","3181,1079,3959,590","36.122629783092414,43.04406059940628,1.75268139581393,19.931194821293758","51.70418076742174,20.43332610571665,10.998273430261822,20.80183379975348","0","0"
"874","86","text","0","151","2238693","0-0","","","","","","","","","","","","","","","","","","","","","","","","","","","","","","","","","","","","",""
"","","plant-game","0","152","2255900","0-0","","200","180","8","CORN CROP","Left","200","120","2","NETTLE WEED","experimental","63","1,2,3,4,5,6,7,8","180,212.03781694201314,194.09315837282452,216.7230438810272,225.1976856118491,211.6413752724732,257.11827505978226,269.20802244323403","8,7,6,5,4,3,2,1","CORN CROP,CORN CROP,CORN CROP,CORN CROP,CORN CROP,CORN CROP,CORN CROP,CORN CROP","120,117.30030377078256,140,177.83996489843963,213.54532171294096,216.89058118736895,202.76318959660554,198.4748296411582","2,1,6,5,4,3,2,1","NETTLE WEED,NETTLE WEED,THISTLE WEED,THISTLE WEED,THISTLE WEED,THISTLE WEED,THISTLE WEED,THISTLE WEED","20,20,20,20,20,20,20,20","20,20,20,20,20,20,20,20","10,10,10,10,10,10,10,10","20,20,20,20,20,20,20,20","0,0,0,0,0,0,0,0","20,20,20,20,20,20,20,20","20,20,20,20,20,20,20,20","20,20,20,20,20,20,20,20","10,10,10,10,10,10,10,10","20,20,20,20,20,20,20,20","0,0,0,0,0,0,0,0","20,20,20,20,20,20,20,20","0,1,0,1,1,1,1,1","2197,1300,1419,1131,1164,590,538,510","32.03781694201315,-17.944658569188615,22.62988550820267,8.474641730821896,-13.556310339375909,45.47689978730905,12.089747383451744,1.759979915688953","-2.6996962292174445,5.8996341968128245,37.83996489843962,35.70535681450134,3.3452594744279986,-14.12739159076342,-4.28835995544733,41.87334357604037","0","0"
"646","86","text","0","153","2256629","0-0","","","","","","","","","","","","","","","","","","","","","","","","","","","","","","","","","","","","",""
"","","plant-game","0","154","2268303","0-0","","200","180","4","CORN CROP","Right","200","180","2","THISTLE WEED","experimental","64","1,2,3,4","180,226.13869529803716,180,185.5725353420843","2,1,2,1","THISTLE WEED,THISTLE WEED,NETTLE WEED,NETTLE WEED","180,194.78924585519658,182.30564545598676,207.36757691474403","4,3,2,1","CORN CROP,CORN CROP,CORN CROP,CORN CROP","0,0,0,0","20,20,20,20","10,10,10,10","20,20,20,20","20,20,20,20","20,20,20,20","0,0,0,0","20,20,20,20","10,10,10,10","20,20,20,20","20,20,20,20","20,20,20,20","1,1,1,1","3168,895,912,524","46.138695298037156,17.982660902359356,5.572535342084304,-0.509367837865998","14.789245855196576,-12.48360039920982,25.061931458757282,14.2182014216177","0","0"
"7173","86","text","0","155","2275616","0-0","","","","","","","","","","","","","","","","","","","","","","","","","","","","","","","","","","","","",""
"","","plant-game","0","156","2289963","0-0","","200","180","4","CORN CROP","Left","200","190","4","THISTLE WEED","experimental","65","1,2,3,4","180,162.11067375385477,145.11048544933965,163.0597363732525","4,3,2,1","CORN CROP,CORN CROP,CORN CROP,CORN CROP","190,230.80655525744697,228.85702924478917,259.7971354658186","4,3,2,1","THISTLE WEED,THISTLE WEED,THISTLE WEED,THISTLE WEED","20,20,20,20","20,20,20,20","10,10,10,10","20,20,20,20","0,0,0,0","20,20,20,20","20,20,20,20","20,20,20,20","10,10,10,10","20,20,20,20","0,0,0,0","20,20,20,20","0,0,0,0","2572,643,590,517","-17.88932624614523,-17.000188304515113,17.94925092391284,11.696871293476342","40.80655525744697,-1.9495260126577918,30.940106221029414,31.242758393792855","0","0"
"678","86","text","0","157","2290771","0-0","","","","","","","","","","","","","","","","","","","","","","","","","","","","","","","","","","","","",""
"","","plant-game","0","158","2295571","0-0","","200","180","2","WHEAT CROP","Left","200","160","2","NETTLE WEED","experimental","66","1,2","180,187.21919572428632","2,1","WHEAT CROP,WHEAT CROP","160,199.48737692429575","2,1","NETTLE WEED,NETTLE WEED","20,20","20,20","10,10","20,20","0,0","20,20","20,20","20,20","10,10","20,20","0,0","20,20","0,1","1062,264","7.219195724286331,-5.665257857242413","39.48737692429576,6.6117384628634674","0","0"
"1135","86","text","0","159","2296875","0-0","","","","","","","","","","","","","","","","","","","","","","","","","","","","","","","","","","","","",""
"","","plant-game","0","160","2306818","0-0","","200","190","8","CORN CROP","Left","200","120","4","NETTLE WEED","experimental","67","1,2,3,4,5,6,7,8","190,206.69341552613963,192.8638235948731,197.73689587900753,204.98260974740063,212.27128662780837,212.64153856895064,253.53719778168016","8,7,6,5,4,3,2,1","CORN CROP,CORN CROP,CORN CROP,CORN CROP,CORN CROP,CORN CROP,CORN CROP,CORN CROP","120,114.90496884073607,78.59435208091486,125.54428094310421,160,186.08834973573656,199.40651979360516,197.92605324641096","4,3,2,1,4,3,2,1","NETTLE WEED,NETTLE WEED,NETTLE WEED,NETTLE WEED,THISTLE WEED,THISTLE WEED,THISTLE WEED,THISTLE WEED","20,20,20,20,20,20,20,20","20,20,20,20,20,20,20,20","10,10,10,10,10,10,10,10","20,20,20,20,20,20,20,20","0,0,0,0,0,0,0,0","20,20,20,20,20,20,20,20","20,20,20,20,20,20,20,20","20,20,20,20,20,20,20,20","10,10,10,10,10,10,10,10","20,20,20,20,20,20,20,20","0,0,0,0,0,0,0,0","20,20,20,20,20,20,20,20","0,1,0,1,0,1,0,0","579,175,184,101,1144,12,0,163","16.693415526139624,-13.829591931266519,4.87307228413443,7.2457138683930875,7.288676880407742,0.37025194114226523,40.89565921272952,8.134433350576032","-5.095031159263918,-36.310616759821215,46.94992886218935,-1.2684819204546711,26.088349735736564,13.31817005786859,-1.4804665471941973,8.512959715484046","0","0"
"1241","86","text","0","161","2308201","0-0","","","","","","","","","","","","","","","","","","","","","","","","","","","","","","","","","","","","",""
"","","plant-game","0","162","2312096","0-0","","200","190","2","CORN CROP","Left","200","180","2","THISTLE WEED","experimental","68","1,2","190,165.25894091348871","2,1","CORN CROP,CORN CROP","180,175.21342833267335","2,1","THISTLE WEED,THISTLE WEED","20,20","20,20","10,10","20,20","0,0","20,20","20,20","20,20","10,10","20,20","0,0","20,20","0,1","601,35","-24.741059086511292,-15.09214475741923","-4.7865716673266405,-22.864528335442284","0","0"
"1180","86","text","0","163","2313436","0-0","","","","","","","","","","","","","","","","","","","","","","","","","","","","","","","","","","","","",""
"","","plant-game","0","164","2322023","0-0","","200","160","1","WHEAT CROP","Right","200","120","2","THISTLE WEED","experimental","69","1,2","120,115.72499854524628","2,1","THISTLE WEED,THISTLE WEED","160,190","1,1","WHEAT CROP,CORN CROP","0,0","20,20","10,10","20,20","20,20","20,20","0,0","20,20","10,10","20,20","20,20","20,20","0,1","572,2585","-4.275001454753721,39.01024111953561","-21.82701494312355,37.7225477890004","0","0"
"779","86","text","0","165","2322952","0-0","","","","","","","","","","","","","","","","","","","","","","","","","","","","","","","","","","","","",""
"","","plant-game","0","166","2335053","0-0","","200","180","8","CORN CROP","Left","200","190","8","NETTLE WEED","experimental","70","1,2,3,4,5,6,7,8","180,191.09261716052504,163.03723116382486,163.58813713713226,139.2281747021324,138.90034399301288,136.97786060080804,115.1757057992773","8,7,6,5,4,3,2,1","CORN CROP,CORN CROP,CORN CROP,CORN CROP,CORN CROP,CORN CROP,CORN CROP,CORN CROP","190,185.07754953516795,168.56374644017458,158.26898802114178,155.23556726529614,128.07762254049047,124.41102965669937,128.66116137470374","8,7,6,5,4,3,2,1","NETTLE WEED,NETTLE WEED,NETTLE WEED,NETTLE WEED,NETTLE WEED,NETTLE WEED,NETTLE WEED,NETTLE WEED","20,20,20,20,20,20,20,20","20,20,20,20,20,20,20,20","10,10,10,10,10,10,10,10","20,20,20,20,20,20,20,20","0,0,0,0,0,0,0,0","20,20,20,20,20,20,20,20","20,20,20,20,20,20,20,20","20,20,20,20,20,20,20,20","10,10,10,10,10,10,10,10","20,20,20,20,20,20,20,20","0,0,0,0,0,0,0,0","20,20,20,20,20,20,20,20","1,1,1,1,1,1,1,1","5290,234,351,518,436,304,254,240","11.092617160525041,-28.055385996700167,0.5509059733074182,-24.359962434999858,-0.3278307091195288,-1.9224833922048399,-21.802154801530747,-26.860863598625436","-4.922450464832042,-16.513803094993364,-10.29475841903279,-3.033420755845635,-27.157944724805667,-3.6665928837911026,4.250131718004369,29.815637032826206","0","0"
"717","86","text","0","167","2335890","0-0","","","","","","","","","","","","","","","","","","","","","","","","","","","","","","","","","","","","",""
"","","plant-game","0","168","2350336","0-0","","200","160","8","CORN CROP","Right","200","190","2","THISTLE WEED","experimental","71","1,2,3,4,5,6,7,8","190,230.85978032273047,140,154.86135600647086,136.766311782571,161.37642045110067,151.15126261379967,122.393983365752","2,1,6,5,4,3,2,1","THISTLE WEED,THISTLE WEED,NETTLE WEED,NETTLE WEED,NETTLE WEED,NETTLE WEED,NETTLE WEED,NETTLE WEED","160,149.67084958188963,140.45780905463315,163.77819288110894,184.35395076103904,177.89252865072157,165.50932381261958,187.74743072240045","8,7,6,5,4,3,2,1","CORN CROP,CORN CROP,CORN CROP,CORN CROP,CORN CROP,CORN CROP,CORN CROP,CORN CROP","0,0,0,0,0,0,0,0","20,20,20,20,20,20,20,20","10,10,10,10,10,10,10,10","20,20,20,20,20,20,20,20","20,20,20,20,20,20,20,20","20,20,20,20,20,20,20,20","0,0,0,0,0,0,0,0","20,20,20,20,20,20,20,20","10,10,10,10,10,10,10,10","20,20,20,20,20,20,20,20","20,20,20,20,20,20,20,20","20,20,20,20,20,20,20,20","1,1,1,1,1,1,1,1","4982,272,796,345,446,475,710,511","40.85978032273047,2.969249585493124,14.86135600647086,-18.095044223899862,24.61010866852969,-10.22515783730099,-28.757279248047674,24.37165961360305","-10.329150418110377,-9.213040527256485,23.32038382647579,20.575757879930105,-6.461422110317482,-12.383204838101989,22.238106909780853,33.44408229689772","0","0"
"622","86","text","0","169","2351048","0-0","","","","","","","","","","","","","","","","","","","","","","","","","","","","","","","","","","","","",""
"","","plant-game","0","170","2374122","0-0","","200","180","2","WHEAT CROP","Left","200","160","8","NETTLE WEED","experimental","72","1,2,3,4,5,6,7,8","180,206.58024909067348,140,145.0989767079605,127.82864861555284,120.93206836668979,160.71193917999847,131.09931470359822","2,1,6,5,4,3,2,1","WHEAT CROP,WHEAT CROP,CORN CROP,CORN CROP,CORN CROP,CORN CROP,CORN CROP,CORN CROP","160,156.6532821171552,150.27599534514587,160.61408144291565,179.57720799640728,202.348234193135,197.09411141169565,151.09851965119745","8,7,6,5,4,3,2,1","NETTLE WEED,NETTLE WEED,NETTLE WEED,NETTLE WEED,NETTLE WEED,NETTLE WEED,NETTLE WEED,NETTLE WEED","20,20,20,20,20,20,20,20","20,20,20,20,20,20,20,20","10,10,10,10,10,10,10,10","20,20,20,20,20,20,20,20","0,0,0,0,0,0,0,0","20,20,20,20,20,20,20,20","20,20,20,20,20,20,20,20","20,20,20,20,20,20,20,20","10,10,10,10,10,10,10,10","20,20,20,20,20,20,20,20","0,0,0,0,0,0,0,0","20,20,20,20,20,20,20,20","0,0,1,1,1,1,1,1","7455,709,6639,424,417,513,638,610","26.580249090673487,28.35081869904797,5.098976707960489,-17.27032809240767,-6.896580248863042,39.77987081330867,-29.612624476400235,-32.233026352476564","-3.3467178828448105,-6.377286772009299,10.338086097769786,18.963126553491627,22.77102619672773,-5.254122781439355,-45.9955917604982,16.316336003670923","0","0"
"555","86","text","0","171","2374767","0-0","","","","","","","","","","","","","","","","","","","","","","","","","","","","","","","","","","","","",""
"","","plant-game","0","172","2386304","0-0","","200","160","8","CORN CROP","Right","200","120","8","THISTLE WEED","experimental","73","1,2,3,4,5,6,7,8","120,147.23753079994538,160.4221603403863,193.92086082567076,176.89263076623266,200.51109559671622,185.84607373110848,186.14717239752872","8,7,6,5,4,3,2,1","THISTLE WEED,THISTLE WEED,THISTLE WEED,THISTLE WEED,THISTLE WEED,THISTLE WEED,THISTLE WEED,THISTLE WEED","160,160.1080558109614,166.4759649423664,209.40001813080787,200.42490811327002,211.68431662574105,220.66840307986882,232.00992591990652","8,7,6,5,4,3,2,1","CORN CROP,CORN CROP,CORN CROP,CORN CROP,CORN CROP,CORN CROP,CORN CROP,CORN CROP","0,0,0,0,0,0,0,0","20,20,20,20,20,20,20,20","10,10,10,10,10,10,10,10","20,20,20,20,20,20,20,20","20,20,20,20,20,20,20,20","20,20,20,20,20,20,20,20","0,0,0,0,0,0,0,0","20,20,20,20,20,20,20,20","10,10,10,10,10,10,10,10","20,20,20,20,20,20,20,20","20,20,20,20,20,20,20,20","20,20,20,20,20,20,20,20","1,1,1,0,0,0,0,0","2309,473,938,1605,526,750,572,713","27.23753079994536,13.184629540440923,33.498700485284445,-17.028230059438094,23.61846483048356,-14.66502186560773,0.30109866642025523,-9.760000189283414","0.10805581096138539,6.367909131405021,42.92405318844146,-8.975110017537842,11.259408512471037,8.984086454127787,11.341522840037701,-12.988238254628046","0","0"
"238","86","text","0","173","2386622","0-0","","","","","","","","","","","","","","","","","","","","","","","","","","","","","","","","","","","","",""
"","","plant-game","0","174","2398885","0-0","","200","160","4","CORN CROP","Right","200","120","2","NETTLE WEED","experimental","74","1,2,3,4","120,105.9396078020124,180,202.11641156798026","2,1,2,1","NETTLE WEED,NETTLE WEED,THISTLE WEED,THISTLE WEED","160,209.24873431104936,224.48693722986764,209.22970475925968","4,3,2,1","CORN CROP,CORN CROP,CORN CROP,CORN CROP","0,0,0,0","20,20,20,20","10,10,10,10","20,20,20,20","20,20,20,20","20,20,20,20","0,0,0,0","20,20,20,20","10,10,10,10","20,20,20,20","20,20,20,20","20,20,20,20","1,1,0,0","2180,694,1938,833","-14.060392197987596,-3.608914228825874,22.116411567980265,-7.893487202490716","49.24873431104935,15.238202918818276,-15.257232470607958,-5.811697512740047","0","0"
"533","86","text","0","175","2399498","0-0","","","","","","","","","","","","","","","","","","","","","","","","","","","","","","","","","","","","",""
"","","plant-game","0","176","2415035","0-0","","200","120","4","WHEAT CROP","Left","200","180","8","NETTLE WEED","experimental","75","1,2,3,4,5,6,7,8","120,111.38753633099503,87.03854540045415,87.96052971415506,160,136.22648688997157,137.24612949234236,134.5086425227094","4,3,2,1,4,3,2,1","WHEAT CROP,WHEAT CROP,WHEAT CROP,WHEAT CROP,CORN CROP,CORN CROP,CORN CROP,CORN CROP","180,131.15050707696,160.6826600111661,173.398495972144,204.63117326142833,211.4221259382549,189.97477654653136,182.23426121351343","8,7,6,5,4,3,2,1","NETTLE WEED,NETTLE WEED,NETTLE WEED,NETTLE WEED,NETTLE WEED,NETTLE WEED,NETTLE WEED,NETTLE WEED","20,20,20,20,20,20,20,20","20,20,20,20,20,20,20,20","10,10,10,10,10,10,10,10","20,20,20,20,20,20,20,20","0,0,0,0,0,0,0,0","20,20,20,20,20,20,20,20","20,20,20,20,20,20,20,20","20,20,20,20,20,20,20,20","10,10,10,10,10,10,10,10","20,20,20,20,20,20,20,20","0,0,0,0,0,0,0,0","20,20,20,20,20,20,20,20","1,1,1,1,1,1,1,1","3422,779,452,434,1223,556,1527,962","-8.61246366900497,-24.348990930540886,0.9219843137008996,-11.063514205064848,-23.773513110028436,1.019642602370804,-2.7374869696329682,-29.830553207206407","-48.849492923039996,29.532152934206096,12.71583596097791,31.232677289284325,6.790952676826564,-21.447349391723538,-7.740515333017938,-6.044423396650547","0","0"
"199","86","text","0","177","2415304","0-0","","","","","","","","","","","","","","","","","","","","","","","","","","","","","","","","","","","","",""
"","","plant-game","0","178","2431895","0-0","","200","190","4","WHEAT CROP","Right","200","180","1","THISTLE WEED","experimental","76","1,2,3,4","180,170,156.4342597684144,178.94082300482634","1,3,2,1","THISTLE WEED,NETTLE WEED,NETTLE WEED,NETTLE WEED","190,220.09930932354638,245.84629725998886,278.3194599741762","4,3,2,1","WHEAT CROP,WHEAT CROP,WHEAT CROP,WHEAT CROP","0,0,0,0","20,20,20,20","10,10,10,10","20,20,20,20","20,20,20,20","20,20,20,20","0,0,0,0","20,20,20,20","10,10,10,10","20,20,20,20","20,20,20,20","20,20,20,20","1,0,0,0","5467,3963,370,499","17.518050564227252,-13.565740231585615,22.506563236411942,25.191527855421903","30.099309323546393,25.74698793644248,32.47316271418734,11.532975730285283","0","0"
"1241","86","text","0","179","2433232","0-0","","","","","","","","","","","","","","","","","","","","","","","","","","","","","","","","","","","","",""
"","","plant-game","0","180","2445275","0-0","","200","120","1","CORN CROP","Left","200","180","1","NETTLE WEED","experimental","77","1","120","1","CORN CROP","180","1","NETTLE WEED","20","20","10","20","0","20","20","20","10","20","0","20","1","8723","-1.2420955550456387","30.290819827521474","0","0"
"571","86","text","0","181","2445956","0-0","","","","","","","","","","","","","","","","","","","","","","","","","","","","","","","","","","","","",""
"","","plant-game","0","182","2471531","0-0","","200","190","4","WHEAT CROP","Right","200","180","4","NETTLE WEED","experimental","78","1,2,3,4","180,215.60052393069844,251.26850406707183,244.8785372888633","4,3,2,1","NETTLE WEED,NETTLE WEED,NETTLE WEED,NETTLE WEED","190,192.41045748523274,224.01108118768545,241.25338194427468","4,3,2,1","WHEAT CROP,WHEAT CROP,WHEAT CROP,WHEAT CROP","0,0,0,0","20,20,20,20","10,10,10,10","20,20,20,20","20,20,20,20","20,20,20,20","0,0,0,0","20,20,20,20","10,10,10,10","20,20,20,20","20,20,20,20","20,20,20,20","1,1,1,1","19551,783,739,664","35.60052393069846,35.66798013637337,-6.389966778208517,22.602307615136336","2.4104574852327403,31.6006237024527,17.242300756589216,30.353983010115897","0","0"
"628","86","text","0","183","2472239","0-0","","","","","","","","","","","","","","","","","","","","","","","","","","","","","","","","","","","","",""
"","","plant-game","0","184","2489190","0-0","","200","180","4","WHEAT CROP","Left","200","160","1","THISTLE WEED","experimental","79","1,2,3,4","180,220.81570646164906,211.30028713948576,160.0317338774466","4,3,2,1","WHEAT CROP,WHEAT CROP,WHEAT CROP,WHEAT CROP","160,170,190.46284640105443,176.19888066598193","1,3,2,1","THISTLE WEED,NETTLE WEED,NETTLE WEED,NETTLE WEED","20,20,20,20","20,20,20,20","10,10,10,10","20,20,20,20","0,0,0,0","20,20,20,20","20,20,20,20","20,20,20,20","10,10,10,10","20,20,20,20","0,0,0,0","20,20,20,20","0,1,1,1","3163,6165,1014,524","40.81570646164905,-9.51541932216329,-51.268553262039156,-11.096360119569116","54.81218452669927,20.462846401054446,-14.26396573507251,3.1418595050339153","0","0"
"485","86","text","0","185","2489745","0-0","","","","","","","","","","","","","","","","","","","","","","","","","","","","","","","","","","","","",""
"","","plant-game","0","186","2503348","0-0","","200","190","4","CORN CROP","Left","200","180","2","NETTLE WEED","experimental","80","1,2,3,4","190,224.65104508783435,261.82340807048666,287.19296252970724","4,3,2,1","CORN CROP,CORN CROP,CORN CROP,CORN CROP","180,167.26497709843227,180,173.95547990637945","2,1,2,1","NETTLE WEED,NETTLE WEED,THISTLE WEED,THISTLE WEED","20,20,20,20","20,20,20,20","10,10,10,10","20,20,20,20","0,0,0,0","20,20,20,20","20,20,20,20","20,20,20,20","10,10,10,10","20,20,20,20","0,0,0,0","20,20,20,20","0,1,1,1","2784,1425,2781,853","34.65104508783434,37.172362982652295,25.369554459220574,33.6466928965645","-12.735022901567746,4.518283783708411,-6.044520093620554,24.65889256779533","0","0"
"6633","86","text","0","187","2510051","0-0","","","","","","","","","","","","","","","","","","","","","","","","","","","","","","","","","","","","",""
