"rt","key_press","trial_type","trial_index","trial_index_global","time_elapsed","internal_chunk_id","responses","experimental_goal_height","experimental_start_height","experimental_weeks_total","experimental_crop_type","experimental_crop_side","fixed_goal_height","fixed_start_height","fixed_weeks_total","fixed_crop_type","trial_kind","trial_number","stage","left_current_height","left_weeks_remaining","left_crop_type","right_current_height","right_weeks_remaining","right_crop_type","mean_left_growth_given_left","sd_left_growth_given_left","mean_left_growth_given_middle","sd_left_growth_given_middle","mean_left_growth_given_right","sd_left_growth_given_right","mean_right_growth_given_left","sd_right_growth_given_left","mean_right_growth_given_middle","sd_right_growth_given_middle","mean_right_growth_given_right","sd_right_growth_given_right","response","response_time","left_growth","right_growth","other_key_pressed","mouse_clicked"
"4031889","87","text","0","0","4031983","0-0","","","","","","","","","","","","","","","","","","","","","","","","","","","","","","","","","","","","",""
"12494","","survey-text","0","1","4045488","0-0","{""Q0"":""42""}","","","","","","","","","","","","","","","","","","","","","","","","","","","","","","","","","","","",""
"3360","86","text","0","2","3500","0-0","","","","","","","","","","","","","","","","","","","","","","","","","","","","","","","","","","","","",""
"","","plant-game","0","3","179332","0-0","","200","120","8","WHEAT CROP","Right","200","120","8","THISTLE WEED","practice","1","1,2,3,4,5,6,7,8","120,145.6116304147765,142.13215973628772,192.80180297051564,225.9012827244128,240.3983290178587,225.56151731035553,244.17193575561834","8,7,6,5,4,3,2,1","THISTLE WEED,THISTLE WEED,THISTLE WEED,THISTLE WEED,THISTLE WEED,THISTLE WEED,THISTLE WEED,THISTLE WEED","120,163.413511831944,177.5093883456098,206.68582676846586,210.31650415081728,226.7609895209383,223.19721487648346,254.29816251887428","8,7,6,5,4,3,2,1","WHEAT CROP,WHEAT CROP,WHEAT CROP,WHEAT CROP,WHEAT CROP,WHEAT CROP,WHEAT CROP,WHEAT CROP","0,0,0,0,0,0,0,0","20,20,20,20,20,20,20,20","10,10,10,10,10,10,10,10","20,20,20,20,20,20,20,20","20,20,20,20,20,20,20,20","20,20,20,20,20,20,20,20","0,0,0,0,0,0,0,0","20,20,20,20,20,20,20,20","10,10,10,10,10,10,10,10","20,20,20,20,20,20,20,20","20,20,20,20,20,20,20,20","20,20,20,20,20,20,20,20","1,1,1,1,1,1,1,1","117245,5410,639,8345,4822,1147,890,1826","25.611630414776492,-3.4794706784887772,50.66964323422793,33.09947975389716,14.497046293445933,-14.836811707503195,18.610418445262795,11.311328456008667","43.41351183194398,14.095876513665802,29.176438422856044,3.630677382351415,16.444485370121015,-3.5637746444548313,31.100947642390835,-8.960049400514155","0","32"
"1109","86","text","0","4","180613","0-0","","","","","","","","","","","","","","","","","","","","","","","","","","","","","","","","","","","","",""
"","","plant-game","0","5","211561","0-0","","200","160","4","CORN CROP","Left","200","160","4","THISTLE WEED","practice","2","1,2,3,4","160,158.01954605245814,180.14172186676433,206.50619067759322","4,3,2,1","CORN CROP,CORN CROP,CORN CROP,CORN CROP","160,158.49675142345464,152.3115082868376,103.90065856013364","4,3,2,1","THISTLE WEED,THISTLE WEED,THISTLE WEED,THISTLE WEED","20,20,20,20","20,20,20,20","10,10,10,10","20,20,20,20","0,0,0,0","20,20,20,20","20,20,20,20","20,20,20,20","10,10,10,10","20,20,20,20","0,0,0,0","20,20,20,20","1,1,1,1","3287,1185,728,6361","-1.9804539475418639,22.12217581430618,26.36446881082891,22.56532518230085","-1.5032485765453525,-6.185243136617037,-48.41084972670397,-37.74949895607059","0","0"
"1030","86","text","0","6","212751","0-0","","","","","","","","","","","","","","","","","","","","","","","","","","","","","","","","","","","","",""
"","","plant-game","0","7","242153","0-0","","200","180","2","CORN CROP","Left","200","180","2","THISTLE WEED","practice","3","1,2","180,179.50607683724908","2,1","CORN CROP,CORN CROP","180,160.03175886914883","2,1","THISTLE WEED,THISTLE WEED","20,20","20,20","10,10","20,20","0,0","20,20","20,20","20,20","10,10","20,20","0,0","20,20","1,1","9886,818","-0.4939231627509208,12.742751697543682","-19.96824113085118,4.630988733235887","0","0"
"1231","86","text","0","8","243587","0-0","","","","","","","","","","","","","","","","","","","","","","","","","","","","","","","","","","","","",""
"","","plant-game","0","9","263122","0-0","","200","190","1","WHEAT CROP","Left","200","190","1","THISTLE WEED","practice","4","1","190","1","WHEAT CROP","190","1","THISTLE WEED","20","20","10","20","0","20","20","20","10","20","0","20","1","5214","-7.652394613093673","8.069089331958038","0","0"
"1081","86","text","0","10","264374","0-0","","","","","","","","","","","","","","","","","","","","","","","","","","","","","","","","","","","","",""
"","","plant-game","0","11","301636","0-0","","200","120","8","CORN CROP","Left","200","160","8","THISTLE WEED","practice","5","1,2,3,4,5,6,7,8","120,132.0256617444632,137.7172403066162,164.65122385344586,188.94017748224152,195.30590899932153,176.52765640094185,209.67456259280306","8,7,6,5,4,3,2,1","CORN CROP,CORN CROP,CORN CROP,CORN CROP,CORN CROP,CORN CROP,CORN CROP,CORN CROP","160,148.85239103422563,151.05659032599561,147.65082937655515,154.4461875475465,174.78332750107245,170.63444821439856,190.46005085050507","8,7,6,5,4,3,2,1","THISTLE WEED,THISTLE WEED,THISTLE WEED,THISTLE WEED,THISTLE WEED,THISTLE WEED,THISTLE WEED,THISTLE WEED","20,20,20,20,20,20,20,20","20,20,20,20,20,20,20,20","10,10,10,10,10,10,10,10","20,20,20,20,20,20,20,20","0,0,0,0,0,0,0,0","20,20,20,20,20,20,20,20","20,20,20,20,20,20,20,20","20,20,20,20,20,20,20,20","10,10,10,10,10,10,10,10","20,20,20,20,20,20,20,20","0,0,0,0,0,0,0,0","20,20,20,20,20,20,20,20","0,0,0,0,0,1,0,1","2210,723,930,1091,1878,2847,1465,2762","12.0256617444632,5.691578562152991,26.93398354682965,24.288953628795657,6.365731517080009,-18.778252598379666,33.14690619186119,-8.276713492100981","-11.14760896577436,2.2041992917699673,-3.405760949440456,6.795358170991326,20.33713995352595,-4.14887928667388,19.82560263610652,-30.16677388011611","0","0"
"716","86","text","0","12","302502","0-0","","","","","","","","","","","","","","","","","","","","","","","","","","","","","","","","","","","","",""
"","","plant-game","0","13","323756","0-0","","200","180","4","WHEAT CROP","Right","200","160","4","THISTLE WEED","practice","6","1,2,3,4","160,193.33812705419584,188.27654685650836,154.85164795011562","4,3,2,1","THISTLE WEED,THISTLE WEED,THISTLE WEED,THISTLE WEED","180,211.7830450974248,203.90906000960177,214.72620004718868","4,3,2,1","WHEAT CROP,WHEAT CROP,WHEAT CROP,WHEAT CROP","0,0,0,0","20,20,20,20","10,10,10,10","20,20,20,20","20,20,20,20","20,20,20,20","0,0,0,0","20,20,20,20","10,10,10,10","20,20,20,20","20,20,20,20","20,20,20,20","1,0,0,0","4738,3646,1007,2114","33.33812705419584,-5.061580197687464,-33.424898906392734,-36.600034766129816","31.783045097424818,-7.873985087823042,10.817140037586919,28.748579277002815","0","0"
"1032","86","text","0","14","324928","0-0","","","","","","","","","","","","","","","","","","","","","","","","","","","","","","","","","","","","",""
"","","plant-game","0","15","347368","0-0","","200","180","2","CORN CROP","Left","200","190","2","THISTLE WEED","practice","7","1,2","180,199.0896108621698","2,1","CORN CROP,CORN CROP","190,205.0960522238663","2,1","THISTLE WEED,THISTLE WEED","20,20","20,20","10,10","20,20","0,0","20,20","20,20","20,20","10,10","20,20","0,0","20,20","1,1","5826,6622","19.089610862169803,-10.322283743408425","15.096052223866305,2.258008180164746","0","0"
"256","86","text","0","16","347774","0-0","","","","","","","","","","","","","","","","","","","","","","","","","","","","","","","","","","","","",""
"","","plant-game","0","17","381344","0-0","","200","120","4","CORN CROP","Right","200","120","8","THISTLE WEED","practice","8","1,2,3,4,5,6,7,8","120,131.56156726663576,133.4950524985545,160.334366352676,175.36578365099672,172.51543804930623,183.6588662816921,174.2655596173838","8,7,6,5,4,3,2,1","THISTLE WEED,THISTLE WEED,THISTLE WEED,THISTLE WEED,THISTLE WEED,THISTLE WEED,THISTLE WEED,THISTLE WEED","120,138.2044096630927,143.7027564941793,149.0493393791469,160,175.0106383536059,150.10271357475455,186.38362402371496","4,3,2,1,4,3,2,1","CORN CROP,CORN CROP,CORN CROP,CORN CROP,WHEAT CROP,WHEAT CROP,WHEAT CROP,WHEAT CROP","0,0,0,0,0,0,0,0","20,20,20,20,20,20,20,20","10,10,10,10,10,10,10,10","20,20,20,20,20,20,20,20","20,20,20,20,20,20,20,20","20,20,20,20,20,20,20,20","0,0,0,0,0,0,0,0","20,20,20,20,20,20,20,20","10,10,10,10,10,10,10,10","20,20,20,20,20,20,20,20","20,20,20,20,20,20,20,20","20,20,20,20,20,20,20,20","1,1,1,1,0,0,1,1","4581,480,363,365,8767,771,2542,618","11.561567266635764,1.9334852319187128,26.839313854121528,15.03141729832073,-2.8503456016904796,11.143428232385881,-9.393306664308312,-7.470779076494484","18.20440966309268,5.498346831086607,5.346582884967564,-12.115024989864253,15.010638353605916,-24.907924778851363,36.280910448960405,38.21739363569517","0","0"
"589","86","text","0","18","382163","0-0","","","","","","","","","","","","","","","","","","","","","","","","","","","","","","","","","","","","",""
"","","plant-game","0","19","427436","0-0","","200","160","4","CORN CROP","Right","200","160","2","NETTLE WEED","practice","9","1,2,3,4","160,161.57752392458625,180,163.11338863184395","2,1,2,1","NETTLE WEED,NETTLE WEED,THISTLE WEED,THISTLE WEED","160,164.98574856726285,183.3644357603261,141.10104123936824","4,3,2,1","CORN CROP,CORN CROP,CORN CROP,CORN CROP","0,0,0,0","20,20,20,20","10,10,10,10","20,20,20,20","20,20,20,20","20,20,20,20","0,0,0,0","20,20,20,20","10,10,10,10","20,20,20,20","20,20,20,20","20,20,20,20","1,1,0,1","11420,466,7726,2047","1.5775239245862522,46.28663015922955,-16.886611368156046,13.179053332937745","4.985748567262856,18.378687193063268,-42.26339452095785,41.33416927075635","0","0"
"725","86","text","0","20","428380","0-0","","","","","","","","","","","","","","","","","","","","","","","","","","","","","","","","","","","","",""
"","","plant-game","0","21","459878","0-0","","200","180","2","WHEAT CROP","Right","200","180","1","NETTLE WEED","practice","10","1,2","180,190","1,1","NETTLE WEED,THISTLE WEED","180,198.3125489681607","2,1","WHEAT CROP,WHEAT CROP","0,0","20,20","10,10","20,20","20,20","20,20","0,0","20,20","10,10","20,20","20,20","20,20","0,1","6354,7416","4.724345776841265,15.627157691397443","18.3125489681607,30.498484432990423","0","0"
"740","86","text","0","22","460798","0-0","","","","","","","","","","","","","","","","","","","","","","","","","","","","","","","","","","","","",""
"","","plant-game","0","23","515167","0-0","","200","120","8","WHEAT CROP","Left","200","160","4","NETTLE WEED","practice","11","1,2,3,4,5,6,7,8","120,134.97606935639564,122.96021516305714,109.20192415028022,132.30067809196208,126.73160193134244,143.35443058763457,163.9528016057528","8,7,6,5,4,3,2,1","WHEAT CROP,WHEAT CROP,WHEAT CROP,WHEAT CROP,WHEAT CROP,WHEAT CROP,WHEAT CROP,WHEAT CROP","160,174.33502035740722,207.59536505052964,207.73887605159925,160,163.2331289086761,155.26299844045766,171.51347884476337","4,3,2,1,4,3,2,1","NETTLE WEED,NETTLE WEED,NETTLE WEED,NETTLE WEED,THISTLE WEED,THISTLE WEED,THISTLE WEED,THISTLE WEED","20,20,20,20,20,20,20,20","20,20,20,20,20,20,20,20","10,10,10,10,10,10,10,10","20,20,20,20,20,20,20,20","0,0,0,0,0,0,0,0","20,20,20,20,20,20,20,20","20,20,20,20,20,20,20,20","20,20,20,20,20,20,20,20","10,10,10,10,10,10,10,10","20,20,20,20,20,20,20,20","0,0,0,0,0,0,0,0","20,20,20,20,20,20,20,20","1,1,1,0,1,1,1,0","2369,1565,3630,4308,11688,581,635,2269","14.976069356395644,-12.015854193338498,-13.758291012776922,23.098753941681856,-5.569076160619647,16.622828656292125,20.598371018118225,81.85170459380777","14.335020357407204,33.26034469312242,0.14351100106961515,1.4670597340249039,3.233128908676105,-7.970130468218438,16.25048040430572,-13.072721437987177","0","1"
"683","86","text","0","24","516000","0-0","","","","","","","","","","","","","","","","","","","","","","","","","","","","","","","","","","","","",""
"","","plant-game","0","25","556710","0-0","","200","180","2","WHEAT CROP","Right","200","160","4","NETTLE WEED","practice","12","1,2,3,4","160,185.23919227259998,223.93136379004113,225.098515583757","4,3,2,1","NETTLE WEED,NETTLE WEED,NETTLE WEED,NETTLE WEED","180,199.88288115403117,180,202.38191585832655","2,1,2,1","WHEAT CROP,WHEAT CROP,CORN CROP,CORN CROP","0,0,0,0","20,20,20,20","10,10,10,10","20,20,20,20","20,20,20,20","20,20,20,20","0,0,0,0","20,20,20,20","10,10,10,10","20,20,20,20","20,20,20,20","20,20,20,20","0,1,0,1","9229,3099,8592,5506","25.239192272599972,38.69217151744116,1.1671517937158833,31.087130792092285","19.88288115403117,15.0270025163402,22.38191585832654,9.015218104707401","1","0"
"636","86","text","0","26","557576","0-0","","","","","","","","","","","","","","","","","","","","","","","","","","","","","","","","","","","","",""
"993","86","text","0","27","559799","0-0","","","","","","","","","","","","","","","","","","","","","","","","","","","","","","","","","","","","",""
"","","plant-game","0","28","590627","0-0","","200","160","8","WHEAT CROP","Left","200","160","8","THISTLE WEED","experimental","1","1,2,3,4,5,6,7,8","160,165.40407968357928,156.9894383165733,183.39769374085483,167.0460370121845,211.12282695482224,202.66505766534422,176.03291120386618","8,7,6,5,4,3,2,1","WHEAT CROP,WHEAT CROP,WHEAT CROP,WHEAT CROP,WHEAT CROP,WHEAT CROP,WHEAT CROP,WHEAT CROP","160,184.2776971396574,147.08254255715644,134.0537951247136,130.34759320311682,176.22828699983,175.04462288351763,178.7959225177639","8,7,6,5,4,3,2,1","THISTLE WEED,THISTLE WEED,THISTLE WEED,THISTLE WEED,THISTLE WEED,THISTLE WEED,THISTLE WEED,THISTLE WEED","20,20,20,20,20,20,20,20","20,20,20,20,20,20,20,20","10,10,10,10,10,10,10,10","20,20,20,20,20,20,20,20","0,0,0,0,0,0,0,0","20,20,20,20,20,20,20,20","20,20,20,20,20,20,20,20","20,20,20,20,20,20,20,20","10,10,10,10,10,10,10,10","20,20,20,20,20,20,20,20","0,0,0,0,0,0,0,0","20,20,20,20,20,20,20,20","0,1,1,1,0,0,1,0","6387,2462,1102,940,1259,7298,2037,1350","5.404079683579287,-8.414641367005974,26.40825542428153,-16.35165672867032,44.07678994263773,-8.457769289478033,-26.63214646147805,25.34221619523109","24.277697139657406,-37.19515458250095,-13.028747432442842,-3.706201921596783,45.880693796713174,-1.1836641163123787,3.751299634246269,14.870730633120395","0","0"
"823","86","text","0","29","591590","0-0","","","","","","","","","","","","","","","","","","","","","","","","","","","","","","","","","","","","",""
"","","plant-game","0","30","629945","0-0","","200","160","4","WHEAT CROP","Left","200","160","2","NETTLE WEED","experimental","2","1,2,3,4","160,215.23335127026326,215.5638587469087,221.30329131839102","4,3,2,1","WHEAT CROP,WHEAT CROP,WHEAT CROP,WHEAT CROP","160,145.76653346126534,180,159.1846085209929","2,1,2,1","NETTLE WEED,NETTLE WEED,THISTLE WEED,THISTLE WEED","20,20,20,20","20,20,20,20","10,10,10,10","20,20,20,20","0,0,0,0","20,20,20,20","20,20,20,20","20,20,20,20","10,10,10,10","20,20,20,20","0,0,0,0","20,20,20,20","0,1,1,1","5714,6782,8741,893","55.23335127026327,0.3305074766454228,5.73943257148232,0.9193358787222672","-14.233466538734646,-8.175073959242706,-20.81539147900711,0.26639519695327496","0","0"
"735","86","text","0","31","630836","0-0","","","","","","","","","","","","","","","","","","","","","","","","","","","","","","","","","","","","",""
"","","plant-game","0","32","661439","0-0","","200","160","4","CORN CROP","Right","200","180","4","THISTLE WEED","experimental","3","1,2,3,4","180,195.87459241163342,213.70852580731545,226.83978234523897","4,3,2,1","THISTLE WEED,THISTLE WEED,THISTLE WEED,THISTLE WEED","160,174.2870244774356,195.22216235258688,198.20081478058037","4,3,2,1","CORN CROP,CORN CROP,CORN CROP,CORN CROP","0,0,0,0","20,20,20,20","10,10,10,10","20,20,20,20","20,20,20,20","20,20,20,20","0,0,0,0","20,20,20,20","10,10,10,10","20,20,20,20","20,20,20,20","20,20,20,20","0,0,1,1","7991,1342,13084,1294","15.874592411633417,17.833933395682042,13.131256537923532,-10.844004938470082","14.28702447743561,20.935137875151277,2.978652427993506,49.69743348978516","0","0"
"709","86","text","0","33","662368","0-0","","","","","","","","","","","","","","","","","","","","","","","","","","","","","","","","","","","","",""
"","","plant-game","0","34","678045","0-0","","200","190","4","CORN CROP","Right","200","120","4","THISTLE WEED","experimental","4","1,2,3,4","120,106.92418022786447,109.6552880331153,78.32218289815843","4,3,2,1","THISTLE WEED,THISTLE WEED,THISTLE WEED,THISTLE WEED","190,194.02531828824345,221.6285273335213,226.51352930473283","4,3,2,1","CORN CROP,CORN CROP,CORN CROP,CORN CROP","0,0,0,0","20,20,20,20","10,10,10,10","20,20,20,20","20,20,20,20","20,20,20,20","0,0,0,0","20,20,20,20","10,10,10,10","20,20,20,20","20,20,20,20","20,20,20,20","0,0,0,0","5337,557,1973,957","-13.075819772135532,2.7311078052508235,-31.33310513495687,25.35327671997401","4.025318288243454,27.60320904527785,4.885001971211533,-0.7114144759071186","0","0"
"550","86","text","0","35","678765","0-0","","","","","","","","","","","","","","","","","","","","","","","","","","","","","","","","","","","","",""
"","","plant-game","0","36","714369","0-0","","200","160","4","WHEAT CROP","Left","200","180","2","THISTLE WEED","experimental","5","1,2,3,4","160,172.41661352387615,151.0254388246998,161.26428678627383","4,3,2,1","WHEAT CROP,WHEAT CROP,WHEAT CROP,WHEAT CROP","180,173.36796885329917,180,189.4627339785859","2,1,2,1","THISTLE WEED,THISTLE WEED,NETTLE WEED,NETTLE WEED","20,20,20,20","20,20,20,20","10,10,10,10","20,20,20,20","0,0,0,0","20,20,20,20","20,20,20,20","20,20,20,20","10,10,10,10","20,20,20,20","0,0,0,0","20,20,20,20","1,1,1,1","9504,555,9270,806","12.41661352387614,-21.391174699176354,10.238847961574049,-26.991557098143744","-6.632031146700827,12.623956758900066,9.462733978585907,14.900926896656213","0","0"
"709","86","text","0","37","715238","0-0","","","","","","","","","","","","","","","","","","","","","","","","","","","","","","","","","","","","",""
"","","plant-game","0","38","761619","0-0","","200","160","8","CORN CROP","Right","200","180","2","NETTLE WEED","experimental","6","1,2,3,4,5,6,7,8","180,151.13554029440405,140,143.7928686704949,177.20616357468143,212.3581100179656,243.33304800552867,206.69689555826935","2,1,6,5,4,3,2,1","NETTLE WEED,NETTLE WEED,THISTLE WEED,THISTLE WEED,THISTLE WEED,THISTLE WEED,THISTLE WEED,THISTLE WEED","160,197.14525319981078,183.3125948264904,231.85109293044732,280.09746694302146,290.4701015322375,290.40890090748866,258.25731771105046","8,7,6,5,4,3,2,1","CORN CROP,CORN CROP,CORN CROP,CORN CROP,CORN CROP,CORN CROP,CORN CROP,CORN CROP","0,0,0,0,0,0,0,0","20,20,20,20,20,20,20,20","10,10,10,10,10,10,10,10","20,20,20,20,20,20,20,20","20,20,20,20,20,20,20,20","20,20,20,20,20,20,20,20","0,0,0,0,0,0,0,0","20,20,20,20,20,20,20,20","10,10,10,10,10,10,10,10","20,20,20,20,20,20,20,20","20,20,20,20,20,20,20,20","20,20,20,20,20,20,20,20","0,0,0,1,1,0,0,0","10430,1205,5836,5809,1573,5600,441,642","-28.864459705595962,26.692313436372842,3.792868670494887,33.41329490418652,35.15194644328416,30.97493798756307,-36.63615244725933,-9.160370015087713","37.145253199810774,-13.83265837332038,48.53849810395693,48.24637401257411,10.372634589216059,-0.06120062474881601,-32.15158319643821,-23.60783302008811","0","0"
"743","86","text","0","39","762502","0-0","","","","","","","","","","","","","","","","","","","","","","","","","","","","","","","","","","","","",""
"","","plant-game","0","40","792462","0-0","","200","190","2","CORN CROP","Left","200","120","4","THISTLE WEED","experimental","7","1,2,3,4","190,218.5532105211537,180,231.9752881152931","2,1,2,1","CORN CROP,CORN CROP,WHEAT CROP,WHEAT CROP","120,108.48802669859151,90.21361618748757,112.78996256414194","4,3,2,1","THISTLE WEED,THISTLE WEED,THISTLE WEED,THISTLE WEED","20,20,20,20","20,20,20,20","10,10,10,10","20,20,20,20","0,0,0,0","20,20,20,20","20,20,20,20","20,20,20,20","10,10,10,10","20,20,20,20","0,0,0,0","20,20,20,20","0,1,0,1","3919,6486,4133,3630","28.5532105211537,0.009790384447657353,51.97528811529308,-4.274346562877339","-11.511973301408482,-18.274410511103934,22.576346376654378,33.70948774948133","0","0"
"810","86","text","0","41","793462","0-0","","","","","","","","","","","","","","","","","","","","","","","","","","","","","","","","","","","","",""
"","","plant-game","0","42","824449","0-0","","200","190","2","CORN CROP","Left","200","160","1","THISTLE WEED","experimental","8","1,2","190,196.79189647466328","2,1","CORN CROP,CORN CROP","160,190","1,1","THISTLE WEED,NETTLE WEED","20,20","20,20","10,10","20,20","0,0","20,20","20,20","20,20","10,10","20,20","0,0","20,20","1,1","5454,9880","6.791896474663264,7.946908344594181","0.4059851949950115,-17.30356768844971","0","0"
"706","86","text","0","43","825315","0-0","","","","","","","","","","","","","","","","","","","","","","","","","","","","","","","","","","","","",""
"","","plant-game","0","44","869585","0-0","","200","190","2","CORN CROP","Right","200","190","4","THISTLE WEED","experimental","9","1,2,3,4","190,224.16749922067856,238.44389846076515,242.04894474028674","4,3,2,1","THISTLE WEED,THISTLE WEED,THISTLE WEED,THISTLE WEED","190,205.20687511679535,180,214.35135919097542","2,1,2,1","CORN CROP,CORN CROP,WHEAT CROP,WHEAT CROP","0,0,0,0","20,20,20,20","10,10,10,10","20,20,20,20","20,20,20,20","20,20,20,20","0,0,0,0","20,20,20,20","10,10,10,10","20,20,20,20","20,20,20,20","20,20,20,20","0,1,0,1","12752,6554,7703,3612","34.16749922067856,14.276399240086587,3.6050462795215843,42.91836002270457","15.206875116795347,33.60591927237617,34.35135919097541,24.747005790477054","0","0"
"576","86","text","0","45","870351","0-0","","","","","","","","","","","","","","","","","","","","","","","","","","","","","","","","","","","","",""
"","","plant-game","0","46","893947","0-0","","200","180","2","WHEAT CROP","Right","200","190","1","NETTLE WEED","experimental","10","1,2","190,190","1,1","NETTLE WEED,THISTLE WEED","180,186.05633509421477","2,1","WHEAT CROP,WHEAT CROP","0,0","20,20","10,10","20,20","20,20","20,20","0,0","20,20","10,10","20,20","20,20","20,20","0,1","9479,3013","-2.954947228839537,22.00578821284333","6.056335094214765,42.56413214905222","0","0"
"724","86","text","0","47","894821","0-0","","","","","","","","","","","","","","","","","","","","","","","","","","","","","","","","","","","","",""
"","","plant-game","0","48","940540","0-0","","200","120","1","CORN CROP","Right","200","190","8","NETTLE WEED","experimental","11","1,2,3,4,5,6,7,8","190,167.41631211104934,156.67234890008524,175.06280916774355,165.28732614854724,190.40150579436485,189.0815637051726,165.66364253262734","8,7,6,5,4,3,2,1","NETTLE WEED,NETTLE WEED,NETTLE WEED,NETTLE WEED,NETTLE WEED,NETTLE WEED,NETTLE WEED,NETTLE WEED","120,130,125.65994469470884,153.6711587245786,195.54645665847238,223.10035968511232,257.95106667107797,266.3931522016125","1,7,6,5,4,3,2,1","CORN CROP,WHEAT CROP,WHEAT CROP,WHEAT CROP,WHEAT CROP,WHEAT CROP,WHEAT CROP,WHEAT CROP","0,0,0,0,0,0,0,0","20,20,20,20,20,20,20,20","10,10,10,10,10,10,10,10","20,20,20,20,20,20,20,20","20,20,20,20,20,20,20,20","20,20,20,20,20,20,20,20","0,0,0,0,0,0,0,0","20,20,20,20,20,20,20,20","10,10,10,10,10,10,10,10","20,20,20,20,20,20,20,20","20,20,20,20,20,20,20,20","20,20,20,20,20,20,20,20","0,1,1,1,1,1,0,0","11838,4282,721,575,895,9427,3534,697","-22.583687888950653,-10.743963210964083,18.39046026765831,-9.775483019196322,25.114179645817625,-1.3199420891922315,-23.41792117254527,-7.64444804160176","-21.511841636862382,-4.340055305291163,28.011214029869755,41.875297933893805,27.553903026639933,34.850706985965644,8.442085530534555,9.813743596236588","0","0"
"670","86","text","0","49","941351","0-0","","","","","","","","","","","","","","","","","","","","","","","","","","","","","","","","","","","","",""
"","","plant-game","0","50","989112","0-0","","200","190","8","WHEAT CROP","Right","200","160","2","THISTLE WEED","experimental","12","1,2,3,4,5,6,7,8","160,171.0320436307918,140,127.48514450964045,104.17497661763841,120.06155916214077,155.25140932559864,162.56276018809595","2,1,6,5,4,3,2,1","THISTLE WEED,THISTLE WEED,NETTLE WEED,NETTLE WEED,NETTLE WEED,NETTLE WEED,NETTLE WEED,NETTLE WEED","190,197.88910253213754,230.63399313153744,208.35528350362532,172.11544102814094,200.91987034069012,196.76091392302757,196.85571566013368","8,7,6,5,4,3,2,1","WHEAT CROP,WHEAT CROP,WHEAT CROP,WHEAT CROP,WHEAT CROP,WHEAT CROP,WHEAT CROP,WHEAT CROP","0,0,0,0,0,0,0,0","20,20,20,20,20,20,20,20","10,10,10,10,10,10,10,10","20,20,20,20,20,20,20,20","20,20,20,20,20,20,20,20","20,20,20,20,20,20,20,20","0,0,0,0,0,0,0,0","20,20,20,20,20,20,20,20","10,10,10,10,10,10,10,10","20,20,20,20,20,20,20,20","20,20,20,20,20,20,20,20","20,20,20,20,20,20,20,20","0,0,0,0,1,1,0,1","16308,925,6801,449,2409,3606,1542,1328","11.032043630791811,9.048346455172307,-12.514855490359547,-23.310167892002035,15.886582544502362,35.18985016345788,7.311350862497318,28.61898722072732","7.8891025321375565,32.744890599399895,-22.27870962791212,-36.239842475484366,28.8044293125492,-4.1589564176625515,0.0948017371061134,19.008970388198996","0","0"
"583","86","text","0","51","989885","0-0","","","","","","","","","","","","","","","","","","","","","","","","","","","","","","","","","","","","",""
"","","plant-game","0","52","1018455","0-0","","200","120","8","WHEAT CROP","Right","200","180","8","THISTLE WEED","experimental","13","1,2,3,4,5,6,7,8","180,211.2662436698196,223.30300881347372,250.14257022721065,240.34731560327916,267.70984641014473,278.3224963668434,299.1245179087009","8,7,6,5,4,3,2,1","THISTLE WEED,THISTLE WEED,THISTLE WEED,THISTLE WEED,THISTLE WEED,THISTLE WEED,THISTLE WEED,THISTLE WEED","120,110.33113016516263,86.5131153052237,133.28449268805787,195.24453823846204,176.974468140488,211.17154293382373,231.96285099871776","8,7,6,5,4,3,2,1","WHEAT CROP,WHEAT CROP,WHEAT CROP,WHEAT CROP,WHEAT CROP,WHEAT CROP,WHEAT CROP,WHEAT CROP","0,0,0,0,0,0,0,0","20,20,20,20,20,20,20,20","10,10,10,10,10,10,10,10","20,20,20,20,20,20,20,20","20,20,20,20,20,20,20,20","20,20,20,20,20,20,20,20","0,0,0,0,0,0,0,0","20,20,20,20,20,20,20,20","10,10,10,10,10,10,10,10","20,20,20,20,20,20,20,20","20,20,20,20,20,20,20,20","20,20,20,20,20,20,20,20","0,1,1,1,1,0,1,1","7914,5539,682,1557,814,1227,4075,534","31.26624366981959,12.036765143654119,26.839561413736938,-9.795254623931491,27.362530806865585,10.612649956698634,20.802021541857524,31.173645229429063","-9.668869834837361,-23.818014859938927,46.77137738283416,61.96004555040416,-18.27007009797405,34.19707479333574,20.79130806489403,33.547234451154665","0","1"
"510","86","text","0","53","1019125","0-0","","","","","","","","","","","","","","","","","","","","","","","","","","","","","","","","","","","","",""
"","","plant-game","0","54","1045019","0-0","","200","160","2","CORN CROP","Right","200","190","1","NETTLE WEED","experimental","14","1,2","190,190","1,1","NETTLE WEED,THISTLE WEED","160,165.53155341831845","2,1","CORN CROP,CORN CROP","0,0","20,20","10,10","20,20","20,20","20,20","0,0","20,20","10,10","20,20","20,20","20,20","1,1","4455,8930","62.415983645531,20.378907547818635","5.531553418318465,-36.90568613878231","0","0"
"660","86","text","0","55","1045819","0-0","","","","","","","","","","","","","","","","","","","","","","","","","","","","","","","","","","","","",""
"","","plant-game","0","56","1058826","0-0","","200","120","1","WHEAT CROP","Left","200","160","1","THISTLE WEED","experimental","15","1","120","1","WHEAT CROP","160","1","THISTLE WEED","20","20","10","20","0","20","20","20","10","20","0","20","0","7089","6.541181909998873","32.35110547161341","0","0"
"575","86","text","0","57","1059573","0-0","","","","","","","","","","","","","","","","","","","","","","","","","","","","","","","","","","","","",""
"","","plant-game","0","58","1090526","0-0","","200","120","1","CORN CROP","Right","200","120","2","NETTLE WEED","experimental","16","1,2","120,169.25602211905422","2,1","NETTLE WEED,NETTLE WEED","120,190","1,1","CORN CROP,WHEAT CROP","0,0","20,20","10,10","20,20","20,20","20,20","0,0","20,20","10,10","20,20","20,20","20,20","1,0","9053,5966","49.25602211905422,-10.915843278015334","22.889796431026873,15.839711494308649","0","0"
"15950","86","text","0","59","1106695","0-0","","","","","","","","","","","","","","","","","","","","","","","","","","","","","","","","","","","","",""
"","","plant-game","0","60","1122598","0-0","","200","120","2","WHEAT CROP","Left","200","190","2","NETTLE WEED","experimental","17","1,2","120,115.55898867030358","2,1","WHEAT CROP,WHEAT CROP","190,195.15451114113844","2,1","NETTLE WEED,NETTLE WEED","20,20","20,20","10,10","20,20","0,0","20,20","20,20","20,20","10,10","20,20","0,0","20,20","1,1","9041,474","-4.441011329696419,-24.97368887942884","5.15451114113845,4.736358605536476","0","0"
"704","86","text","0","61","1123442","0-0","","","","","","","","","","","","","","","","","","","","","","","","","","","","","","","","","","","","",""
"","","plant-game","0","62","1150961","0-0","","200","160","1","WHEAT CROP","Left","200","180","2","THISTLE WEED","experimental","18","1,2","160,190","1,1","WHEAT CROP,CORN CROP","180,190.79831471098447","2,1","THISTLE WEED,THISTLE WEED","20,20","20,20","10,10","20,20","0,0","20,20","20,20","20,20","10,10","20,20","0,0","20,20","1,1","10955,4034","-34.78230756356474,5.435787929250474","10.79831471098448,-1.8022892465913198","0","0"
"769","86","text","0","63","1151980","0-0","","","","","","","","","","","","","","","","","","","","","","","","","","","","","","","","","","","","",""
"","","plant-game","0","64","1170643","0-0","","200","180","1","CORN CROP","Left","200","160","1","THISTLE WEED","experimental","19","1","180","1","CORN CROP","160","1","THISTLE WEED","20","20","10","20","0","20","20","20","10","20","0","20","0","10393","15.1832383703584","34.8940838908146","0","0"
"664","86","text","0","65","1171463","0-0","","","","","","","","","","","","","","","","","","","","","","","","","","","","","","","","","","","","",""
"","","plant-game","0","66","1236301","0-0","","200","180","1","WHEAT CROP","Left","200","160","4","NETTLE WEED","experimental","20","1,2,3,4","180,170,163.771760291676,143.2452194074956","1,3,2,1","WHEAT CROP,CORN CROP,CORN CROP,CORN CROP","160,150.32983871073876,144.23466828169896,109.00503012623105","4,3,2,1","NETTLE WEED,NETTLE WEED,NETTLE WEED,NETTLE WEED","20,20,20,20","20,20,20,20","10,10,10,10","20,20,20,20","0,0,0,0","20,20,20,20","20,20,20,20","20,20,20,20","10,10,10,10","20,20,20,20","0,0,0,0","20,20,20,20","0,1,1,1","36145,10915,538,1139","-10.63986100508987,-6.228239708324008,-20.526540884180392,29.584678455347508","-9.670161289261245,-6.095170429039799,-35.22963815546792,21.885061839107138","0","0"
"715","86","text","0","67","1237172","0-0","","","","","","","","","","","","","","","","","","","","","","","","","","","","","","","","","","","","",""
"","","plant-game","0","68","1262336","0-0","","200","180","2","CORN CROP","Left","200","160","1","NETTLE WEED","experimental","21","1,2","180,248.65143963758482","2,1","CORN CROP,CORN CROP","160,190","1,1","NETTLE WEED,THISTLE WEED","20,20","20,20","10,10","20,20","0,0","20,20","20,20","20,20","10,10","20,20","0,0","20,20","0,1","5183,7526","68.65143963758483,5.682168831140267","24.856087715424398,22.82131289877934","0","0"
"777","86","text","0","69","1263323","0-0","","","","","","","","","","","","","","","","","","","","","","","","","","","","","","","","","","","","",""
"","","plant-game","0","70","1298471","0-0","","200","190","2","WHEAT CROP","Right","200","160","8","THISTLE WEED","experimental","22","1,2,3,4,5,6,7,8","160,129.86022176874835,121.44600458760073,142.928197487589,137.9301795807662,133.4689022792029,156.1833647089412,158.63926064495104","8,7,6,5,4,3,2,1","THISTLE WEED,THISTLE WEED,THISTLE WEED,THISTLE WEED,THISTLE WEED,THISTLE WEED,THISTLE WEED,THISTLE WEED","190,200.07058182934827,140,171.0875815721458,205.52022245846905,226.02956082868783,223.33219401897716,214.44462471142282","2,1,6,5,4,3,2,1","WHEAT CROP,WHEAT CROP,CORN CROP,CORN CROP,CORN CROP,CORN CROP,CORN CROP,CORN CROP","0,0,0,0,0,0,0,0","20,20,20,20,20,20,20,20","10,10,10,10,10,10,10,10","20,20,20,20,20,20,20,20","20,20,20,20,20,20,20,20","20,20,20,20,20,20,20,20","0,0,0,0,0,0,0,0","20,20,20,20,20,20,20,20","10,10,10,10,10,10,10,10","20,20,20,20,20,20,20,20","20,20,20,20,20,20,20,20","20,20,20,20,20,20,20,20","0,0,1,1,1,1,0,0","10865,1905,4848,482,2079,680,2887,1292","-30.139778231251665,-8.414217181147624,21.482192899988256,-4.998017906822774,-4.461277301563321,22.714462429738326,2.4558959360098136,-15.162602224407562","10.070581829348278,-4.96029696970796,31.087581572145808,34.432640886323234,20.509338370218778,-2.6973668097106795,-8.88756930755433,-36.09528255221498","0","0"
"144","86","text","0","71","1298725","0-0","","","","","","","","","","","","","","","","","","","","","","","","","","","","","","","","","","","","",""
"","","plant-game","0","72","1319515","0-0","","200","190","4","CORN CROP","Right","200","160","4","THISTLE WEED","experimental","23","1,2,3,4","160,160.18289140253412,187.78109450956978,229.8894002271528","4,3,2,1","THISTLE WEED,THISTLE WEED,THISTLE WEED,THISTLE WEED","190,227.76599564857742,242.25840784073705,235.19038998138393","4,3,2,1","CORN CROP,CORN CROP,CORN CROP,CORN CROP","0,0,0,0","20,20,20,20","10,10,10,10","20,20,20,20","20,20,20,20","20,20,20,20","0,0,0,0","20,20,20,20","10,10,10,10","20,20,20,20","20,20,20,20","20,20,20,20","1,1,1,0","2983,777,459,11414","0.18289140253412484,27.59820310703566,42.10830571758302,14.195595248465914","37.76599564857743,14.49241219215963,-7.068017859353123,-41.20537659540682","0","0"
"230","86","text","0","73","1319915","0-0","","","","","","","","","","","","","","","","","","","","","","","","","","","","","","","","","","","","",""
"","","plant-game","0","74","1372139","0-0","","200","190","8","CORN CROP","Left","200","180","4","THISTLE WEED","experimental","24","1,2,3,4,5,6,7,8","190,205.79122597930655,219.23568849541732,264.40988079370754,256.02315027223966,234.71559674280257,254.72747549418108,262.5311214175498","8,7,6,5,4,3,2,1","CORN CROP,CORN CROP,CORN CROP,CORN CROP,CORN CROP,CORN CROP,CORN CROP,CORN CROP","180,177.19530718986366,145.57823598771213,188.81438149411713,160,156.51887982043212,147.97560603392105,144.451628376283","4,3,2,1,4,3,2,1","THISTLE WEED,THISTLE WEED,THISTLE WEED,THISTLE WEED,NETTLE WEED,NETTLE WEED,NETTLE WEED,NETTLE WEED","20,20,20,20,20,20,20,20","20,20,20,20,20,20,20,20","10,10,10,10,10,10,10,10","20,20,20,20,20,20,20,20","0,0,0,0,0,0,0,0","20,20,20,20,20,20,20,20","20,20,20,20,20,20,20,20","20,20,20,20,20,20,20,20","10,10,10,10,10,10,10,10","20,20,20,20,20,20,20,20","0,0,0,0,0,0,0,0","20,20,20,20,20,20,20,20","1,1,0,1,1,1,1,1","25088,937,3940,1602,6846,411,466,449","15.79122597930656,13.444462516110786,45.17419229829025,-8.386730521467861,-21.307553529437087,20.01187875137851,7.803645923368695,-10.80640916521421","-2.804692810136358,-31.617071202151514,43.23614550640498,24.609477986166496,-3.4811201795678888,-8.543273786511078,-3.5239776576380515,32.705992227429945","0","0"
"103","86","text","0","75","1372382","0-0","","","","","","","","","","","","","","","","","","","","","","","","","","","","","","","","","","","","",""
"","","plant-game","0","76","1435390","0-0","","200","180","2","CORN CROP","Right","200","180","8","THISTLE WEED","experimental","25","1,2,3,4,5,6,7,8","180,228.60174380623576,242.5048340181734,249.6615059628984,260.87168155032356,307.60339974471464,314.72082050958034,342.4243632266029","8,7,6,5,4,3,2,1","THISTLE WEED,THISTLE WEED,THISTLE WEED,THISTLE WEED,THISTLE WEED,THISTLE WEED,THISTLE WEED,THISTLE WEED","180,165.9847566883072,140,163.60077254541866,160.2059167706163,183.2430528572245,235.14547909399582,267.16791997986763","2,1,6,5,4,3,2,1","CORN CROP,CORN CROP,WHEAT CROP,WHEAT CROP,WHEAT CROP,WHEAT CROP,WHEAT CROP,WHEAT CROP","0,0,0,0,0,0,0,0","20,20,20,20,20,20,20,20","10,10,10,10,10,10,10,10","20,20,20,20,20,20,20,20","20,20,20,20,20,20,20,20","20,20,20,20,20,20,20,20","0,0,0,0,0,0,0,0","20,20,20,20,20,20,20,20","10,10,10,10,10,10,10,10","20,20,20,20,20,20,20,20","20,20,20,20,20,20,20,20","20,20,20,20,20,20,20,20","0,1,1,1,1,1,1,1","6697,7757,36811,351,253,177,187,868","48.60174380623576,13.90309021193764,7.156671944724998,11.210175587425189,46.731718194391085,7.117420764865718,27.703542717022586,29.836714018379716","-14.015243311692808,-5.226418462036541,23.60077254541867,-3.3948557748023624,23.0371360866082,51.902426236771305,32.022440885871816,-1.2594042724158143","0","0"
"713","86","text","0","77","1436293","0-0","","","","","","","","","","","","","","","","","","","","","","","","","","","","","","","","","","","","",""
"","","plant-game","0","78","1459960","0-0","","200","120","4","WHEAT CROP","Left","200","160","2","THISTLE WEED","experimental","26","1,2,3,4","120,71.7643460377204,73.15788689576075,113.51687969658097","4,3,2,1","WHEAT CROP,WHEAT CROP,WHEAT CROP,WHEAT CROP","160,185.85592983205873,180,173.50518272937515","2,1,2,1","THISTLE WEED,THISTLE WEED,NETTLE WEED,NETTLE WEED","20,20,20,20","20,20,20,20","10,10,10,10","20,20,20,20","0,0,0,0","20,20,20,20","20,20,20,20","20,20,20,20","10,10,10,10","20,20,20,20","0,0,0,0","20,20,20,20","1,0,0,0","3195,2309,5889,469","-48.23565396227959,1.3935408580403532,40.35899280082022,23.042600973837143","25.855929832058745,38.06005706803593,-6.494817270624846,49.64377140371444","0","0"
"546","86","text","0","79","1460626","0-0","","","","","","","","","","","","","","","","","","","","","","","","","","","","","","","","","","","","",""
"","","plant-game","0","80","1485369","0-0","","200","180","1","CORN CROP","Left","200","190","4","THISTLE WEED","experimental","27","1,2,3,4","180,170,150.32754871646898,152.50027966656154","1,3,2,1","CORN CROP,WHEAT CROP,WHEAT CROP,WHEAT CROP","190,186.49675764628404,198.14464008247757,216.79092847239136","4,3,2,1","THISTLE WEED,THISTLE WEED,THISTLE WEED,THISTLE WEED","20,20,20,20","20,20,20,20","10,10,10,10","20,20,20,20","0,0,0,0","20,20,20,20","20,20,20,20","20,20,20,20","10,10,10,10","20,20,20,20","0,0,0,0","20,20,20,20","1,1,0,0","4774,4510,4917,961","0.5203056040595891,-19.672451283531014,2.172730950092557,-5.1431836286353985","-3.5032423537159745,11.647882436193536,18.64628838991379,18.07180759289127","0","0"
"49","86","text","0","81","1485522","0-0","","","","","","","","","","","","","","","","","","","","","","","","","","","","","","","","","","","","",""
"","","plant-game","0","82","1496944","0-0","","200","120","2","CORN CROP","Right","200","120","2","NETTLE WEED","experimental","28","1,2","120,135.55651521593637","2,1","NETTLE WEED,NETTLE WEED","120,119.49326074308644","2,1","CORN CROP,CORN CROP","0,0","20,20","10,10","20,20","20,20","20,20","0,0","20,20","10,10","20,20","20,20","20,20","1,1","4375,581","15.556515215936376,-9.19079542615027","-0.5067392569135549,40.40574326314595","0","0"
"160","86","text","0","83","1497294","0-0","","","","","","","","","","","","","","","","","","","","","","","","","","","","","","","","","","","","",""
"","","plant-game","0","84","1511668","0-0","","200","180","2","CORN CROP","Left","200","160","2","THISTLE WEED","experimental","29","1,2","180,174.6758145389164","2,1","CORN CROP,CORN CROP","160,160.51584919741748","2,1","THISTLE WEED,THISTLE WEED","20,20","20,20","10,10","20,20","0,0","20,20","20,20","20,20","10,10","20,20","0,0","20,20","1,0","8024,1447","-5.324185461083588,31.678345776826642","0.5158491974174831,58.351838279179276","0","0"
"96","86","text","0","85","1511896","0-0","","","","","","","","","","","","","","","","","","","","","","","","","","","","","","","","","","","","",""
"","","plant-game","0","86","1534364","0-0","","200","190","2","CORN CROP","Right","200","190","1","THISTLE WEED","experimental","30","1,2","190,190","1,1","THISTLE WEED,NETTLE WEED","190,196.47191072889026","2,1","CORN CROP,CORN CROP","0,0","20,20","10,10","20,20","20,20","20,20","0,0","20,20","10,10","20,20","20,20","20,20","1,1","5042,4856","29.78029422563747,38.56849395091234","6.4719107288902595,31.351404931081802","0","0"
"83","86","text","0","87","1534624","0-0","","","","","","","","","","","","","","","","","","","","","","","","","","","","","","","","","","","","",""
"","","plant-game","0","88","1563450","0-0","","200","160","4","WHEAT CROP","Right","200","190","2","THISTLE WEED","experimental","31","1,2,3,4","190,207.29440450267816,180,178.94073166051507","2,1,2,1","THISTLE WEED,THISTLE WEED,NETTLE WEED,NETTLE WEED","160,144.52757403516262,148.065347886953,134.41454567091364","4,3,2,1","WHEAT CROP,WHEAT CROP,WHEAT CROP,WHEAT CROP","0,0,0,0","20,20,20,20","10,10,10,10","20,20,20,20","20,20,20,20","20,20,20,20","0,0,0,0","20,20,20,20","10,10,10,10","20,20,20,20","20,20,20,20","20,20,20,20","0,0,0,0","7033,1035,8119,872","17.294404502678177,-2.6507866895779424,-1.059268339484919,9.746809350684845","-15.472425964837386,3.5377738517903854,-13.650802216039356,39.8620413144149","0","0"
"654","86","text","0","89","1564260","0-0","","","","","","","","","","","","","","","","","","","","","","","","","","","","","","","","","","","","",""
"","","plant-game","0","90","1606013","0-0","","200","190","8","CORN CROP","Right","200","190","1","NETTLE WEED","experimental","32","1,2,3,4,5,6,7,8","190,130,157.20481259270971,158.0120754876885,152.6696083547484,178.96605943315174,205.72507922468645,158.84094528505608","1,7,6,5,4,3,2,1","NETTLE WEED,THISTLE WEED,THISTLE WEED,THISTLE WEED,THISTLE WEED,THISTLE WEED,THISTLE WEED,THISTLE WEED","190,234.86346697189538,290.881211825853,338.84187298306773,391.0471279405149,423.10030020663186,425.48854867524494,392.09838534261735","8,7,6,5,4,3,2,1","CORN CROP,CORN CROP,CORN CROP,CORN CROP,CORN CROP,CORN CROP,CORN CROP,CORN CROP","0,0,0,0,0,0,0,0","20,20,20,20,20,20,20,20","10,10,10,10,10,10,10,10","20,20,20,20,20,20,20,20","20,20,20,20,20,20,20,20","20,20,20,20,20,20,20,20","0,0,0,0,0,0,0,0","20,20,20,20,20,20,20,20","10,10,10,10,10,10,10,10","20,20,20,20,20,20,20,20","20,20,20,20,20,20,20,20","20,20,20,20,20,20,20,20","1,1,1,1,1,1,0,0","20786,3554,459,497,491,668,6265,368","34.67883913568792,27.20481259270972,0.8072628949787735,-5.342467132940101,26.296451078403344,26.7590197915347,-46.884133939630374,17.65300684732175","44.86346697189537,56.01774485395758,47.96066115721476,52.205254957447174,32.05317226611696,2.388248468613064,-33.390163332627594,-30.24264869189792","0","0"
"907","86","text","0","91","1607101","0-0","","","","","","","","","","","","","","","","","","","","","","","","","","","","","","","","","","","","",""
"","","plant-game","0","92","1640985","0-0","","200","190","8","CORN CROP","Right","200","160","1","THISTLE WEED","experimental","33","1,2,3,4,5,6,7,8","160,130,158.28102877115427,174.6886040508605,168.43857393362325,185.17176413848435,174.34549084507628,200.06612436071094","1,7,6,5,4,3,2,1","THISTLE WEED,NETTLE WEED,NETTLE WEED,NETTLE WEED,NETTLE WEED,NETTLE WEED,NETTLE WEED,NETTLE WEED","190,238.8278481831316,279.51782947169096,295.8801862471119,303.16034659693696,313.27072050444707,294.0411255545643,286.07796094230275","8,7,6,5,4,3,2,1","CORN CROP,CORN CROP,CORN CROP,CORN CROP,CORN CROP,CORN CROP,CORN CROP,CORN CROP","0,0,0,0,0,0,0,0","20,20,20,20,20,20,20,20","10,10,10,10,10,10,10,10","20,20,20,20,20,20,20,20","20,20,20,20,20,20,20,20","20,20,20,20,20,20,20,20","0,0,0,0,0,0,0,0","20,20,20,20,20,20,20,20","10,10,10,10,10,10,10,10","20,20,20,20,20,20,20,20","20,20,20,20,20,20,20,20","20,20,20,20,20,20,20,20","1,1,0,0,0,0,0,0","6498,8738,3932,698,565,573,719,3659","21.86618636403934,28.28102877115427,16.407575279706233,-6.250030117237247,16.73319020486111,-10.826273293408072,25.72063351563465,-6.216748509234245","48.8278481831316,40.68998128855936,16.362356775420924,7.2801603498250245,10.110373907510109,-19.22959494988277,-7.963164612261531,-4.05807582908014","0","0"
"186","86","text","0","93","1641341","0-0","","","","","","","","","","","","","","","","","","","","","","","","","","","","","","","","","","","","",""
"","","plant-game","0","94","1665051","0-0","","200","120","1","CORN CROP","Right","200","180","8","NETTLE WEED","experimental","34","1,2,3,4,5,6,7,8","180,197.23601407711945,256.7860861650768,315.0685673742602,334.2236898308049,329.62863829794696,358.48285069696846,376.82633739935466","8,7,6,5,4,3,2,1","NETTLE WEED,NETTLE WEED,NETTLE WEED,NETTLE WEED,NETTLE WEED,NETTLE WEED,NETTLE WEED,NETTLE WEED","120,130,157.5098090333136,161.67771767158135,196.86489811838575,214.27885184275948,236.20457532453875,254.08507035674","1,7,6,5,4,3,2,1","CORN CROP,WHEAT CROP,WHEAT CROP,WHEAT CROP,WHEAT CROP,WHEAT CROP,WHEAT CROP,WHEAT CROP","0,0,0,0,0,0,0,0","20,20,20,20,20,20,20,20","10,10,10,10,10,10,10,10","20,20,20,20,20,20,20,20","20,20,20,20,20,20,20,20","20,20,20,20,20,20,20,20","0,0,0,0,0,0,0,0","20,20,20,20,20,20,20,20","10,10,10,10,10,10,10,10","20,20,20,20,20,20,20,20","20,20,20,20,20,20,20,20","20,20,20,20,20,20,20,20","1,1,1,1,1,1,1,1","3694,5802,793,368,316,3040,342,227","17.236014077119453,59.55007208795737,58.2824812091834,19.155122456544678,-4.5950515328579336,28.854212399021506,18.34348670238619,-40.89476052476353","-15.294487556315381,27.509809033313594,4.167908638267772,35.187180446804405,17.413953724373723,21.925723481779283,17.88049503220124,10.28924678820161","0","0"
"87","86","text","0","95","1665238","0-0","","","","","","","","","","","","","","","","","","","","","","","","","","","","","","","","","","","","",""
"","","plant-game","0","96","1694326","0-0","","200","160","8","WHEAT CROP","Right","200","120","1","THISTLE WEED","experimental","35","1,2,3,4,5,6,7,8","120,130,166.54446448606208,168.432763602056,162.4878124193129,170.8633527504586,185.73797400460725,163.9608736931486","1,7,6,5,4,3,2,1","THISTLE WEED,NETTLE WEED,NETTLE WEED,NETTLE WEED,NETTLE WEED,NETTLE WEED,NETTLE WEED,NETTLE WEED","160,171.89964731307006,184.32582984647527,211.64919460199127,224.99081728158384,248.77941849908672,261.2011583702259,252.9382124052957","8,7,6,5,4,3,2,1","WHEAT CROP,WHEAT CROP,WHEAT CROP,WHEAT CROP,WHEAT CROP,WHEAT CROP,WHEAT CROP,WHEAT CROP","0,0,0,0,0,0,0,0","20,20,20,20,20,20,20,20","10,10,10,10,10,10,10,10","20,20,20,20,20,20,20,20","20,20,20,20,20,20,20,20","20,20,20,20,20,20,20,20","0,0,0,0,0,0,0,0","20,20,20,20,20,20,20,20","10,10,10,10,10,10,10,10","20,20,20,20,20,20,20,20","20,20,20,20,20,20,20,20","20,20,20,20,20,20,20,20","1,1,0,0,0,0,0,0","5008,4687,2264,2610,575,481,2007,973","16.650901896749158,36.54446448606209,1.8882991159939246,-5.944951182743119,8.375540331145729,14.874621254148659,-21.777100311458643,-27.044863747636807","11.899647313070073,12.426182533405221,27.32336475551601,13.341622679592575,23.78860121750288,12.42173987113922,-8.262945964930225,-16.498623726559508","0","0"
"97","86","text","0","97","1694493","0-0","","","","","","","","","","","","","","","","","","","","","","","","","","","","","","","","","","","","",""
"","","plant-game","0","98","1724863","0-0","","200","180","1","CORN CROP","Right","200","120","4","NETTLE WEED","experimental","36","1,2,3,4","120,130.90897380941044,141.1120512866356,151.5561691779264","4,3,2,1","NETTLE WEED,NETTLE WEED,NETTLE WEED,NETTLE WEED","180,170,202.42856137832896,191.96924147465813","1,3,2,1","CORN CROP,WHEAT CROP,WHEAT CROP,WHEAT CROP","0,0,0,0","20,20,20,20","10,10,10,10","20,20,20,20","20,20,20,20","20,20,20,20","0,0,0,0","20,20,20,20","10,10,10,10","20,20,20,20","20,20,20,20","20,20,20,20","1,1,1,1","15167,3146,1033,1477","10.908973809410442,10.203077477225149,10.44411789129079,24.74246457351483","-3.025789776648722,32.428561378328965,-10.459319903670831,8.004603656056572","1","0"
"584","86","text","0","99","1725667","0-0","","","","","","","","","","","","","","","","","","","","","","","","","","","","","","","","","","","","",""
"","","plant-game","0","100","1740299","0-0","","200","120","4","CORN CROP","Left","200","160","4","THISTLE WEED","experimental","37","1,2,3,4","120,122.29967644177195,154.3757587752713,137.14614381742345","4,3,2,1","CORN CROP,CORN CROP,CORN CROP,CORN CROP","160,191.237344964531,190.81233071567925,202.27275876876845","4,3,2,1","THISTLE WEED,THISTLE WEED,THISTLE WEED,THISTLE WEED","20,20,20,20","20,20,20,20","10,10,10,10","20,20,20,20","0,0,0,0","20,20,20,20","20,20,20,20","20,20,20,20","10,10,10,10","20,20,20,20","0,0,0,0","20,20,20,20","1,1,1,1","4834,1160,552,4093","2.2996764417719535,32.07608233349934,-17.229614957847843,-14.59412550975326","31.23734496453099,-0.42501424885174327,11.460428053089199,-4.481429880750594","0","0"
"97","86","text","0","101","1740486","0-0","","","","","","","","","","","","","","","","","","","","","","","","","","","","","","","","","","","","",""
"","","plant-game","0","102","1766006","0-0","","200","180","4","CORN CROP","Left","200","190","8","THISTLE WEED","experimental","38","1,2,3,4,5,6,7,8","180,181.73540272497806,190.52366466555588,217.28830378413298,160,214.63692324452376,199.73545398541512,233.48504157135932","4,3,2,1,4,3,2,1","CORN CROP,CORN CROP,CORN CROP,CORN CROP,WHEAT CROP,WHEAT CROP,WHEAT CROP,WHEAT CROP","190,209.34866373530164,218.76899430599482,284.15567524937944,297.26518947232336,291.3922145520332,298.24804106519974,295.71583735638256","8,7,6,5,4,3,2,1","THISTLE WEED,THISTLE WEED,THISTLE WEED,THISTLE WEED,THISTLE WEED,THISTLE WEED,THISTLE WEED,THISTLE WEED","20,20,20,20,20,20,20,20","20,20,20,20,20,20,20,20","10,10,10,10,10,10,10,10","20,20,20,20,20,20,20,20","0,0,0,0,0,0,0,0","20,20,20,20,20,20,20,20","20,20,20,20,20,20,20,20","20,20,20,20,20,20,20,20","10,10,10,10,10,10,10,10","20,20,20,20,20,20,20,20","0,0,0,0,0,0,0,0","20,20,20,20,20,20,20,20","1,0,0,0,0,0,0,0","643,9158,489,131,5956,1026,518,393","1.7354027249780462,8.788261940577813,26.764639118577087,35.30132736096783,54.63692324452376,-14.901469259108651,33.7495875859442,55.54483917961048","19.34866373530165,9.420330570693178,65.38668094338462,13.109514222943915,-5.872974920290165,6.855826513166555,-2.532203708817189,24.48452534868997","0","0"
"81","86","text","0","103","1766167","0-0","","","","","","","","","","","","","","","","","","","","","","","","","","","","","","","","","","","","",""
"","","plant-game","0","104","1799664","0-0","","200","120","8","WHEAT CROP","Right","200","180","4","THISTLE WEED","experimental","39","1,2,3,4,5,6,7,8","180,166.87788760302345,128.07284662753506,134.2664340559024,160,163.05156164455582,163.47766564514006,132.83770000840406","4,3,2,1,4,3,2,1","THISTLE WEED,THISTLE WEED,THISTLE WEED,THISTLE WEED,NETTLE WEED,NETTLE WEED,NETTLE WEED,NETTLE WEED","120,107.23189407365922,99.06066502748364,57.90354280472639,67.16116618047735,40.84727689198097,73.94945276427966,46.23033370709575","8,7,6,5,4,3,2,1","WHEAT CROP,WHEAT CROP,WHEAT CROP,WHEAT CROP,WHEAT CROP,WHEAT CROP,WHEAT CROP,WHEAT CROP","0,0,0,0,0,0,0,0","20,20,20,20,20,20,20,20","10,10,10,10,10,10,10,10","20,20,20,20,20,20,20,20","20,20,20,20,20,20,20,20","20,20,20,20,20,20,20,20","0,0,0,0,0,0,0,0","20,20,20,20,20,20,20,20","10,10,10,10,10,10,10,10","20,20,20,20,20,20,20,20","20,20,20,20,20,20,20,20","20,20,20,20,20,20,20,20","0,0,0,0,0,0,0,0","9382,428,490,969,10839,388,360,378","-13.12211239697654,-38.8050409754884,6.193587428367351,29.956771406060824,3.0515616445558136,0.42610400058425785,-30.63996563673601,-0.941989913024477","-12.76810592634078,-8.171229046175583,-41.157122222757245,9.257623375750953,-26.31388928849638,33.10217587229869,-27.719119057183907,15.349910125595594","0","0"
"106","86","text","0","105","1799863","0-0","","","","","","","","","","","","","","","","","","","","","","","","","","","","","","","","","","","","",""
"","","plant-game","0","106","1824551","0-0","","200","120","2","CORN CROP","Left","200","180","4","THISTLE WEED","experimental","40","1,2,3,4","120,136.8255661196008,180,210.1543727049764","2,1,2,1","CORN CROP,CORN CROP,WHEAT CROP,WHEAT CROP","180,166.85013096011613,184.2619899162717,191.2872099335329","4,3,2,1","THISTLE WEED,THISTLE WEED,THISTLE WEED,THISTLE WEED","20,20,20,20","20,20,20,20","10,10,10,10","20,20,20,20","0,0,0,0","20,20,20,20","20,20,20,20","20,20,20,20","10,10,10,10","20,20,20,20","0,0,0,0","20,20,20,20","1,1,0,1","5619,181,4580,5029","16.82556611960081,-15.938095569060007,30.1543727049764,7.829455336458383","-13.149869039883853,17.411858956155548,7.0252200172612,4.235983753705633","0","0"
"70","86","text","0","107","1824741","0-0","","","","","","","","","","","","","","","","","","","","","","","","","","","","","","","","","","","","",""
"","","plant-game","0","108","1843588","0-0","","200","190","1","WHEAT CROP","Left","200","190","2","THISTLE WEED","experimental","41","1,2","190,190","1,1","WHEAT CROP,CORN CROP","190,204.45876689525898","2,1","THISTLE WEED,THISTLE WEED","20,20","20,20","10,10","20,20","0,0","20,20","20,20","20,20","10,10","20,20","0,0","20,20","0,0","5414,4024","45.95705472342182,20.036447183365052","14.458766895258961,2.36081679565374","0","0"
"156","86","text","0","109","1843844","0-0","","","","","","","","","","","","","","","","","","","","","","","","","","","","","","","","","","","","",""
"","","plant-game","0","110","1871237","0-0","","200","190","1","CORN CROP","Right","200","160","8","NETTLE WEED","experimental","42","1,2,3,4,5,6,7,8","160,161.6863427054411,168.14049807018867,187.28654957077595,183.34845237816438,174.4537465221947,181.9063774268938,170.00159515748078","8,7,6,5,4,3,2,1","NETTLE WEED,NETTLE WEED,NETTLE WEED,NETTLE WEED,NETTLE WEED,NETTLE WEED,NETTLE WEED,NETTLE WEED","190,130,157.35914043862016,180.27272321698442,205.44473670286553,221.1242570646636,229.88394218008662,235.33323597015493","1,7,6,5,4,3,2,1","CORN CROP,WHEAT CROP,WHEAT CROP,WHEAT CROP,WHEAT CROP,WHEAT CROP,WHEAT CROP,WHEAT CROP","0,0,0,0,0,0,0,0","20,20,20,20,20,20,20,20","10,10,10,10,10,10,10,10","20,20,20,20,20,20,20,20","20,20,20,20,20,20,20,20","20,20,20,20,20,20,20,20","0,0,0,0,0,0,0,0","20,20,20,20,20,20,20,20","10,10,10,10,10,10,10,10","20,20,20,20,20,20,20,20","20,20,20,20,20,20,20,20","20,20,20,20,20,20,20,20","0,1,1,0,0,0,0,0","5744,6221,441,1850,1245,901,795,936","1.6863427054410962,6.454155364747569,19.146051500587262,-3.9380971926115658,-8.894705855969663,7.452630904699112,-11.904782269413037,-3.21136700848889","-6.559656184610163,27.359140438620166,22.91358277836425,25.17201348588111,15.679520361798062,8.759685115423027,5.4492937900683005,-17.279189164658856","0","0"
"97","86","text","0","111","1871484","0-0","","","","","","","","","","","","","","","","","","","","","","","","","","","","","","","","","","","","",""
"","","plant-game","0","112","1881900","0-0","","200","160","4","WHEAT CROP","Left","200","190","4","NETTLE WEED","experimental","43","1,2,3,4","160,155.74377188333122,161.76677236240283,128.82739919893248","4,3,2,1","WHEAT CROP,WHEAT CROP,WHEAT CROP,WHEAT CROP","190,174.21004156796386,185.89241628492616,135.9551331301377","4,3,2,1","NETTLE WEED,NETTLE WEED,NETTLE WEED,NETTLE WEED","20,20,20,20","20,20,20,20","10,10,10,10","20,20,20,20","0,0,0,0","20,20,20,20","20,20,20,20","20,20,20,20","10,10,10,10","20,20,20,20","0,0,0,0","20,20,20,20","1,1,1,1","2935,592,710,1798","-4.256228116668781,6.023000479071623,-32.939373163470364,22.688517716067906","-15.789958432036144,11.68237471696229,-49.93728315478844,-15.936294472890847","0","0"
"105","86","text","0","113","1882083","0-0","","","","","","","","","","","","","","","","","","","","","","","","","","","","","","","","","","","","",""
"","","plant-game","0","114","1901481","0-0","","200","120","8","CORN CROP","Right","200","190","8","THISTLE WEED","experimental","44","1,2,3,4,5,6,7,8","190,213.99207093118127,276.5222096665787,305.2213691653453,337.8914999325157,362.13541639975017,406.1961343671622,424.49578024379935","8,7,6,5,4,3,2,1","THISTLE WEED,THISTLE WEED,THISTLE WEED,THISTLE WEED,THISTLE WEED,THISTLE WEED,THISTLE WEED,THISTLE WEED","120,117.67993228560331,122.75257758560215,144.80993443462256,173.17629790505458,209.89553083004589,205.65654818097994,197.94462976620602","8,7,6,5,4,3,2,1","CORN CROP,CORN CROP,CORN CROP,CORN CROP,CORN CROP,CORN CROP,CORN CROP,CORN CROP","0,0,0,0,0,0,0,0","20,20,20,20,20,20,20,20","10,10,10,10,10,10,10,10","20,20,20,20,20,20,20,20","20,20,20,20,20,20,20,20","20,20,20,20,20,20,20,20","0,0,0,0,0,0,0,0","20,20,20,20,20,20,20,20","10,10,10,10,10,10,10,10","20,20,20,20,20,20,20,20","20,20,20,20,20,20,20,20","20,20,20,20,20,20,20,20","0,1,1,1,1,1,1,1","4716,4637,1215,422,157,530,167,290","23.99207093118127,62.530138735397415,28.699159498766633,32.670130767170406,24.243916467234413,44.06071796741202,18.29964587663715,13.586678650458385","-2.32006771439668,5.072645299998841,22.057356849020408,28.366363470432013,36.719232924991296,-4.23898264906596,-7.711918414773908,25.44271409485873","0","0"
"743","86","text","0","115","1902374","0-0","","","","","","","","","","","","","","","","","","","","","","","","","","","","","","","","","","","","",""
"","","plant-game","0","116","1921347","0-0","","200","180","1","CORN CROP","Left","200","160","2","NETTLE WEED","experimental","45","1,2","180,190","1,1","CORN CROP,WHEAT CROP","160,185.7422754916636","2,1","NETTLE WEED,NETTLE WEED","20,20","20,20","10,10","20,20","0,0","20,20","20,20","20,20","10,10","20,20","0,0","20,20","1,0","5125,5075","-8.188048478034158,35.517575427200384","25.742275491663612,29.604381467053067","0","0"
"731","86","text","0","117","1922169","0-0","","","","","","","","","","","","","","","","","","","","","","","","","","","","","","","","","","","","",""
"","","plant-game","0","118","1935094","0-0","","200","180","2","WHEAT CROP","Left","200","120","2","THISTLE WEED","experimental","46","1,2","180,170.09978860197225","2,1","WHEAT CROP,WHEAT CROP","120,129.7294138572228","2,1","THISTLE WEED,THISTLE WEED","20,20","20,20","10,10","20,20","0,0","20,20","20,20","20,20","10,10","20,20","0,0","20,20","1,0","6286,2575","-9.90021139802775,9.872382438565507","9.729413857222784,29.277107806030294","0","0"
"177","86","text","0","119","1935451","0-0","","","","","","","","","","","","","","","","","","","","","","","","","","","","","","","","","","","","",""
"","","plant-game","0","120","1946959","0-0","","200","180","1","CORN CROP","Left","200","120","1","THISTLE WEED","experimental","47","1","180","1","CORN CROP","120","1","THISTLE WEED","20","20","10","20","0","20","20","20","10","20","0","20","0","7914","4.4879576918587745","41.973001766343785","0","0"
"544","86","text","0","121","1947737","0-0","","","","","","","","","","","","","","","","","","","","","","","","","","","","","","","","","","","","",""
"","","plant-game","0","122","1984533","0-0","","200","120","2","CORN CROP","Left","200","120","8","THISTLE WEED","experimental","48","1,2,3,4,5,6,7,8","120,130.09338964869744,140,166.92093264992715,173.71728547634672,159.93431533784894,176.44309799277772,212.52954269625474","2,1,6,5,4,3,2,1","CORN CROP,CORN CROP,WHEAT CROP,WHEAT CROP,WHEAT CROP,WHEAT CROP,WHEAT CROP,WHEAT CROP","120,139.3549939835223,150.36424736822025,165.2629659253069,214.7181227611665,189.6138075803027,238.58779933070724,282.5673793317439","8,7,6,5,4,3,2,1","THISTLE WEED,THISTLE WEED,THISTLE WEED,THISTLE WEED,THISTLE WEED,THISTLE WEED,THISTLE WEED,THISTLE WEED","20,20,20,20,20,20,20,20","20,20,20,20,20,20,20,20","10,10,10,10,10,10,10,10","20,20,20,20,20,20,20,20","0,0,0,0,0,0,0,0","20,20,20,20,20,20,20,20","20,20,20,20,20,20,20,20","20,20,20,20,20,20,20,20","10,10,10,10,10,10,10,10","20,20,20,20,20,20,20,20","0,0,0,0,0,0,0,0","20,20,20,20,20,20,20,20","0,0,0,0,1,1,0,0","8788,429,9620,1998,1899,3228,2027,958","10.093389648697435,23.031462833810856,26.92093264992715,6.7963528264195645,-13.782970138497767,16.50878265492878,36.086444703477014,-20.22389676253991","19.35499398352229,11.00925338469795,14.898718557086656,49.4551568358596,-25.104315180863793,48.97399175040452,43.97958000103665,17.868148447952613","0","0"
"83","86","text","0","123","1984726","0-0","","","","","","","","","","","","","","","","","","","","","","","","","","","","","","","","","","","","",""
"","","plant-game","0","124","1996517","0-0","","200","120","4","CORN CROP","Left","200","120","4","THISTLE WEED","experimental","49","1,2,3,4","120,130.67553511103716,151.23068950296263,161.27323898407894","4,3,2,1","CORN CROP,CORN CROP,CORN CROP,CORN CROP","120,138.13607140754146,145.36200226231492,143.52364136909412","4,3,2,1","THISTLE WEED,THISTLE WEED,THISTLE WEED,THISTLE WEED","20,20,20,20","20,20,20,20","10,10,10,10","20,20,20,20","0,0,0,0","20,20,20,20","20,20,20,20","20,20,20,20","10,10,10,10","20,20,20,20","0,0,0,0","20,20,20,20","1,1,1,1","5422,564,441,426","10.675535111037153,20.555154391925473,10.042549481116321,16.015745119576952","18.13607140754146,7.225930854773459,-1.8383608932207904,-2.9159592047424865","0","0"
"688","86","text","0","125","1997361","0-0","","","","","","","","","","","","","","","","","","","","","","","","","","","","","","","","","","","","",""
"","","plant-game","0","126","2020986","0-0","","200","160","2","WHEAT CROP","Left","200","160","1","THISTLE WEED","experimental","50","1,2","160,202.7639524607264","2,1","WHEAT CROP,WHEAT CROP","160,190","1,1","THISTLE WEED,NETTLE WEED","20,20","20,20","10,10","20,20","0,0","20,20","20,20","20,20","10,10","20,20","0,0","20,20","0,0","3470,9947","42.76395246072637,-4.426566600845856","-11.804923859958791,24.838223378684447","0","0"
"167","86","text","0","127","2021223","0-0","","","","","","","","","","","","","","","","","","","","","","","","","","","","","","","","","","","","",""
"","","plant-game","0","128","2037442","0-0","","200","160","1","WHEAT CROP","Left","200","190","2","THISTLE WEED","experimental","51","1,2","160,190","1,1","WHEAT CROP,CORN CROP","190,219.77961345833774","2,1","THISTLE WEED,THISTLE WEED","20,20","20,20","10,10","20,20","0,0","20,20","20,20","20,20","10,10","20,20","0,0","20,20","0,0","3203,6006","40.13951126662535,34.59591244990109","29.77961345833774,56.03560607489313","0","0"
"519","86","text","0","129","2038136","0-0","","","","","","","","","","","","","","","","","","","","","","","","","","","","","","","","","","","","",""
"","","plant-game","0","130","2069340","0-0","","200","180","4","WHEAT CROP","Right","200","160","8","THISTLE WEED","experimental","52","1,2,3,4,5,6,7,8","160,175.0109339283132,186.3761351456038,184.37970329577888,189.2692925032721,200.91839439887482,162.30065281684736,161.69490126871895","8,7,6,5,4,3,2,1","THISTLE WEED,THISTLE WEED,THISTLE WEED,THISTLE WEED,THISTLE WEED,THISTLE WEED,THISTLE WEED,THISTLE WEED","180,211.12671975535778,240.42949382290863,248.8415664237582,160,163.6376961956499,163.88543327709542,152.08566694757374","4,3,2,1,4,3,2,1","WHEAT CROP,WHEAT CROP,WHEAT CROP,WHEAT CROP,CORN CROP,CORN CROP,CORN CROP,CORN CROP","0,0,0,0,0,0,0,0","20,20,20,20,20,20,20,20","10,10,10,10,10,10,10,10","20,20,20,20,20,20,20,20","20,20,20,20,20,20,20,20","20,20,20,20,20,20,20,20","0,0,0,0,0,0,0,0","20,20,20,20,20,20,20,20","10,10,10,10,10,10,10,10","20,20,20,20,20,20,20,20","20,20,20,20,20,20,20,20","20,20,20,20,20,20,20,20","0,0,0,0,1,0,0,0","7045,1691,619,979,6709,2570,563,425","15.010933928313197,11.365201217290606,-1.9964318498249236,4.889589207493243,11.649101895602714,-38.617741582027456,-0.6057515481284184,16.961983164683186","31.12671975535777,29.30277406755083,8.412072600849568,-10.928129522798073,3.6376961956499123,0.24773708144549583,-11.799766329521661,50.313943674580734","0","0"
"118","86","text","0","131","2069572","0-0","","","","","","","","","","","","","","","","","","","","","","","","","","","","","","","","","","","","",""
"","","plant-game","0","132","2112001","0-0","","200","120","4","WHEAT CROP","Right","200","120","1","THISTLE WEED","experimental","53","1,2,3,4","120,170,177.52555795002982,131.21683128949655","1,3,2,1","THISTLE WEED,NETTLE WEED,NETTLE WEED,NETTLE WEED","120,164.22590295888332,155.5305462264997,162.26060957258954","4,3,2,1","WHEAT CROP,WHEAT CROP,WHEAT CROP,WHEAT CROP","0,0,0,0","20,20,20,20","10,10,10,10","20,20,20,20","20,20,20,20","20,20,20,20","0,0,0,0","20,20,20,20","10,10,10,10","20,20,20,20","20,20,20,20","20,20,20,20","1,0,0,1","26360,5792,551,1374","16.210256735633575,7.525557950029822,-46.308726660533274,-14.40770745328087","44.22590295888333,-8.69535673238364,6.730063346089864,-12.194596682431332","0","0"
"58","86","text","0","133","2112200","0-0","","","","","","","","","","","","","","","","","","","","","","","","","","","","","","","","","","","","",""
"","","plant-game","0","134","2146116","0-0","","200","190","8","WHEAT CROP","Left","200","120","2","THISTLE WEED","experimental","54","1,2,3,4,5,6,7,8","190,205.9168152045228,219.13173078411663,240.21883459360714,240.1125801804646,253.07858406405157,229.81421336288423,249.73966641363802","8,7,6,5,4,3,2,1","WHEAT CROP,WHEAT CROP,WHEAT CROP,WHEAT CROP,WHEAT CROP,WHEAT CROP,WHEAT CROP,WHEAT CROP","120,103.5995169702031,140,90.65761984175268,97.436723716654,114.42565014854273,115.76537013993743,156.57030410357612","2,1,6,5,4,3,2,1","THISTLE WEED,THISTLE WEED,NETTLE WEED,NETTLE WEED,NETTLE WEED,NETTLE WEED,NETTLE WEED,NETTLE WEED","20,20,20,20,20,20,20,20","20,20,20,20,20,20,20,20","10,10,10,10,10,10,10,10","20,20,20,20,20,20,20,20","0,0,0,0,0,0,0,0","20,20,20,20,20,20,20,20","20,20,20,20,20,20,20,20","20,20,20,20,20,20,20,20","10,10,10,10,10,10,10,10","20,20,20,20,20,20,20,20","0,0,0,0,0,0,0,0","20,20,20,20,20,20,20,20","0,0,1,1,1,1,0,1","3064,5691,7496,1157,759,903,2963,2339","15.9168152045228,13.214915579593816,21.087103809490518,-0.10625441314256248,12.966003883586968,-23.26437070116733,19.925453050753788,16.8317828235082","-16.400483029796895,-11.10388071162285,-49.34238015824732,6.7791038749013275,16.98892643188873,1.3397199913947047,40.804933963638675,-15.02611616357793","0","0"
"172","86","text","0","135","2146351","0-0","","","","","","","","","","","","","","","","","","","","","","","","","","","","","","","","","","","","",""
"","","plant-game","0","136","2174596","0-0","","200","160","2","WHEAT CROP","Left","200","190","4","THISTLE WEED","experimental","55","1,2,3,4","160,182.12684048414218,180,177.3518094669349","2,1,2,1","WHEAT CROP,WHEAT CROP,CORN CROP,CORN CROP","190,196.3000989791655,211.947773598301,228.65554714837864","4,3,2,1","THISTLE WEED,THISTLE WEED,THISTLE WEED,THISTLE WEED","20,20,20,20","20,20,20,20","10,10,10,10","20,20,20,20","0,0,0,0","20,20,20,20","20,20,20,20","20,20,20,20","10,10,10,10","20,20,20,20","0,0,0,0","20,20,20,20","1,0,0,1","7790,4405,4286,2816","22.126840484142193,18.41803989001378,-2.648190533065108,-10.923495270918593","6.300098979165513,15.647674619135493,16.70777355007763,-15.405783648237135","1","0"
"129","86","text","0","137","2174845","0-0","","","","","","","","","","","","","","","","","","","","","","","","","","","","","","","","","","","","",""
"","","plant-game","0","138","2223345","0-0","","200","180","2","WHEAT CROP","Left","200","120","4","NETTLE WEED","experimental","56","1,2,3,4","180,228.48063290056643,180,210.66214641440473","2,1,2,1","WHEAT CROP,WHEAT CROP,CORN CROP,CORN CROP","120,148.82190780182782,154.88554167031256,145.47629816940082","4,3,2,1","NETTLE WEED,NETTLE WEED,NETTLE WEED,NETTLE WEED","20,20,20,20","20,20,20,20","10,10,10,10","20,20,20,20","0,0,0,0","20,20,20,20","20,20,20,20","20,20,20,20","10,10,10,10","20,20,20,20","0,0,0,0","20,20,20,20","0,1,0,0","7438,5712,25769,1726","48.48063290056644,17.642746594097662,30.66214641440474,38.02535786136454","28.821907801827813,6.0636338684847395,-9.409243500911735,55.2264818340988","0","0"
"73","86","text","0","139","2223513","0-0","","","","","","","","","","","","","","","","","","","","","","","","","","","","","","","","","","","","",""
"","","plant-game","0","140","2252383","0-0","","200","160","2","CORN CROP","Left","200","160","8","NETTLE WEED","experimental","57","1,2,3,4,5,6,7,8","160,178.73724036276505,140,151.84263014559286,181.51766187869922,211.48666962180775,195.78715311154394,219.37149889123262","2,1,6,5,4,3,2,1","CORN CROP,CORN CROP,WHEAT CROP,WHEAT CROP,WHEAT CROP,WHEAT CROP,WHEAT CROP,WHEAT CROP","160,187.69161389115794,176.05544085329333,224.90975226227624,261.9536801623058,260.1157544627555,265.3608405645424,324.53039060959765","8,7,6,5,4,3,2,1","NETTLE WEED,NETTLE WEED,NETTLE WEED,NETTLE WEED,NETTLE WEED,NETTLE WEED,NETTLE WEED,NETTLE WEED","20,20,20,20,20,20,20,20","20,20,20,20,20,20,20,20","10,10,10,10,10,10,10,10","20,20,20,20,20,20,20,20","0,0,0,0,0,0,0,0","20,20,20,20,20,20,20,20","20,20,20,20,20,20,20,20","20,20,20,20,20,20,20,20","10,10,10,10,10,10,10,10","20,20,20,20,20,20,20,20","0,0,0,0,0,0,0,0","20,20,20,20,20,20,20,20","0,1,0,0,0,1,0,0","3812,5100,4248,1137,439,3854,1528,664","18.73724036276504,2.5764515148145857,11.842630145592855,29.675031733106355,29.969007743108527,-15.699516510263813,23.584345779688665,-2.4842351849414257","27.691613891157957,-11.636173037864614,48.854311408982895,37.04392790002953,-1.8379256995502686,5.245086101786905,59.16955004505525,11.754115740948016","0","0"
"106","86","text","0","141","2252572","0-0","","","","","","","","","","","","","","","","","","","","","","","","","","","","","","","","","","","","",""
"","","plant-game","0","142","2284051","0-0","","200","120","8","CORN CROP","Left","200","120","4","THISTLE WEED","experimental","58","1,2,3,4,5,6,7,8","120,154.36946140886522,198.04139447535866,246.64286618674797,275.5588484434154,298.8553853173243,300.54238416821414,354.0188923168896","8,7,6,5,4,3,2,1","CORN CROP,CORN CROP,CORN CROP,CORN CROP,CORN CROP,CORN CROP,CORN CROP,CORN CROP","120,145.28694000434382,182.04574804910195,201.54352588993845,160,142.42130013748152,114.47827935768598,109.05249112010713","4,3,2,1,4,3,2,1","THISTLE WEED,THISTLE WEED,THISTLE WEED,THISTLE WEED,NETTLE WEED,NETTLE WEED,NETTLE WEED,NETTLE WEED","20,20,20,20,20,20,20,20","20,20,20,20,20,20,20,20","10,10,10,10,10,10,10,10","20,20,20,20,20,20,20,20","0,0,0,0,0,0,0,0","20,20,20,20,20,20,20,20","20,20,20,20,20,20,20,20","20,20,20,20,20,20,20,20","10,10,10,10,10,10,10,10","20,20,20,20,20,20,20,20","0,0,0,0,0,0,0,0","20,20,20,20,20,20,20,20","0,0,0,1,1,1,1,1","7780,483,1348,5502,7710,379,689,517","34.369461408865234,43.67193306649344,48.60147171138931,28.915982256667423,23.29653687390891,1.6869988508898417,53.47650814867545,52.64808191943808","25.28694000434382,36.758808044758126,19.497777840836502,-28.594075088367653,-17.57869986251848,-27.943020779795546,-5.425788237578847,-4.602482863360039","0","0"
"108","86","text","0","143","2284471","0-0","","","","","","","","","","","","","","","","","","","","","","","","","","","","","","","","","","","","",""
"","","plant-game","0","144","2333839","0-0","","200","120","4","CORN CROP","Right","200","180","2","NETTLE WEED","experimental","59","1,2,3,4","180,211.95201952469833,180,202.7294407674663","2,1,2,1","NETTLE WEED,NETTLE WEED,THISTLE WEED,THISTLE WEED","120,132.6686911945082,148.5220572270649,154.80675892617583","4,3,2,1","CORN CROP,CORN CROP,CORN CROP,CORN CROP","0,0,0,0","20,20,20,20","10,10,10,10","20,20,20,20","20,20,20,20","20,20,20,20","0,0,0,0","20,20,20,20","10,10,10,10","20,20,20,20","20,20,20,20","20,20,20,20","1,0,1,1","16853,3036,22775,398","31.952019524698322,0.3116690773307965,22.72944076746628,4.095685842943368","12.668691194508199,15.853366032556696,6.28470169911094,56.45933535013589","0","0"
"647","86","text","0","145","2334589","0-0","","","","","","","","","","","","","","","","","","","","","","","","","","","","","","","","","","","","",""
"","","plant-game","0","146","2347309","0-0","","200","180","4","WHEAT CROP","Right","200","190","4","THISTLE WEED","experimental","60","1,2,3,4","190,204.67671931859596,226.94367369534226,255.28522838736365","4,3,2,1","THISTLE WEED,THISTLE WEED,THISTLE WEED,THISTLE WEED","180,195.9146699828499,203.03810537577755,208.85768716117258","4,3,2,1","WHEAT CROP,WHEAT CROP,WHEAT CROP,WHEAT CROP","0,0,0,0","20,20,20,20","10,10,10,10","20,20,20,20","20,20,20,20","20,20,20,20","0,0,0,0","20,20,20,20","10,10,10,10","20,20,20,20","20,20,20,20","20,20,20,20","0,0,0,0","7487,484,180,173","14.676719318595959,22.266954376746302,28.34155469202138,-21.299034752686545","15.914669982849873,7.123435392927649,5.819581785395041,-20.222523805095115","0","0"
"280","86","text","0","147","2347733","0-0","","","","","","","","","","","","","","","","","","","","","","","","","","","","","","","","","","","","",""
"","","plant-game","0","148","2377924","0-0","","200","120","1","CORN CROP","Right","200","120","8","THISTLE WEED","experimental","61","1,2,3,4,5,6,7,8","120,168.45452983127157,177.7519638198242,184.89841890564466,187.69647309782837,213.85817445886187,225.31454743711416,218.74421285958604","8,7,6,5,4,3,2,1","THISTLE WEED,THISTLE WEED,THISTLE WEED,THISTLE WEED,THISTLE WEED,THISTLE WEED,THISTLE WEED,THISTLE WEED","120,130,163.41876503876847,144.5922756127737,157.6803826741302,127.80719518499258,102.51831247554446,144.53428256031165","1,7,6,5,4,3,2,1","CORN CROP,WHEAT CROP,WHEAT CROP,WHEAT CROP,WHEAT CROP,WHEAT CROP,WHEAT CROP,WHEAT CROP","0,0,0,0,0,0,0,0","20,20,20,20,20,20,20,20","10,10,10,10,10,10,10,10","20,20,20,20,20,20,20,20","20,20,20,20,20,20,20,20","20,20,20,20,20,20,20,20","0,0,0,0,0,0,0,0","20,20,20,20,20,20,20,20","10,10,10,10,10,10,10,10","20,20,20,20,20,20,20,20","20,20,20,20,20,20,20,20","20,20,20,20,20,20,20,20","1,0,0,0,0,1,1,1","5692,7386,694,551,372,2922,2704,586","48.454529831271564,9.29743398855263,7.1464550858204685,2.7980541921837156,26.16170136103349,11.45637297825228,-6.570334577528108,33.69908051031325","-5.315769653045045,33.41876503876847,-18.826489425994758,13.08810706135648,-29.873187489137607,-25.288882709448117,42.01597008476719,42.323090028280376","0","0"
"610","86","text","0","149","2378644","0-0","","","","","","","","","","","","","","","","","","","","","","","","","","","","","","","","","","","","",""
"","","plant-game","0","150","2425281","0-0","","200","180","8","CORN CROP","Left","200","190","2","THISTLE WEED","experimental","62","1,2,3,4,5,6,7,8","180,174.77400943527493,194.8259550802967,239.06716604869905,238.11649644362393,258.61169817016304,229.68795256676307,231.3559698363813","8,7,6,5,4,3,2,1","CORN CROP,CORN CROP,CORN CROP,CORN CROP,CORN CROP,CORN CROP,CORN CROP,CORN CROP","190,158.91518557292795,140,159.95939305726554,135.54349788341142,155.1606505651113,174.43228314255975,166.81885075448827","2,1,6,5,4,3,2,1","THISTLE WEED,THISTLE WEED,NETTLE WEED,NETTLE WEED,NETTLE WEED,NETTLE WEED,NETTLE WEED,NETTLE WEED","20,20,20,20,20,20,20,20","20,20,20,20,20,20,20,20","10,10,10,10,10,10,10,10","20,20,20,20,20,20,20,20","0,0,0,0,0,0,0,0","20,20,20,20,20,20,20,20","20,20,20,20,20,20,20,20","20,20,20,20,20,20,20,20","10,10,10,10,10,10,10,10","20,20,20,20,20,20,20,20","0,0,0,0,0,0,0,0","20,20,20,20,20,20,20,20","1,1,0,0,0,0,0,0","7839,466,7343,2101,1032,993,273,146","-5.225990564725053,20.051945645021753,44.24121096840237,-0.9506696050751273,20.49520172653913,-28.923745603399965,1.6680172696182325,11.096083591525664","-31.08481442707206,14.621290236855753,19.959393057265537,-24.415895173854132,19.61715268169989,19.271632577448443,-7.613432388071473,-8.378335504602006","1","0"
"106","86","text","0","151","2425480","0-0","","","","","","","","","","","","","","","","","","","","","","","","","","","","","","","","","","","","",""
"","","plant-game","0","152","2447207","0-0","","200","180","1","WHEAT CROP","Right","200","160","8","THISTLE WEED","experimental","63","1,2,3,4,5,6,7,8","160,153.6564244981114,187.17377107498336,205.7963687439886,193.80545849149235,208.07690527066725,239.29990233611377,235.3476306347962","8,7,6,5,4,3,2,1","THISTLE WEED,THISTLE WEED,THISTLE WEED,THISTLE WEED,THISTLE WEED,THISTLE WEED,THISTLE WEED,THISTLE WEED","180,130,166.05112904477073,162.4609440120987,188.04927267860558,201.15594123386006,235.53050735775014,220.4932351955909","1,7,6,5,4,3,2,1","WHEAT CROP,CORN CROP,CORN CROP,CORN CROP,CORN CROP,CORN CROP,CORN CROP,CORN CROP","0,0,0,0,0,0,0,0","20,20,20,20,20,20,20,20","10,10,10,10,10,10,10,10","20,20,20,20,20,20,20,20","20,20,20,20,20,20,20,20","20,20,20,20,20,20,20,20","0,0,0,0,0,0,0,0","20,20,20,20,20,20,20,20","10,10,10,10,10,10,10,10","20,20,20,20,20,20,20,20","20,20,20,20,20,20,20,20","20,20,20,20,20,20,20,20","0,1,1,1,1,1,1,1","4669,3228,201,779,369,439,705,797","-6.343575501888623,33.51734657687197,18.622597669005238,-11.990910252496256,14.271446779174912,31.222997065446517,-3.952271701317599,-3.8179947320684775","-2.071156440013046,36.05112904477072,-3.590185032672011,25.588328666506875,13.1066685552545,34.37456612389009,-15.037272162159255,7.53331951371006","0","0"
"110","86","text","0","153","2447467","0-0","","","","","","","","","","","","","","","","","","","","","","","","","","","","","","","","","","","","",""
"","","plant-game","0","154","2469818","0-0","","200","190","4","CORN CROP","Left","200","190","2","THISTLE WEED","experimental","64","1,2,3,4","190,227.7620807008038,194.58504250436954,226.84938129798186","4,3,2,1","CORN CROP,CORN CROP,CORN CROP,CORN CROP","190,193.79373351808988,180,200.79681613862985","2,1,2,1","THISTLE WEED,THISTLE WEED,NETTLE WEED,NETTLE WEED","20,20,20,20","20,20,20,20","10,10,10,10","20,20,20,20","0,0,0,0","20,20,20,20","20,20,20,20","20,20,20,20","10,10,10,10","20,20,20,20","0,0,0,0","20,20,20,20","1,1,0,0","3739,3661,6185,1196","37.7620807008038,-33.17703819643425,32.264338793612325,13.874150842335677","3.793733518089873,-28.486980560404543,20.796816138629847,16.30347126513592","0","0"
"125","86","text","0","155","2470090","0-0","","","","","","","","","","","","","","","","","","","","","","","","","","","","","","","","","","","","",""
"","","plant-game","0","156","2557547","0-0","","200","160","4","WHEAT CROP","Left","200","180","8","THISTLE WEED","experimental","65","1,2,3,4,5,6,7,8","160,178.31787676279563,190.41172674324955,203.94290909489533,160,190.6904684226322,199.26404103263093,226.11294694939568","4,3,2,1,4,3,2,1","WHEAT CROP,WHEAT CROP,WHEAT CROP,WHEAT CROP,CORN CROP,CORN CROP,CORN CROP,CORN CROP","180,232.14299697189082,252.7523050895952,286.91697381302123,340.603732021336,341.36389256883353,349.8222794395359,373.5132329118213","8,7,6,5,4,3,2,1","THISTLE WEED,THISTLE WEED,THISTLE WEED,THISTLE WEED,THISTLE WEED,THISTLE WEED,THISTLE WEED,THISTLE WEED","20,20,20,20,20,20,20,20","20,20,20,20,20,20,20,20","10,10,10,10,10,10,10,10","20,20,20,20,20,20,20,20","0,0,0,0,0,0,0,0","20,20,20,20,20,20,20,20","20,20,20,20,20,20,20,20","20,20,20,20,20,20,20,20","10,10,10,10,10,10,10,10","20,20,20,20,20,20,20,20","0,0,0,0,0,0,0,0","20,20,20,20,20,20,20,20","0,0,0,0,0,0,0,0","3403,38794,30459,1008,4721,125,276,139","18.317876762795645,12.093849980453921,13.531182351645782,-15.637722674298566,30.69046842263219,8.573572609998736,26.848905916764764,50.698565849651686","52.14299697189083,20.609308117704394,34.164668723426004,53.686758208314764,0.7601605474975415,8.458386870702393,23.690953472285404,-23.317063695508097","0","0"
"1347","86","text","0","157","2559034","0-0","","","","","","","","","","","","","","","","","","","","","","","","","","","","","","","","","","","","",""
"","","plant-game","0","158","2574852","0-0","","200","120","2","CORN CROP","Right","200","160","2","NETTLE WEED","experimental","66","1,2","160,203.9543928079496","2,1","NETTLE WEED,NETTLE WEED","120,80.4900139223191","2,1","CORN CROP,CORN CROP","0,0","20,20","10,10","20,20","20,20","20,20","0,0","20,20","10,10","20,20","20,20","20,20","1,0","8087,2750","43.95439280794959,24.60213235922599","-39.50998607768091,-48.12793873621889","0","0"
"484","86","text","0","159","2575466","0-0","","","","","","","","","","","","","","","","","","","","","","","","","","","","","","","","","","","","",""
"","","plant-game","0","160","2592159","0-0","","200","190","8","WHEAT CROP","Right","200","160","8","THISTLE WEED","experimental","67","1,2,3,4,5,6,7,8","160,187.6169228706869,185.37667324196414,209.52837801309218,243.32072445532992,255.20775494978434,286.66238777611164,299.2818460156571","8,7,6,5,4,3,2,1","THISTLE WEED,THISTLE WEED,THISTLE WEED,THISTLE WEED,THISTLE WEED,THISTLE WEED,THISTLE WEED,THISTLE WEED","190,187.3282882337665,147.73788109394724,171.17540543582865,195.14449193340388,220.7915940785033,264.481065541086,307.51332503627134","8,7,6,5,4,3,2,1","WHEAT CROP,WHEAT CROP,WHEAT CROP,WHEAT CROP,WHEAT CROP,WHEAT CROP,WHEAT CROP,WHEAT CROP","0,0,0,0,0,0,0,0","20,20,20,20,20,20,20,20","10,10,10,10,10,10,10,10","20,20,20,20,20,20,20,20","20,20,20,20,20,20,20,20","20,20,20,20,20,20,20,20","0,0,0,0,0,0,0,0","20,20,20,20,20,20,20,20","10,10,10,10,10,10,10,10","20,20,20,20,20,20,20,20","20,20,20,20,20,20,20,20","20,20,20,20,20,20,20,20","1,0,1,1,1,1,1,1","2865,1880,2766,964,601,1063,730,521","27.616922870686906,-2.24024962872275,24.151704771128045,33.79234644223773,11.887030494454432,31.45463282632729,12.619458239545466,18.303195505526265","-2.6717117662335035,-39.59040713981928,23.437524341881424,23.96908649757524,25.647102145099417,43.68947146258274,43.032259495185315,36.16077781142346","0","0"
"463","86","text","0","161","2592782","0-0","","","","","","","","","","","","","","","","","","","","","","","","","","","","","","","","","","","","",""
"","","plant-game","0","162","2616269","0-0","","200","190","1","WHEAT CROP","Left","200","120","1","NETTLE WEED","experimental","68","1","190","1","WHEAT CROP","120","1","NETTLE WEED","20","20","10","20","0","20","20","20","10","20","0","20","1","2734","-2.711878065788075","-6.822747589791662","0","0"
"791","86","text","0","163","2617169","0-0","","","","","","","","","","","","","","","","","","","","","","","","","","","","","","","","","","","","",""
"","","plant-game","0","164","2649974","0-0","","200","120","4","CORN CROP","Right","200","190","2","NETTLE WEED","experimental","69","1,2,3,4","190,225.32740395390465,180,194.34396394262336","2,1,2,1","NETTLE WEED,NETTLE WEED,THISTLE WEED,THISTLE WEED","120,129.03117305604,154.4711495545011,140.45055012837676","4,3,2,1","CORN CROP,CORN CROP,CORN CROP,CORN CROP","0,0,0,0","20,20,20,20","10,10,10,10","20,20,20,20","20,20,20,20","20,20,20,20","0,0,0,0","20,20,20,20","10,10,10,10","20,20,20,20","20,20,20,20","20,20,20,20","1,1,0,1","12438,1809,5490,2656","35.32740395390465,37.25229028586994,14.343963942623375,39.469193390392036","9.03117305604,25.439976498461093,-14.020599426124324,44.07129905051291","1","0"
"1807","86","text","0","165","2651921","0-0","","","","","","","","","","","","","","","","","","","","","","","","","","","","","","","","","","","","",""
"","","plant-game","0","166","2681997","0-0","","200","160","8","CORN CROP","Right","200","190","4","NETTLE WEED","experimental","70","1,2,3,4,5,6,7,8","190,173.236406285861,172.36310236679964,231.63466029514305,160,139.1191750473772,159.02751966416432,135.5794484024101","4,3,2,1,4,3,2,1","NETTLE WEED,NETTLE WEED,NETTLE WEED,NETTLE WEED,THISTLE WEED,THISTLE WEED,THISTLE WEED,THISTLE WEED","160,152.43982192185598,148.11110858574528,179.18871405678462,210.13956371947262,186.25534767991226,196.69442119354508,231.1837414019302","8,7,6,5,4,3,2,1","CORN CROP,CORN CROP,CORN CROP,CORN CROP,CORN CROP,CORN CROP,CORN CROP,CORN CROP","0,0,0,0,0,0,0,0","20,20,20,20,20,20,20,20","10,10,10,10,10,10,10,10","20,20,20,20,20,20,20,20","20,20,20,20,20,20,20,20","20,20,20,20,20,20,20,20","0,0,0,0,0,0,0,0","20,20,20,20,20,20,20,20","10,10,10,10,10,10,10,10","20,20,20,20,20,20,20,20","20,20,20,20,20,20,20,20","20,20,20,20,20,20,20,20","0,0,1,1,0,1,1,1","4541,3200,1829,4889,4026,2797,517,1274","-16.76359371413899,-0.8733039190613551,59.271557928343405,27.88475746873525,-20.880824952622778,19.908344616787115,-23.448071261754237,-14.106847200009895","-7.5601780781440215,-4.328713336110706,31.077605471039323,30.950849662687993,-23.88421603956035,10.439073513632811,34.48932020838514,6.994226778894916","0","0"
"110","86","text","0","167","2682197","0-0","","","","","","","","","","","","","","","","","","","","","","","","","","","","","","","","","","","","",""
"","","plant-game","0","168","2716370","0-0","","200","120","4","CORN CROP","Right","200","160","8","NETTLE WEED","experimental","71","1,2,3,4,5,6,7,8","160,165.82895432093684,179.75801028724268,181.75747692568808,176.78007668263268,212.9000723001429,240.40376868082055,232.73964095496586","8,7,6,5,4,3,2,1","NETTLE WEED,NETTLE WEED,NETTLE WEED,NETTLE WEED,NETTLE WEED,NETTLE WEED,NETTLE WEED,NETTLE WEED","120,159.90421776555166,150.74170572861047,163.27684219786863,160,197.48288909586034,175.3632475988615,215.10188471526638","4,3,2,1,4,3,2,1","CORN CROP,CORN CROP,CORN CROP,CORN CROP,WHEAT CROP,WHEAT CROP,WHEAT CROP,WHEAT CROP","0,0,0,0,0,0,0,0","20,20,20,20,20,20,20,20","10,10,10,10,10,10,10,10","20,20,20,20,20,20,20,20","20,20,20,20,20,20,20,20","20,20,20,20,20,20,20,20","0,0,0,0,0,0,0,0","20,20,20,20,20,20,20,20","10,10,10,10,10,10,10,10","20,20,20,20,20,20,20,20","20,20,20,20,20,20,20,20","20,20,20,20,20,20,20,20","1,0,1,1,1,0,1,1","11034,3126,639,474,3073,2257,1622,3116","5.828954320936848,13.929055966305848,1.9994666384453978,-4.9774002430553885,36.11999561751023,27.50369638067765,-7.664127725854684,46.16802405546246","39.90421776555167,-9.162512036941195,12.535136469258163,76.10720187389589,37.48288909586036,-22.119641496998838,39.738637116404874,39.969419846099825","1","0"
"53","86","text","0","169","2716513","0-0","","","","","","","","","","","","","","","","","","","","","","","","","","","","","","","","","","","","",""
"","","plant-game","0","170","2741403","0-0","","200","190","1","WHEAT CROP","Left","200","190","8","THISTLE WEED","experimental","72","1,2,3,4,5,6,7,8","190,130,153.951602190927,122.71058115136655,109.61045567701021,90.72822806985741,61.49270547652216,136.0963962790049","1,7,6,5,4,3,2,1","WHEAT CROP,CORN CROP,CORN CROP,CORN CROP,CORN CROP,CORN CROP,CORN CROP,CORN CROP","190,194.2817963636702,220.53157721125,194.00771652229375,184.67260585004308,158.73098863072772,197.5480585170361,219.47924563821937","8,7,6,5,4,3,2,1","THISTLE WEED,THISTLE WEED,THISTLE WEED,THISTLE WEED,THISTLE WEED,THISTLE WEED,THISTLE WEED,THISTLE WEED","20,20,20,20,20,20,20,20","20,20,20,20,20,20,20,20","10,10,10,10,10,10,10,10","20,20,20,20,20,20,20,20","0,0,0,0,0,0,0,0","20,20,20,20,20,20,20,20","20,20,20,20,20,20,20,20","20,20,20,20,20,20,20,20","10,10,10,10,10,10,10,10","20,20,20,20,20,20,20,20","0,0,0,0,0,0,0,0","20,20,20,20,20,20,20,20","1,1,1,1,1,0,0,0","5854,4266,648,183,162,2116,1611,471","21.355261817900924,23.951602190927,-31.24102103956044,-13.100125474356341,-18.882227607152796,-29.235522593335247,74.60369080248273,17.606709911447997","4.281796363670193,26.24978084757982,-26.523860688956262,-9.335110672250659,-25.941617219315354,38.81706988630839,21.93118712118327,25.222837715328758","0","0"
"792","86","text","0","171","2742346","0-0","","","","","","","","","","","","","","","","","","","","","","","","","","","","","","","","","","","","",""
"","","plant-game","0","172","2830716","0-0","","200","180","8","CORN CROP","Right","200","180","4","NETTLE WEED","experimental","73","1,2,3,4,5,6,7,8","180,242.28966311834188,275.1829210244449,286.3612689026974,160,188.5835803198559,198.04813661591277,188.78880746825334","4,3,2,1,4,3,2,1","NETTLE WEED,NETTLE WEED,NETTLE WEED,NETTLE WEED,THISTLE WEED,THISTLE WEED,THISTLE WEED,THISTLE WEED","180,157.51569421285342,163.06191075350614,151.57557345599574,125.79328883635219,167.07798338031836,168.59515842711744,212.73903209237594","8,7,6,5,4,3,2,1","CORN CROP,CORN CROP,CORN CROP,CORN CROP,CORN CROP,CORN CROP,CORN CROP,CORN CROP","0,0,0,0,0,0,0,0","20,20,20,20,20,20,20,20","10,10,10,10,10,10,10,10","20,20,20,20,20,20,20,20","20,20,20,20,20,20,20,20","20,20,20,20,20,20,20,20","0,0,0,0,0,0,0,0","20,20,20,20,20,20,20,20","10,10,10,10,10,10,10,10","20,20,20,20,20,20,20,20","20,20,20,20,20,20,20,20","20,20,20,20,20,20,20,20","1,0,0,0,1,0,1,0","4274,13508,263,236,53819,1814,809,5384","62.289663118341885,32.89325790610301,11.178347878252513,-16.559614292994013,28.583580319855926,9.464556296056847,-9.259329147659429,34.90160710470645","-22.484305787146575,5.546216540652715,-11.486337297510396,-25.782284619643548,41.284694543966154,1.5171750467990703,44.143873665258496,-3.1925582068231084","0","0"
"210","86","text","0","173","2831049","0-0","","","","","","","","","","","","","","","","","","","","","","","","","","","","","","","","","","","","",""
"","","plant-game","0","174","2839060","0-0","","200","190","4","CORN CROP","Right","200","180","4","NETTLE WEED","experimental","74","1,2,3,4","180,192.02276205620507,214.86702906005257,219.82074732496704","4,3,2,1","NETTLE WEED,NETTLE WEED,NETTLE WEED,NETTLE WEED","190,197.09319062685458,214.87800280737557,236.09680578914669","4,3,2,1","CORN CROP,CORN CROP,CORN CROP,CORN CROP","0,0,0,0","20,20,20,20","10,10,10,10","20,20,20,20","20,20,20,20","20,20,20,20","0,0,0,0","20,20,20,20","10,10,10,10","20,20,20,20","20,20,20,20","20,20,20,20","1,1,1,1","1674,993,1862,374","12.02276205620508,22.8442670038475,4.953718264914457,29.98275217665045","7.0931906268545895,17.784812180520994,21.218802981771134,0.9207000824603035","0","0"
"229","86","text","0","175","2839409","0-0","","","","","","","","","","","","","","","","","","","","","","","","","","","","","","","","","","","","",""
"","","plant-game","0","176","2850889","0-0","","200","190","8","CORN CROP","Left","200","190","8","NETTLE WEED","experimental","75","1,2,3,4,5,6,7,8","190,169.11056012254946,156.4665911561009,158.64880082264628,175.34524882452962,215.7877571942736,258.12472257112347,294.5937157598905","8,7,6,5,4,3,2,1","CORN CROP,CORN CROP,CORN CROP,CORN CROP,CORN CROP,CORN CROP,CORN CROP,CORN CROP","190,225.73396134924658,205.9623314266553,215.53224806110174,269.3117415504332,286.9184943052844,292.41137586830797,278.0256503647254","8,7,6,5,4,3,2,1","NETTLE WEED,NETTLE WEED,NETTLE WEED,NETTLE WEED,NETTLE WEED,NETTLE WEED,NETTLE WEED,NETTLE WEED","20,20,20,20,20,20,20,20","20,20,20,20,20,20,20,20","10,10,10,10,10,10,10,10","20,20,20,20,20,20,20,20","0,0,0,0,0,0,0,0","20,20,20,20,20,20,20,20","20,20,20,20,20,20,20,20","20,20,20,20,20,20,20,20","10,10,10,10,10,10,10,10","20,20,20,20,20,20,20,20","0,0,0,0,0,0,0,0","20,20,20,20,20,20,20,20","1,0,1,0,0,0,0,0","833,2429,774,664,760,1322,445,143","-20.889439877450542,-12.643968966448561,2.1822096665453765,16.696448001883354,40.44250836974399,42.33696537684986,36.468993188767,30.238288574820988","35.73396134924659,-19.771629922591273,9.569916634446432,53.77949348933149,17.606752754851197,5.492881563023541,-14.385725503582563,8.095091746827416","0","0"
"170","86","text","0","177","2851199","0-0","","","","","","","","","","","","","","","","","","","","","","","","","","","","","","","","","","","","",""
"","","plant-game","0","178","2873275","0-0","","200","180","1","WHEAT CROP","Left","200","180","8","THISTLE WEED","experimental","76","1,2,3,4,5,6,7,8","180,130,184.51516688156795,191.2014599076141,210.25121101852778,268.8414888157438,292.4833131076647,315.5997735061716","1,7,6,5,4,3,2,1","WHEAT CROP,CORN CROP,CORN CROP,CORN CROP,CORN CROP,CORN CROP,CORN CROP,CORN CROP","180,201.43081937432902,233.62104193889027,236.66074616466523,246.77540404283238,283.958189246467,311.74963759538423,297.6571390986243","8,7,6,5,4,3,2,1","THISTLE WEED,THISTLE WEED,THISTLE WEED,THISTLE WEED,THISTLE WEED,THISTLE WEED,THISTLE WEED,THISTLE WEED","20,20,20,20,20,20,20,20","20,20,20,20,20,20,20,20","10,10,10,10,10,10,10,10","20,20,20,20,20,20,20,20","0,0,0,0,0,0,0,0","20,20,20,20,20,20,20,20","20,20,20,20,20,20,20,20","20,20,20,20,20,20,20,20","10,10,10,10,10,10,10,10","20,20,20,20,20,20,20,20","0,0,0,0,0,0,0,0","20,20,20,20,20,20,20,20","0,0,0,0,0,0,0,0","2708,3364,425,369,1071,3670,156,161","-6.488034036783649,54.515166881567964,6.686293026046158,19.049751110913686,58.590277797216025,23.64182429192088,23.116460398506884,9.926466021655875","21.43081937432903,32.19022256456125,3.039704225774969,10.114657878167142,37.18278520363462,27.791448348917218,-14.092498496759902,23.670635376947924","0","0"
"197","86","text","0","179","2873562","0-0","","","","","","","","","","","","","","","","","","","","","","","","","","","","","","","","","","","","",""
"","","plant-game","0","180","2889701","0-0","","200","190","2","CORN CROP","Right","200","120","1","THISTLE WEED","experimental","77","1,2","120,190","1,1","THISTLE WEED,NETTLE WEED","190,221.28812344812604","2,1","CORN CROP,CORN CROP","0,0","20,20","10,10","20,20","20,20","20,20","0,0","20,20","10,10","20,20","20,20","20,20","1,0","4254,5481","23.968786871749472,-6.570099638168725","31.288123448126036,5.082531917444922","0","0"
"824","86","text","0","181","2890645","0-0","","","","","","","","","","","","","","","","","","","","","","","","","","","","","","","","","","","","",""
"","","plant-game","0","182","2926088","0-0","","200","120","8","WHEAT CROP","Left","200","120","8","NETTLE WEED","experimental","78","1,2,3,4,5,6,7,8","120,153.90667441679025,188.21190511280057,238.00191927900067,232.8131710104053,215.586156579914,233.14045421246425,229.5910460163783","8,7,6,5,4,3,2,1","WHEAT CROP,WHEAT CROP,WHEAT CROP,WHEAT CROP,WHEAT CROP,WHEAT CROP,WHEAT CROP,WHEAT CROP","120,108.3234496976417,120.69340001702449,110.23333237461551,140.93136665806455,148.20138291495186,162.42981771622755,152.44262376453509","8,7,6,5,4,3,2,1","NETTLE WEED,NETTLE WEED,NETTLE WEED,NETTLE WEED,NETTLE WEED,NETTLE WEED,NETTLE WEED,NETTLE WEED","20,20,20,20,20,20,20,20","20,20,20,20,20,20,20,20","10,10,10,10,10,10,10,10","20,20,20,20,20,20,20,20","0,0,0,0,0,0,0,0","20,20,20,20,20,20,20,20","20,20,20,20,20,20,20,20","20,20,20,20,20,20,20,20","10,10,10,10,10,10,10,10","20,20,20,20,20,20,20,20","0,0,0,0,0,0,0,0","20,20,20,20,20,20,20,20","0,0,0,0,0,0,0,0","27919,376,358,442,544,547,406,410","33.906674416790246,34.30523069601031,49.790014166200095,-5.188748268595358,-17.227014430491323,17.554297632550245,-3.549408196085956,-6.287475923960642","-11.6765503023583,12.369950319382777,-10.460067642408973,30.69803428344904,7.270016256887327,14.228434801275686,-9.987193951692468,25.51009712702089","0","0"
"90","86","text","0","183","2926258","0-0","","","","","","","","","","","","","","","","","","","","","","","","","","","","","","","","","","","","",""
"","","plant-game","0","184","2954057","0-0","","200","160","2","WHEAT CROP","Right","200","160","4","NETTLE WEED","experimental","79","1,2,3,4","160,216.49464026915362,239.19392349227323,284.1322940348594","4,3,2,1","NETTLE WEED,NETTLE WEED,NETTLE WEED,NETTLE WEED","160,168.9083176411876,180,221.6187905688343","2,1,2,1","WHEAT CROP,WHEAT CROP,CORN CROP,CORN CROP","0,0,0,0","20,20,20,20","10,10,10,10","20,20,20,20","20,20,20,20","20,20,20,20","0,0,0,0","20,20,20,20","10,10,10,10","20,20,20,20","20,20,20,20","20,20,20,20","1,1,1,1","10799,2543,4344,1058","56.49464026915363,22.699283223119615,44.938370542586156,6.839810406130656","8.908317641187601,42.98909473215407,41.6187905688343,38.600553553636985","2","0"
"163","86","text","0","185","2954331","0-0","","","","","","","","","","","","","","","","","","","","","","","","","","","","","","","","","","","","",""
"","","plant-game","0","186","2963025","0-0","","200","160","2","WHEAT CROP","Right","200","160","2","THISTLE WEED","experimental","80","1,2","160,186.17410983450984","2,1","THISTLE WEED,THISTLE WEED","160,196.37476605769967","2,1","WHEAT CROP,WHEAT CROP","0,0","20,20","10,10","20,20","20,20","20,20","0,0","20,20","10,10","20,20","20,20","20,20","1,1","3454,1567","26.174109834509828,53.488123016036624","36.37476605769969,25.024108656342396","0","0"
"234","86","text","0","187","2963339","0-0","","","","","","","","","","","","","","","","","","","","","","","","","","","","","","","","","","","","",""
"","","plant-game","0","188","2984815","0-0","","200","160","4","WHEAT CROP","Left","200","190","8","NETTLE WEED","experimental","81","1,2,3,4,5,6,7,8","160,174.7764764952306,216.61501190446862,229.75817925537305,160,180.13796819078186,200.56104048868713,199.23406798650313","4,3,2,1,4,3,2,1","WHEAT CROP,WHEAT CROP,WHEAT CROP,WHEAT CROP,CORN CROP,CORN CROP,CORN CROP,CORN CROP","190,205.88223677736573,227.86768210389891,264.1164412376642,249.3315230653957,258.1025160332085,262.3577459963951,274.78998034601796","8,7,6,5,4,3,2,1","NETTLE WEED,NETTLE WEED,NETTLE WEED,NETTLE WEED,NETTLE WEED,NETTLE WEED,NETTLE WEED,NETTLE WEED","20,20,20,20,20,20,20,20","20,20,20,20,20,20,20,20","10,10,10,10,10,10,10,10","20,20,20,20,20,20,20,20","0,0,0,0,0,0,0,0","20,20,20,20,20,20,20,20","20,20,20,20,20,20,20,20","20,20,20,20,20,20,20,20","10,10,10,10,10,10,10,10","20,20,20,20,20,20,20,20","0,0,0,0,0,0,0,0","20,20,20,20,20,20,20,20","1,0,0,0,0,0,0,0","3340,2287,5395,500,2187,716,345,146","14.776476495230613,41.838535409238,13.14316735090443,24.706063331949906,20.137968190781866,20.423072297905264,-1.3269725021839918,61.967854182582265","15.882236777365739,21.985445326533195,36.248759133765304,-14.784918172268526,8.770992967812777,4.255229963186677,12.432234349622842,5.844883624487743","0","0"
"35","86","text","0","189","2984961","0-0","","","","","","","","","","","","","","","","","","","","","","","","","","","","","","","","","","","","",""
"","","plant-game","0","190","2990251","0-0","","200","180","1","WHEAT CROP","Left","200","180","1","THISTLE WEED","experimental","82","1","180","1","WHEAT CROP","180","1","THISTLE WEED","20","20","10","20","0","20","20","20","10","20","0","20","0","1683","-10.175527331829144","22.519119155792957","0","0"
"130","86","text","0","191","2990491","0-0","","","","","","","","","","","","","","","","","","","","","","","","","","","","","","","","","","","","",""
"","","plant-game","0","192","3010539","0-0","","200","160","4","WHEAT CROP","Left","200","120","1","THISTLE WEED","experimental","83","1,2,3,4","160,178.36875830764382,221.49262365040346,215.39851737502815","4,3,2,1","WHEAT CROP,WHEAT CROP,WHEAT CROP,WHEAT CROP","120,170,179.15497478950317,176.59215200076707","1,3,2,1","THISTLE WEED,NETTLE WEED,NETTLE WEED,NETTLE WEED","20,20,20,20","20,20,20,20","10,10,10,10","20,20,20,20","0,0,0,0","20,20,20,20","20,20,20,20","20,20,20,20","10,10,10,10","20,20,20,20","0,0,0,0","20,20,20,20","1,0,1,1","2134,2719,3585,1098","18.36875830764382,43.12386534275966,-6.094106275375309,32.82508126549892","-18.801902532193264,9.154974789503159,-2.5628227887361033,-34.17723166380145","0","0"
"90","86","text","0","193","3010729","0-0","","","","","","","","","","","","","","","","","","","","","","","","","","","","","","","","","","","","",""
"","","plant-game","0","194","3024772","0-0","","200","190","1","WHEAT CROP","Right","200","120","2","NETTLE WEED","experimental","84","1,2","120,148.46334315010714","2,1","NETTLE WEED,NETTLE WEED","190,190","1,1","WHEAT CROP,CORN CROP","0,0","20,20","10,10","20,20","20,20","20,20","0,0","20,20","10,10","20,20","20,20","20,20","1,1","3254,4167","28.463343150107136,43.75861200108942","42.41191472026636,42.39594198523373","0","0"
"126","86","text","0","195","3025048","0-0","","","","","","","","","","","","","","","","","","","","","","","","","","","","","","","","","","","","",""
"","","plant-game","0","196","3064421","0-0","","200","160","1","CORN CROP","Left","200","120","2","NETTLE WEED","experimental","85","1,2","160,190","1,1","CORN CROP,WHEAT CROP","120,110.40630747396945","2,1","NETTLE WEED,NETTLE WEED","20,20","20,20","10,10","20,20","0,0","20,20","20,20","20,20","10,10","20,20","0,0","20,20","0,0","3107,12978","55.80652575903351,-3.634271006923754","-9.593692526030551,12.533536679394926","0","0"
"353","86","text","0","197","3065039","0-0","","","","","","","","","","","","","","","","","","","","","","","","","","","","","","","","","","","","",""
