"rt","key_press","trial_type","trial_index","trial_index_global","time_elapsed","internal_chunk_id","responses","experimental_goal_height","experimental_start_height","experimental_weeks_total","experimental_crop_type","experimental_crop_side","fixed_goal_height","fixed_start_height","fixed_weeks_total","fixed_crop_type","trial_kind","trial_number","stage","left_current_height","left_weeks_remaining","left_crop_type","right_current_height","right_weeks_remaining","right_crop_type","mean_left_growth_given_left","sd_left_growth_given_left","mean_left_growth_given_middle","sd_left_growth_given_middle","mean_left_growth_given_right","sd_left_growth_given_right","mean_right_growth_given_left","sd_right_growth_given_left","mean_right_growth_given_middle","sd_right_growth_given_middle","mean_right_growth_given_right","sd_right_growth_given_right","response","response_time","left_growth","right_growth","other_key_pressed","mouse_clicked"
"7237416","87","text","0","0","7237497","0-0","","","","","","","","","","","","","","","","","","","","","","","","","","","","","","","","","","","","",""
"5199","","survey-text","0","1","7243730","0-0","{""Q0"":""17""}","","","","","","","","","","","","","","","","","","","","","","","","","","","","","","","","","","","",""
"4312","86","text","0","2","4421","0-0","","","","","","","","","","","","","","","","","","","","","","","","","","","","","","","","","","","","",""
"","","plant-game","0","3","77460","0-0","","200","120","8","CORN CROP","Left","200","120","8","NETTLE WEED","practice","1","1,2,3,4,5,6,7,8","120,93.9409310595649,45.14217651877256,23.431149722888694,20.314719408491037,58.9412759480879,75.42903811889394,81.8768378396671","8,7,6,5,4,3,2,1","CORN CROP,CORN CROP,CORN CROP,CORN CROP,CORN CROP,CORN CROP,CORN CROP,CORN CROP","120,143.13726498690718,125.770149201096,94.15524394652866,100.09297119786102,55.42267475542261,67.94640651499917,124.78226654794608","8,7,6,5,4,3,2,1","NETTLE WEED,NETTLE WEED,NETTLE WEED,NETTLE WEED,NETTLE WEED,NETTLE WEED,NETTLE WEED,NETTLE WEED","20,20,20,20,20,20,20,20","20,20,20,20,20,20,20,20","10,10,10,10,10,10,10,10","20,20,20,20,20,20,20,20","0,0,0,0,0,0,0,0","20,20,20,20,20,20,20,20","20,20,20,20,20,20,20,20","20,20,20,20,20,20,20,20","10,10,10,10,10,10,10,10","20,20,20,20,20,20,20,20","0,0,0,0,0,0,0,0","20,20,20,20,20,20,20,20","0,1,1,1,1,0,0,1","8646,1793,9198,4544,822,16000,593,643","-26.059068940435097,-48.798754540792345,-21.711026795883864,-3.1164303143976593,38.62655653959686,16.487762170806047,6.447799720773164,-2.0408287901255178","23.137264986907173,-17.367115785811183,-31.614905254567343,5.93772725133236,-44.670296442438406,12.523731759576558,56.83586003294692,-17.307689684349235","0","0"
"1572","86","text","0","4","79172","0-0","","","","","","","","","","","","","","","","","","","","","","","","","","","","","","","","","","","","",""
"","","plant-game","0","5","108893","0-0","","200","160","4","WHEAT CROP","Left","200","160","4","THISTLE WEED","practice","2","1,2,3,4","160,175.22743034493462,218.68026169740028,252.78251843827434","4,3,2,1","WHEAT CROP,WHEAT CROP,WHEAT CROP,WHEAT CROP","160,164.89407324893654,186.9525226710878,166.3181339232122","4,3,2,1","THISTLE WEED,THISTLE WEED,THISTLE WEED,THISTLE WEED","20,20,20,20","20,20,20,20","10,10,10,10","20,20,20,20","0,0,0,0","20,20,20,20","20,20,20,20","20,20,20,20","10,10,10,10","20,20,20,20","0,0,0,0","20,20,20,20","0,0,0,0","7573,2357,3449,2056","15.227430344934614,43.45283135246565,34.10225674087404,-5.419201196998404","4.894073248936534,22.058449422151245,-20.634388747875605,3.591004033279159","0","0"
"847","86","text","0","6","109850","0-0","","","","","","","","","","","","","","","","","","","","","","","","","","","","","","","","","","","","",""
"","","plant-game","0","7","129978","0-0","","200","180","2","CORN CROP","Right","200","180","2","NETTLE WEED","practice","3","1,2","180,188.1239542207334","2,1","NETTLE WEED,NETTLE WEED","180,167.13455536274336","2,1","CORN CROP,CORN CROP","0,0","20,20","10,10","20,20","20,20","20,20","0,0","20,20","10,10","20,20","20,20","20,20","0,1","9036,1119","8.123954220733392,12.319449405233165","-12.865444637256633,43.16539724334355","0","0"
"555","86","text","0","8","130613","0-0","","","","","","","","","","","","","","","","","","","","","","","","","","","","","","","","","","","","",""
"","","plant-game","0","9","149617","0-0","","200","190","1","CORN CROP","Right","200","190","1","THISTLE WEED","practice","4","1","190","1","THISTLE WEED","190","1","CORN CROP","0","20","10","20","20","20","0","20","10","20","20","20","1","4734","3.1224809511170797","7.20100641548391","0","0"
"783","86","text","0","10","150524","0-0","","","","","","","","","","","","","","","","","","","","","","","","","","","","","","","","","","","","",""
"","","plant-game","0","11","181853","0-0","","200","120","8","CORN CROP","Right","200","160","8","NETTLE WEED","practice","5","1,2,3,4,5,6,7,8","160,178.39595787534967,229.38415305765622,209.76181812816768,245.2349164797529,273.2028942243422,307.5736364330738,338.529170007878","8,7,6,5,4,3,2,1","NETTLE WEED,NETTLE WEED,NETTLE WEED,NETTLE WEED,NETTLE WEED,NETTLE WEED,NETTLE WEED,NETTLE WEED","120,112.92839870900276,161.6128442048851,154.2784590193756,169.5988398287669,151.06942734130854,154.89634682288317,185.95677835821908","8,7,6,5,4,3,2,1","CORN CROP,CORN CROP,CORN CROP,CORN CROP,CORN CROP,CORN CROP,CORN CROP,CORN CROP","0,0,0,0,0,0,0,0","20,20,20,20,20,20,20,20","10,10,10,10,10,10,10,10","20,20,20,20,20,20,20,20","20,20,20,20,20,20,20,20","20,20,20,20,20,20,20,20","0,0,0,0,0,0,0,0","20,20,20,20,20,20,20,20","10,10,10,10,10,10,10,10","20,20,20,20,20,20,20,20","20,20,20,20,20,20,20,20","20,20,20,20,20,20,20,20","0,1,0,0,0,1,1,1","2163,1481,5266,717,598,562,308,71","18.395957875349673,50.98819518230655,-19.622334929488545,35.473098351585236,27.967977744589287,34.370742208731606,30.955533574804228,25.58136738476219","-7.071601290997235,48.68444549588236,-7.33438518550951,15.32038080939131,-18.529412487458373,3.826919481574649,31.060431535335898,43.78173965124894","0","0"
"485","86","text","0","12","182442","0-0","","","","","","","","","","","","","","","","","","","","","","","","","","","","","","","","","","","","",""
"","","plant-game","0","13","203877","0-0","","200","180","4","CORN CROP","Right","200","160","4","THISTLE WEED","practice","6","1,2,3,4","160,147.76317663909015,147.0251992556485,156.59022629430976","4,3,2,1","THISTLE WEED,THISTLE WEED,THISTLE WEED,THISTLE WEED","180,221.165164933806,197.22421925630712,204.79053362682768","4,3,2,1","CORN CROP,CORN CROP,CORN CROP,CORN CROP","0,0,0,0","20,20,20,20","10,10,10,10","20,20,20,20","20,20,20,20","20,20,20,20","0,0,0,0","20,20,20,20","10,10,10,10","20,20,20,20","20,20,20,20","20,20,20,20","0,0,0,1","7331,1916,1806,1969","-12.236823360909849,-0.7379773834416687,9.565027038661276,0.3627455746171968","41.16516493380601,-23.940945677498885,7.566314370520547,51.93260156942778","0","0"
"466","86","text","0","14","204473","0-0","","","","","","","","","","","","","","","","","","","","","","","","","","","","","","","","","","","","",""
"","","plant-game","0","15","221107","0-0","","200","180","2","CORN CROP","Right","200","190","2","NETTLE WEED","practice","7","1,2","190,183.2912257839039","2,1","NETTLE WEED,NETTLE WEED","180,163.92002123742358","2,1","CORN CROP,CORN CROP","0,0","20,20","10,10","20,20","20,20","20,20","0,0","20,20","10,10","20,20","20,20","20,20","0,0","6079,930","-6.708774216096101,7.904214658038036","-16.07997876257642,37.481384182834965","0","0"
"732","86","text","0","16","221959","0-0","","","","","","","","","","","","","","","","","","","","","","","","","","","","","","","","","","","","",""
"","","plant-game","0","17","248016","0-0","","200","120","4","WHEAT CROP","Left","200","120","8","NETTLE WEED","practice","8","1,2,3,4,5,6,7,8","120,97.20597685087057,55.177740469143124,96.29783932335883,160,199.97711736702664,198.33892289366185,208.10462139981473","4,3,2,1,4,3,2,1","WHEAT CROP,WHEAT CROP,WHEAT CROP,WHEAT CROP,CORN CROP,CORN CROP,CORN CROP,CORN CROP","120,122.26346988539751,173.76556783396455,238.0514522971214,250.4256713638445,267.68279963694624,297.2656340048998,308.1437973350887","8,7,6,5,4,3,2,1","NETTLE WEED,NETTLE WEED,NETTLE WEED,NETTLE WEED,NETTLE WEED,NETTLE WEED,NETTLE WEED,NETTLE WEED","20,20,20,20,20,20,20,20","20,20,20,20,20,20,20,20","10,10,10,10,10,10,10,10","20,20,20,20,20,20,20,20","0,0,0,0,0,0,0,0","20,20,20,20,20,20,20,20","20,20,20,20,20,20,20,20","20,20,20,20,20,20,20,20","10,10,10,10,10,10,10,10","20,20,20,20,20,20,20,20","0,0,0,0,0,0,0,0","20,20,20,20,20,20,20,20","1,1,0,0,0,0,1,1","2599,826,956,2269,6511,1162,613,811","-22.794023149129423,-42.028236381727446,41.12009885421571,2.7673790709873884,39.977117367026636,-1.6381944733647842,9.765698506152894,-14.403234831581237","2.263469885397516,51.502097948567034,64.28588446315683,12.374219066723104,17.257128273101735,29.582834367953566,10.878163330188922,0.6445255739039781","0","0"
"520","86","text","0","18","248637","0-0","","","","","","","","","","","","","","","","","","","","","","","","","","","","","","","","","","","","",""
"","","plant-game","0","19","279946","0-0","","200","160","4","WHEAT CROP","Right","200","160","2","NETTLE WEED","practice","9","1,2,3,4","160,165.42297191345952,180,194.97188414736542","2,1,2,1","NETTLE WEED,NETTLE WEED,THISTLE WEED,THISTLE WEED","160,205.87145353115153,215.1551442164178,217.96668292712295","4,3,2,1","WHEAT CROP,WHEAT CROP,WHEAT CROP,WHEAT CROP","0,0,0,0","20,20,20,20","10,10,10,10","20,20,20,20","20,20,20,20","20,20,20,20","0,0,0,0","20,20,20,20","10,10,10,10","20,20,20,20","20,20,20,20","20,20,20,20","0,1,1,0","5192,2331,1769,1039","5.422971913459507,2.5499937460388225,14.971884147365406,-10.52985299852777","45.871453531151516,9.283690685266254,2.811538710705147,1.1056754950831045","0","0"
"528","86","text","0","20","280599","0-0","","","","","","","","","","","","","","","","","","","","","","","","","","","","","","","","","","","","",""
"","","plant-game","0","21","302621","0-0","","200","180","2","CORN CROP","Left","200","180","1","THISTLE WEED","practice","10","1,2","180,220.55489945958885","2,1","CORN CROP,CORN CROP","180,190","1,1","THISTLE WEED,NETTLE WEED","20,20","20,20","10,10","20,20","0,0","20,20","20,20","20,20","10,10","20,20","0,0","20,20","0,1","2790,1851","40.55489945958885,-16.186218791319693","26.25291987687403,3.951651626605732","0","0"
"391","86","text","0","22","303122","0-0","","","","","","","","","","","","","","","","","","","","","","","","","","","","","","","","","","","","",""
"","","plant-game","0","23","337108","0-0","","200","120","8","CORN CROP","Left","200","160","4","NETTLE WEED","practice","11","1,2,3,4,5,6,7,8","120,139.6103943732673,213.4780112966339,219.41559074281724,216.30379697135612,237.86425649108267,249.21997997289967,208.69890444296828","8,7,6,5,4,3,2,1","CORN CROP,CORN CROP,CORN CROP,CORN CROP,CORN CROP,CORN CROP,CORN CROP,CORN CROP","160,179.6297468139171,184.3840720015217,167.55766795196868,160,142.9912406008978,179.37437552244634,178.95293968043563","4,3,2,1,4,3,2,1","NETTLE WEED,NETTLE WEED,NETTLE WEED,NETTLE WEED,THISTLE WEED,THISTLE WEED,THISTLE WEED,THISTLE WEED","20,20,20,20,20,20,20,20","20,20,20,20,20,20,20,20","10,10,10,10,10,10,10,10","20,20,20,20,20,20,20,20","0,0,0,0,0,0,0,0","20,20,20,20,20,20,20,20","20,20,20,20,20,20,20,20","20,20,20,20,20,20,20,20","10,10,10,10,10,10,10,10","20,20,20,20,20,20,20,20","0,0,0,0,0,0,0,0","20,20,20,20,20,20,20,20","1,0,0,0,0,0,1,1","8521,758,828,754,3983,917,2070,815","19.6103943732673,73.8676169233666,5.937579446183356,-3.1117937714611124,21.560459519726557,11.355723481817,-40.521075529931394,13.774250979510098","19.629746813917116,4.754325187604596,-16.82640404955302,53.718982744787475,-17.008759399102175,36.38313492154853,-0.42143584201070294,10.694789802062278","0","0"
"425","86","text","0","24","337653","0-0","","","","","","","","","","","","","","","","","","","","","","","","","","","","","","","","","","","","",""
"","","plant-game","0","25","353668","0-0","","200","180","2","WHEAT CROP","Left","200","160","4","THISTLE WEED","practice","12","1,2,3,4","180,173.4238522515895,180,204.83651201353467","2,1,2,1","WHEAT CROP,WHEAT CROP,CORN CROP,CORN CROP","160,158.88849325543984,149.18919315815452,154.5190910308464","4,3,2,1","THISTLE WEED,THISTLE WEED,THISTLE WEED,THISTLE WEED","20,20,20,20","20,20,20,20","10,10,10,10","20,20,20,20","0,0,0,0","20,20,20,20","20,20,20,20","20,20,20,20","10,10,10,10","20,20,20,20","0,0,0,0","20,20,20,20","0,0,1,1","1913,1470,2306,535","-6.576147748410509,-15.305083585788253,24.836512013534666,9.149245910240802","-1.1115067445601596,-9.699300097285324,5.329897872691869,20.156494578736677","0","0"
"14719","86","text","0","26","368527","0-0","","","","","","","","","","","","","","","","","","","","","","","","","","","","","","","","","","","","",""
"6942","86","text","0","27","376538","0-0","","","","","","","","","","","","","","","","","","","","","","","","","","","","","","","","","","","","",""
"","","plant-game","0","28","390972","0-0","","200","120","2","WHEAT CROP","Left","200","160","2","THISTLE WEED","experimental","1","1,2","120,126.8083623323772","2,1","WHEAT CROP,WHEAT CROP","160,185.13157613282482","2,1","THISTLE WEED,THISTLE WEED","20,20","20,20","10,10","20,20","0,0","20,20","20,20","20,20","10,10","20,20","0,0","20,20","0,1","7003,1677","6.8083623323771985,28.749201825354227","25.131576132824826,-18.964330862446225","0","0"
"585","86","text","0","29","391666","0-0","","","","","","","","","","","","","","","","","","","","","","","","","","","","","","","","","","","","",""
"","","plant-game","0","30","417612","0-0","","200","180","8","WHEAT CROP","Right","200","120","4","THISTLE WEED","experimental","2","1,2,3,4,5,6,7,8","120,128.18941604232427,109.48509561810235,131.03618329703534,160,153.311073294602,179.2142799438139,196.91003135855726","4,3,2,1,4,3,2,1","THISTLE WEED,THISTLE WEED,THISTLE WEED,THISTLE WEED,NETTLE WEED,NETTLE WEED,NETTLE WEED,NETTLE WEED","180,173.2609991827856,182.27418818195028,220.09590878409574,236.44135564866087,231.8447878035338,274.50212592807395,231.02584598377388","8,7,6,5,4,3,2,1","WHEAT CROP,WHEAT CROP,WHEAT CROP,WHEAT CROP,WHEAT CROP,WHEAT CROP,WHEAT CROP,WHEAT CROP","0,0,0,0,0,0,0,0","20,20,20,20,20,20,20,20","10,10,10,10,10,10,10,10","20,20,20,20,20,20,20,20","20,20,20,20,20,20,20,20","20,20,20,20,20,20,20,20","0,0,0,0,0,0,0,0","20,20,20,20,20,20,20,20","10,10,10,10,10,10,10,10","20,20,20,20,20,20,20,20","20,20,20,20,20,20,20,20","20,20,20,20,20,20,20,20","0,0,1,1,1,1,0,1","4208,1034,1617,1058,7213,1317,1525,906","8.18941604232428,-18.70432042422192,21.551087678933,0.19763987135266703,-6.688926705397996,25.90320664921189,17.695751414743373,36.39347262035837","-6.739000817214383,9.013188999164674,37.82172060214546,16.34544686456514,-4.59656784512708,42.65733812454015,-43.47627994430007,9.19562053076687","0","0"
"191","86","text","0","31","417883","0-0","","","","","","","","","","","","","","","","","","","","","","","","","","","","","","","","","","","","",""
"","","plant-game","0","32","434988","0-0","","200","120","2","CORN CROP","Left","200","120","8","NETTLE WEED","experimental","3","1,2,3,4,5,6,7,8","120,142.93848126434108,140,161.4882097970011,107.72013081431345,113.15166762063532,136.15746563928775,96.27458222948485","2,1,6,5,4,3,2,1","CORN CROP,CORN CROP,WHEAT CROP,WHEAT CROP,WHEAT CROP,WHEAT CROP,WHEAT CROP,WHEAT CROP","120,125.15500921462736,153.56338817292243,135.57103805087493,157.25069658002306,165.10844299228816,205.23865955782932,220.0757556889554","8,7,6,5,4,3,2,1","NETTLE WEED,NETTLE WEED,NETTLE WEED,NETTLE WEED,NETTLE WEED,NETTLE WEED,NETTLE WEED,NETTLE WEED","20,20,20,20,20,20,20,20","20,20,20,20,20,20,20,20","10,10,10,10,10,10,10,10","20,20,20,20,20,20,20,20","0,0,0,0,0,0,0,0","20,20,20,20,20,20,20,20","20,20,20,20,20,20,20,20","20,20,20,20,20,20,20,20","10,10,10,10,10,10,10,10","20,20,20,20,20,20,20,20","0,0,0,0,0,0,0,0","20,20,20,20,20,20,20,20","0,1,1,1,1,0,1,1","2857,429,2648,1883,702,920,490,346","22.938481264341085,7.244261506061579,21.488209797001105,-53.768078982687655,5.431536806321869,23.00579801865242,-39.88288340980291,-5.730474619391992","5.155009214627359,28.40837895829509,-17.9923501220475,21.67965852914813,7.857746412265094,40.13021656554116,14.83709613112609,-7.9123313303139895","0","0"
"110","86","text","0","33","435258","0-0","","","","","","","","","","","","","","","","","","","","","","","","","","","","","","","","","","","","",""
"","","plant-game","0","34","449407","0-0","","200","180","8","WHEAT CROP","Right","200","120","8","THISTLE WEED","experimental","4","1,2,3,4,5,6,7,8","120,124.90571029153796,171.4367412350147,170.06175018776628,198.05054696509725,191.19459362763277,163.34669792124006,202.43950570456656","8,7,6,5,4,3,2,1","THISTLE WEED,THISTLE WEED,THISTLE WEED,THISTLE WEED,THISTLE WEED,THISTLE WEED,THISTLE WEED,THISTLE WEED","180,210.97300188089136,189.48148599064294,175.74803027572727,218.15429555795987,288.97676802872974,318.2931496459725,304.2412461216097","8,7,6,5,4,3,2,1","WHEAT CROP,WHEAT CROP,WHEAT CROP,WHEAT CROP,WHEAT CROP,WHEAT CROP,WHEAT CROP,WHEAT CROP","0,0,0,0,0,0,0,0","20,20,20,20,20,20,20,20","10,10,10,10,10,10,10,10","20,20,20,20,20,20,20,20","20,20,20,20,20,20,20,20","20,20,20,20,20,20,20,20","0,0,0,0,0,0,0,0","20,20,20,20,20,20,20,20","10,10,10,10,10,10,10,10","20,20,20,20,20,20,20,20","20,20,20,20,20,20,20,20","20,20,20,20,20,20,20,20","0,0,0,1,0,0,0,0","1217,1216,1122,852,1605,833,639,966","4.905710291537956,46.531030943476736,-1.3749910472484168,27.988796777330972,-6.8559533374644825,-27.847895706392695,39.092807783326506,-14.706459172430106","30.97300188089136,-21.49151589024843,-13.733455714915657,42.40626528223261,70.82247247076988,29.316381617242754,-14.051903524362805,-45.379200041595176","0","0"
"514","86","text","0","35","450041","0-0","","","","","","","","","","","","","","","","","","","","","","","","","","","","","","","","","","","","",""
"","","plant-game","0","36","461933","0-0","","200","190","4","WHEAT CROP","Right","200","190","1","THISTLE WEED","experimental","5","1,2,3,4","190,170,167.00567617694787,153.41428418886605","1,3,2,1","THISTLE WEED,NETTLE WEED,NETTLE WEED,NETTLE WEED","190,230.1647174773994,249.62199461946176,239.2238747662201","4,3,2,1","WHEAT CROP,WHEAT CROP,WHEAT CROP,WHEAT CROP","0,0,0,0","20,20,20,20","10,10,10,10","20,20,20,20","20,20,20,20","20,20,20,20","0,0,0,0","20,20,20,20","10,10,10,10","20,20,20,20","20,20,20,20","20,20,20,20","1,0,0,0","2512,2005,621,809","10.19247444727193,-2.9943238230521176,-13.59139198808182,28.848341130084147","40.16471747739939,19.457277142062363,-10.398119853241667,-0.010434219267398933","0","0"
"132","86","text","0","37","462165","0-0","","","","","","","","","","","","","","","","","","","","","","","","","","","","","","","","","","","","",""
"","","plant-game","0","38","478726","0-0","","200","180","2","WHEAT CROP","Left","200","190","8","THISTLE WEED","experimental","6","1,2,3,4,5,6,7,8","180,173.43850030127732,140,161.7524440580749,141.58769889341707,121.9233365541204,104.67778423534472,113.03144560172643","2,1,6,5,4,3,2,1","WHEAT CROP,WHEAT CROP,CORN CROP,CORN CROP,CORN CROP,CORN CROP,CORN CROP,CORN CROP","190,212.98778971353155,226.17024621349228,217.39160883178639,200.74877006295702,179.05831684719266,209.1255852371855,217.23654030330155","8,7,6,5,4,3,2,1","THISTLE WEED,THISTLE WEED,THISTLE WEED,THISTLE WEED,THISTLE WEED,THISTLE WEED,THISTLE WEED,THISTLE WEED","20,20,20,20,20,20,20,20","20,20,20,20,20,20,20,20","10,10,10,10,10,10,10,10","20,20,20,20,20,20,20,20","0,0,0,0,0,0,0,0","20,20,20,20,20,20,20,20","20,20,20,20,20,20,20,20","20,20,20,20,20,20,20,20","10,10,10,10,10,10,10,10","20,20,20,20,20,20,20,20","0,0,0,0,0,0,0,0","20,20,20,20,20,20,20,20","0,1,1,1,1,0,1,0","2789,624,4369,759,599,547,435,751","-6.56149969872267,-32.05597135650727,21.752444058074904,-20.16474516465783,-19.66436233929668,-17.24555231877568,8.353661366381719,10.274792803420281","22.987789713531566,13.182456499960713,-8.778637381705881,-16.642838768829364,-21.690453215764368,30.06726838999284,8.110955066116055,-9.282709374504154","0","0"
"394","86","text","0","39","479229","0-0","","","","","","","","","","","","","","","","","","","","","","","","","","","","","","","","","","","","",""
"","","plant-game","0","40","490430","0-0","","200","160","2","CORN CROP","Left","200","190","2","THISTLE WEED","experimental","7","1,2","160,183.41226028170547","2,1","CORN CROP,CORN CROP","190,217.95272740109985","2,1","THISTLE WEED,THISTLE WEED","20,20","20,20","10,10","20,20","0,0","20,20","20,20","20,20","10,10","20,20","0,0","20,20","1,1","3885,1703","23.41226028170548,14.39133689762625","27.95272740109986,-19.96553261536952","0","0"
"626","86","text","0","41","491226","0-0","","","","","","","","","","","","","","","","","","","","","","","","","","","","","","","","","","","","",""
"","","plant-game","0","42","504333","0-0","","200","120","1","CORN CROP","Left","200","180","4","NETTLE WEED","experimental","8","1,2,3,4","120,170,174.03676517400703,185.70369014661247","1,3,2,1","CORN CROP,WHEAT CROP,WHEAT CROP,WHEAT CROP","180,205.10280759737057,204.44240902813598,177.00534593161177","4,3,2,1","NETTLE WEED,NETTLE WEED,NETTLE WEED,NETTLE WEED","20,20,20,20","20,20,20,20","10,10,10,10","20,20,20,20","0,0,0,0","20,20,20,20","20,20,20,20","20,20,20,20","10,10,10,10","20,20,20,20","0,0,0,0","20,20,20,20","0,1,1,1","4689,1487,678,1002","26.81671826618097,4.0367651740070425,11.666924972605457,32.139973864929445","25.102807597370578,-0.6603985692345892,-27.437063096524202,16.62085460687492","0","0"
"656","86","text","0","43","505129","0-0","","","","","","","","","","","","","","","","","","","","","","","","","","","","","","","","","","","","",""
"","","plant-game","0","44","520359","0-0","","200","120","1","WHEAT CROP","Left","200","180","8","NETTLE WEED","experimental","9","1,2,3,4,5,6,7,8","120,130,137.70994414580926,144.25442613179925,148.53480030320657,160.20015170558332,187.03851581118536,209.6009132491422","1,7,6,5,4,3,2,1","WHEAT CROP,CORN CROP,CORN CROP,CORN CROP,CORN CROP,CORN CROP,CORN CROP,CORN CROP","180,170.25372770800135,163.9570528277538,147.46453907317704,132.97511237403884,139.9028285640959,126.10128781342793,119.02608072113313","8,7,6,5,4,3,2,1","NETTLE WEED,NETTLE WEED,NETTLE WEED,NETTLE WEED,NETTLE WEED,NETTLE WEED,NETTLE WEED,NETTLE WEED","20,20,20,20,20,20,20,20","20,20,20,20,20,20,20,20","10,10,10,10,10,10,10,10","20,20,20,20,20,20,20,20","0,0,0,0,0,0,0,0","20,20,20,20,20,20,20,20","20,20,20,20,20,20,20,20","20,20,20,20,20,20,20,20","10,10,10,10,10,10,10,10","20,20,20,20,20,20,20,20","0,0,0,0,0,0,0,0","20,20,20,20,20,20,20,20","1,1,1,1,1,1,1,1","5287,1419,353,349,345,426,434,573","0.6955935947284743,7.709944145809258,6.544481985989995,4.280374171407325,11.665351402376752,26.838364105602043,22.562397437956836,12.337472902590473","-9.746272291998654,-6.2966748802475365,-16.49251375457679,-14.489426699138184,6.927716190057055,-13.801540750667968,-7.075207092294809,-20.6172468790497","0","0"
"440","86","text","0","45","520939","0-0","","","","","","","","","","","","","","","","","","","","","","","","","","","","","","","","","","","","",""
"","","plant-game","0","46","536903","0-0","","200","190","2","WHEAT CROP","Left","200","180","8","NETTLE WEED","experimental","10","1,2,3,4,5,6,7,8","190,176.85059233391252,140,159.52792409036948,151.4372935844206,189.82600755624247,208.446034492412,238.74483706408978","2,1,6,5,4,3,2,1","WHEAT CROP,WHEAT CROP,CORN CROP,CORN CROP,CORN CROP,CORN CROP,CORN CROP,CORN CROP","180,135.8800165745906,105.30535590216388,90.51455634178016,101.12876401028129,118.00940296126855,123.5184687955383,151.4979654428289","8,7,6,5,4,3,2,1","NETTLE WEED,NETTLE WEED,NETTLE WEED,NETTLE WEED,NETTLE WEED,NETTLE WEED,NETTLE WEED,NETTLE WEED","20,20,20,20,20,20,20,20","20,20,20,20,20,20,20,20","10,10,10,10,10,10,10,10","20,20,20,20,20,20,20,20","0,0,0,0,0,0,0,0","20,20,20,20,20,20,20,20","20,20,20,20,20,20,20,20","20,20,20,20,20,20,20,20","10,10,10,10,10,10,10,10","20,20,20,20,20,20,20,20","0,0,0,0,0,0,0,0","20,20,20,20,20,20,20,20","1,1,1,1,0,0,0,1","2347,1019,1225,311,1858,582,651,1286","-13.149407666087495,19.459028073296977,19.527924090369496,-8.090630505948893,38.3887139718219,18.620026936169527,30.29880257167778,-6.389333611195129","-44.119983425409394,-30.57466067242671,-14.790799560383718,10.614207668501125,16.880638950987265,5.509065834269755,27.979496647290617,14.533234554797541","0","0"
"479","86","text","0","47","537482","0-0","","","","","","","","","","","","","","","","","","","","","","","","","","","","","","","","","","","","",""
"","","plant-game","0","48","546772","0-0","","200","190","2","WHEAT CROP","Left","200","160","1","NETTLE WEED","experimental","11","1,2","190,215.82549807920273","2,1","WHEAT CROP,WHEAT CROP","160,190","1,1","NETTLE WEED,THISTLE WEED","20,20","20,20","10,10","20,20","0,0","20,20","20,20","20,20","10,10","20,20","0,0","20,20","1,0","1881,2752","25.825498079202738,33.708371876261324","46.03637986889847,70.90753217623859","0","0"
"546","86","text","0","49","547428","0-0","","","","","","","","","","","","","","","","","","","","","","","","","","","","","","","","","","","","",""
"","","plant-game","0","50","555385","0-0","","200","190","2","WHEAT CROP","Right","200","190","1","THISTLE WEED","experimental","12","1,2","190,190","1,1","THISTLE WEED,NETTLE WEED","190,231.24269103391106","2,1","WHEAT CROP,WHEAT CROP","0,0","20,20","10,10","20,20","20,20","20,20","0,0","20,20","10,10","20,20","20,20","20,20","1,0","2210,1282","35.435791029249444,-8.519415403461206","41.24269103391104,13.217944030491509","0","0"
"272","86","text","0","51","555747","0-0","","","","","","","","","","","","","","","","","","","","","","","","","","","","","","","","","","","","",""
"","","plant-game","0","52","573429","0-0","","200","120","8","CORN CROP","Left","200","180","4","THISTLE WEED","experimental","13","1,2,3,4,5,6,7,8","120,146.12227702114828,148.68976778196011,184.66280085679395,201.26285038501828,185.01328404357744,166.91742075992633,191.2217431544504","8,7,6,5,4,3,2,1","CORN CROP,CORN CROP,CORN CROP,CORN CROP,CORN CROP,CORN CROP,CORN CROP,CORN CROP","180,217.47475498914494,204.67299129376238,240.4837427709547,160,151.02637067448686,181.489768693611,182.38061562114981","4,3,2,1,4,3,2,1","THISTLE WEED,THISTLE WEED,THISTLE WEED,THISTLE WEED,NETTLE WEED,NETTLE WEED,NETTLE WEED,NETTLE WEED","20,20,20,20,20,20,20,20","20,20,20,20,20,20,20,20","10,10,10,10,10,10,10,10","20,20,20,20,20,20,20,20","0,0,0,0,0,0,0,0","20,20,20,20,20,20,20,20","20,20,20,20,20,20,20,20","20,20,20,20,20,20,20,20","10,10,10,10,10,10,10,10","20,20,20,20,20,20,20,20","0,0,0,0,0,0,0,0","20,20,20,20,20,20,20,20","0,1,1,0,1,0,1,1","3826,545,715,853,2228,965,1902,579","26.122277021148278,2.5674907608118405,35.97303307483383,16.600049528224346,-16.24956634144084,-18.095863283651113,24.30432239452406,11.312370224124123","37.47475498914495,-12.801763695382554,35.81075147719232,21.48854256652447,-8.973629325513134,30.46339801912415,0.8908469275387978,9.82757875294892","0","0"
"499","86","text","0","53","574028","0-0","","","","","","","","","","","","","","","","","","","","","","","","","","","","","","","","","","","","",""
"","","plant-game","0","54","584419","0-0","","200","160","1","CORN CROP","Right","200","160","4","NETTLE WEED","experimental","14","1,2,3,4","160,185.78816862614948,173.86355094237763,216.2184472053744","4,3,2,1","NETTLE WEED,NETTLE WEED,NETTLE WEED,NETTLE WEED","160,170,231.54486778773352,243.6164167554848","1,3,2,1","CORN CROP,WHEAT CROP,WHEAT CROP,WHEAT CROP","0,0,0,0","20,20,20,20","10,10,10,10","20,20,20,20","20,20,20,20","20,20,20,20","0,0,0,0","20,20,20,20","10,10,10,10","20,20,20,20","20,20,20,20","20,20,20,20","0,1,1,0","1365,1521,1428,514","25.78816862614948,-11.924617683771853,42.35489626299677,-22.941882983786467","6.204862065701269,61.54486778773352,12.07154896775128,11.018249218713725","0","0"
"345","86","text","0","55","584864","0-0","","","","","","","","","","","","","","","","","","","","","","","","","","","","","","","","","","","","",""
"","","plant-game","0","56","600834","0-0","","200","120","8","WHEAT CROP","Right","200","190","2","THISTLE WEED","experimental","15","1,2,3,4,5,6,7,8","190,215.49898338230838,140,132.08996740043915,122.44596749553742,125.88021229587628,136.38611583851502,127.25206808072565","2,1,6,5,4,3,2,1","THISTLE WEED,THISTLE WEED,NETTLE WEED,NETTLE WEED,NETTLE WEED,NETTLE WEED,NETTLE WEED,NETTLE WEED","120,152.5187964697324,180.61875462322868,206.60747134203768,197.1190065684037,225.36486977169903,232.8170700521189,222.00980467975793","8,7,6,5,4,3,2,1","WHEAT CROP,WHEAT CROP,WHEAT CROP,WHEAT CROP,WHEAT CROP,WHEAT CROP,WHEAT CROP,WHEAT CROP","0,0,0,0,0,0,0,0","20,20,20,20,20,20,20,20","10,10,10,10,10,10,10,10","20,20,20,20,20,20,20,20","20,20,20,20,20,20,20,20","20,20,20,20,20,20,20,20","0,0,0,0,0,0,0,0","20,20,20,20,20,20,20,20","10,10,10,10,10,10,10,10","20,20,20,20,20,20,20,20","20,20,20,20,20,20,20,20","20,20,20,20,20,20,20,20","1,0,0,0,1,1,0,1","3429,502,3178,639,597,578,1224,334","25.498983382308392,-22.455321446386108,-7.910032599560863,-9.643999904901731,3.4342448003388597,10.50590354263875,-9.134047757789375,16.417157318983243","32.518796469732386,28.09995815349628,25.988716718809,-9.488464773633984,28.245863203295336,7.452200280419884,-10.807265372360984,24.053699042706498","0","0"
"343","86","text","0","57","601297","0-0","","","","","","","","","","","","","","","","","","","","","","","","","","","","","","","","","","","","",""
"","","plant-game","0","58","608687","0-0","","200","160","4","CORN CROP","Left","200","180","4","THISTLE WEED","experimental","16","1,2,3,4","160,137.62286137473322,154.24529761879404,124.31564433737401","4,3,2,1","CORN CROP,CORN CROP,CORN CROP,CORN CROP","180,169.4011649166855,195.15641402225498,211.88551159145229","4,3,2,1","THISTLE WEED,THISTLE WEED,THISTLE WEED,THISTLE WEED","20,20,20,20","20,20,20,20","10,10,10,10","20,20,20,20","0,0,0,0","20,20,20,20","20,20,20,20","20,20,20,20","10,10,10,10","20,20,20,20","0,0,0,0","20,20,20,20","1,0,1,1","1903,765,427,919","-22.37713862526677,16.622436244060825,-29.929653281420027,-0.3334923310226421","-10.598835083314512,25.755249105569487,16.729097569197314,9.63086100930317","0","0"
"205","86","text","0","59","609012","0-0","","","","","","","","","","","","","","","","","","","","","","","","","","","","","","","","","","","","",""
"","","plant-game","0","60","627060","0-0","","200","190","8","WHEAT CROP","Left","200","190","1","THISTLE WEED","experimental","17","1,2,3,4,5,6,7,8","190,189.09270271997244,214.2245158012798,234.4516395214069,246.75016706934076,258.66480644460324,303.9679961871215,294.85009286994966","8,7,6,5,4,3,2,1","WHEAT CROP,WHEAT CROP,WHEAT CROP,WHEAT CROP,WHEAT CROP,WHEAT CROP,WHEAT CROP,WHEAT CROP","190,130,164.02475366949392,167.0071833719586,193.5719436903864,187.44741909086298,252.0044025909283,293.1517868753529","1,7,6,5,4,3,2,1","THISTLE WEED,NETTLE WEED,NETTLE WEED,NETTLE WEED,NETTLE WEED,NETTLE WEED,NETTLE WEED,NETTLE WEED","20,20,20,20,20,20,20,20","20,20,20,20,20,20,20,20","10,10,10,10,10,10,10,10","20,20,20,20,20,20,20,20","0,0,0,0,0,0,0,0","20,20,20,20,20,20,20,20","20,20,20,20,20,20,20,20","20,20,20,20,20,20,20,20","10,10,10,10,10,10,10,10","20,20,20,20,20,20,20,20","0,0,0,0,0,0,0,0","20,20,20,20,20,20,20,20","0,1,1,1,0,0,1,0","1934,2450,1669,478,793,703,600,500","-0.9072972800275565,25.131813081307367,20.227123720127093,12.298527547933872,11.914639375262478,45.30318974251828,-9.117903317171862,23.265414870136585","-3.505455259142984,34.02475366949392,2.9824297024646826,26.5647603184278,-6.124524599523422,64.55698350006531,41.147384284424604,20.847090989856863","0","0"
"725","86","text","0","61","627919","0-0","","","","","","","","","","","","","","","","","","","","","","","","","","","","","","","","","","","","",""
"","","plant-game","0","62","671257","0-0","","200","160","8","CORN CROP","Right","200","120","1","THISTLE WEED","experimental","18","1,2,3,4,5,6,7,8","120,130,168.86489428932975,165.90095038508443,175.27069004487743,183.26857934436546,178.53613554678395,165.1023449995095","1,7,6,5,4,3,2,1","THISTLE WEED,NETTLE WEED,NETTLE WEED,NETTLE WEED,NETTLE WEED,NETTLE WEED,NETTLE WEED,NETTLE WEED","160,178.70246983381688,223.64630907393513,228.0399493244168,282.96371170650696,312.52543758039957,334.7747224391939,343.5889280674738","8,7,6,5,4,3,2,1","CORN CROP,CORN CROP,CORN CROP,CORN CROP,CORN CROP,CORN CROP,CORN CROP,CORN CROP","0,0,0,0,0,0,0,0","20,20,20,20,20,20,20,20","10,10,10,10,10,10,10,10","20,20,20,20,20,20,20,20","20,20,20,20,20,20,20,20","20,20,20,20,20,20,20,20","0,0,0,0,0,0,0,0","20,20,20,20,20,20,20,20","10,10,10,10,10,10,10,10","20,20,20,20,20,20,20,20","20,20,20,20,20,20,20,20","20,20,20,20,20,20,20,20","0,1,0,1,0,0,1,0","1154,11705,1454,951,558,2148,1131,923","-9.113868220707577,38.86489428932977,-2.9639439042453395,9.369739659793012,7.997889299488027,-4.7324437975815234,-13.433790547274441,17.495161884673","18.702469833816874,44.94383924011825,4.393640250481681,54.92376238209019,29.561725873892627,22.24928485879433,8.814205628279876,-3.7375115802416747","0","0"
"206","86","text","0","63","671543","0-0","","","","","","","","","","","","","","","","","","","","","","","","","","","","","","","","","","","","",""
"","","plant-game","0","64","688709","0-0","","200","180","8","WHEAT CROP","Left","200","120","2","NETTLE WEED","experimental","19","1,2,3,4,5,6,7,8","180,176.96410737819554,197.7409484472496,192.5543184723662,230.5405913418093,227.85848007539676,279.3955835725087,297.6660006062753","8,7,6,5,4,3,2,1","WHEAT CROP,WHEAT CROP,WHEAT CROP,WHEAT CROP,WHEAT CROP,WHEAT CROP,WHEAT CROP,WHEAT CROP","120,121.1171574876569,140,146.5264133588138,156.41467945664587,171.25454690162564,166.7225041581927,166.67571135719237","2,1,6,5,4,3,2,1","NETTLE WEED,NETTLE WEED,THISTLE WEED,THISTLE WEED,THISTLE WEED,THISTLE WEED,THISTLE WEED,THISTLE WEED","20,20,20,20,20,20,20,20","20,20,20,20,20,20,20,20","10,10,10,10,10,10,10,10","20,20,20,20,20,20,20,20","0,0,0,0,0,0,0,0","20,20,20,20,20,20,20,20","20,20,20,20,20,20,20,20","20,20,20,20,20,20,20,20","10,10,10,10,10,10,10,10","20,20,20,20,20,20,20,20","0,0,0,0,0,0,0,0","20,20,20,20,20,20,20,20","0,0,1,0,0,1,0,1","1095,1452,2036,498,3726,501,922,305","-3.0358926218044715,20.77684106905407,-5.186629974883394,37.9862728694431,-2.6821112664125266,51.53710349711198,18.27041703376658,-7.851693340769375","1.1171574876569004,9.750930797258771,6.526413358813816,9.888266097832064,14.839867444979763,-4.532042743432952,-0.04679280100032912,-3.7649815235950697","0","0"
"158","86","text","0","65","689017","0-0","","","","","","","","","","","","","","","","","","","","","","","","","","","","","","","","","","","","",""
"","","plant-game","0","66","700646","0-0","","200","120","4","CORN CROP","Right","200","160","4","THISTLE WEED","experimental","20","1,2,3,4","160,168.24929606902055,173.1557770880789,162.7268069575682","4,3,2,1","THISTLE WEED,THISTLE WEED,THISTLE WEED,THISTLE WEED","120,135.68538472568258,148.79763004637596,141.9287929756074","4,3,2,1","CORN CROP,CORN CROP,CORN CROP,CORN CROP","0,0,0,0","20,20,20,20","10,10,10,10","20,20,20,20","20,20,20,20","20,20,20,20","0,0,0,0","20,20,20,20","10,10,10,10","20,20,20,20","20,20,20,20","20,20,20,20","0,0,0,1","6074,767,585,698","8.249296069020545,4.90648101905837,-10.428970130510733,4.320982794832396","15.685384725682583,13.112245320693361,-6.868837070768566,15.191714637738942","0","0"
"196","86","text","0","67","700951","0-0","","","","","","","","","","","","","","","","","","","","","","","","","","","","","","","","","","","","",""
"","","plant-game","0","68","710022","0-0","","200","160","1","WHEAT CROP","Left","200","190","1","NETTLE WEED","experimental","21","1","160","1","WHEAT CROP","190","1","NETTLE WEED","20","20","10","20","0","20","20","20","10","20","0","20","1","5094","-19.090494367501137","15.317571090436854","0","0"
"555","86","text","0","69","710702","0-0","","","","","","","","","","","","","","","","","","","","","","","","","","","","","","","","","","","","",""
"","","plant-game","0","70","725920","0-0","","200","190","2","WHEAT CROP","Left","200","190","4","THISTLE WEED","experimental","22","1,2,3,4","190,202.40794365244625,180,221.64294259269005","2,1,2,1","WHEAT CROP,WHEAT CROP,CORN CROP,CORN CROP","190,213.21526434184904,207.0223226518428,250.7393433320936","4,3,2,1","THISTLE WEED,THISTLE WEED,THISTLE WEED,THISTLE WEED","20,20,20,20","20,20,20,20","10,10,10,10","20,20,20,20","0,0,0,0","20,20,20,20","20,20,20,20","20,20,20,20","10,10,10,10","20,20,20,20","0,0,0,0","20,20,20,20","0,1,0,1","2330,2777,2153,607","12.40794365244625,6.417208731516055,41.64294259269005,-11.035808249957935","23.215264341849043,-6.192941690006234,43.71702068025077,-16.447883258154615","0","0"
"133","86","text","0","71","726153","0-0","","","","","","","","","","","","","","","","","","","","","","","","","","","","","","","","","","","","",""
"","","plant-game","0","72","737150","0-0","","200","120","2","CORN CROP","Right","200","160","1","NETTLE WEED","experimental","23","1,2","160,190","1,1","NETTLE WEED,THISTLE WEED","120,152.70509260276117","2,1","CORN CROP,CORN CROP","0,0","20,20","10,10","20,20","20,20","20,20","0,0","20,20","10,10","20,20","20,20","20,20","1,0","1895,2566","12.982278482163203,1.048924426334742","32.705092602761155,-27.60904782002718","0","0"
"101","86","text","0","73","737361","0-0","","","","","","","","","","","","","","","","","","","","","","","","","","","","","","","","","","","","",""
"","","plant-game","0","74","747202","0-0","","200","120","2","CORN CROP","Right","200","160","4","NETTLE WEED","experimental","24","1,2,3,4","160,188.21537712905013,152.62769104724703,150.46046650100274","4,3,2,1","NETTLE WEED,NETTLE WEED,NETTLE WEED,NETTLE WEED","120,158.01462128508442,180,206.18420178896105","2,1,2,1","CORN CROP,CORN CROP,WHEAT CROP,WHEAT CROP","0,0,0,0","20,20,20,20","10,10,10,10","20,20,20,20","20,20,20,20","20,20,20,20","0,0,0,0","20,20,20,20","10,10,10,10","20,20,20,20","20,20,20,20","20,20,20,20","1,0,1,1","1321,510,1673,584","28.21537712905014,-35.587686081803106,-2.1672245462442916,63.540877572788574","38.01462128508442,-9.879619517527086,26.18420178896104,36.76807391657041","0","0"
"22","86","text","0","75","747335","0-0","","","","","","","","","","","","","","","","","","","","","","","","","","","","","","","","","","","","",""
"","","plant-game","0","76","759093","0-0","","200","120","8","CORN CROP","Right","200","160","8","THISTLE WEED","experimental","25","1,2,3,4,5,6,7,8","160,193.09425231283137,161.8372024573625,178.16688242696452,209.63309306565316,207.4447477641823,196.62845152119078,213.1365618221202","8,7,6,5,4,3,2,1","THISTLE WEED,THISTLE WEED,THISTLE WEED,THISTLE WEED,THISTLE WEED,THISTLE WEED,THISTLE WEED,THISTLE WEED","120,119.54290022094173,158.33340061416226,184.81178972470067,202.05376441781644,213.706785716889,202.181345189126,233.2853331911947","8,7,6,5,4,3,2,1","CORN CROP,CORN CROP,CORN CROP,CORN CROP,CORN CROP,CORN CROP,CORN CROP,CORN CROP","0,0,0,0,0,0,0,0","20,20,20,20,20,20,20,20","10,10,10,10,10,10,10,10","20,20,20,20,20,20,20,20","20,20,20,20,20,20,20,20","20,20,20,20,20,20,20,20","0,0,0,0,0,0,0,0","20,20,20,20,20,20,20,20","10,10,10,10,10,10,10,10","20,20,20,20,20,20,20,20","20,20,20,20,20,20,20,20","20,20,20,20,20,20,20,20","0,1,0,1,0,0,1,0","3416,379,1395,163,690,632,614,398","33.09425231283139,-31.257049855468857,16.32967996960202,31.466210638688622,-2.1883453014708665,-10.816296242991504,16.508110300929427,-17.48662658102339","-0.45709977905826615,38.79050039322052,26.47838911053841,17.241974693115775,11.653021299072545,-11.525440527762989,31.1039880020687,-3.496812091703129","0","0"
"618","86","text","0","77","759831","0-0","","","","","","","","","","","","","","","","","","","","","","","","","","","","","","","","","","","","",""
"","","plant-game","0","78","766041","0-0","","200","160","4","WHEAT CROP","Left","200","120","4","NETTLE WEED","experimental","26","1,2,3,4","160,171.4063360456922,206.46810741083888,216.00048600699265","4,3,2,1","WHEAT CROP,WHEAT CROP,WHEAT CROP,WHEAT CROP","120,116.920940729031,119.50550138521538,165.97303163163474","4,3,2,1","NETTLE WEED,NETTLE WEED,NETTLE WEED,NETTLE WEED","20,20,20,20","20,20,20,20","10,10,10,10","20,20,20,20","0,0,0,0","20,20,20,20","20,20,20,20","20,20,20,20","10,10,10,10","20,20,20,20","0,0,0,0","20,20,20,20","0,1,0,1","1574,411,590,312","11.406336045692193,35.06177136514668,9.532378596153773,-3.3685793372008193","-3.0790592709690046,2.5845606561843795,46.46753024641936,3.462189354940974","0","0"
"168","86","text","0","79","766329","0-0","","","","","","","","","","","","","","","","","","","","","","","","","","","","","","","","","","","","",""
"","","plant-game","0","80","776332","0-0","","200","160","8","WHEAT CROP","Right","200","190","8","NETTLE WEED","experimental","27","1,2,3,4,5,6,7,8","190,197.4877216263453,179.1815587311505,216.14151856026407,239.39647364668176,261.83451746923805,240.45661423521344,275.4007461265259","8,7,6,5,4,3,2,1","NETTLE WEED,NETTLE WEED,NETTLE WEED,NETTLE WEED,NETTLE WEED,NETTLE WEED,NETTLE WEED,NETTLE WEED","160,148.3373512548853,151.3138355351171,184.631848370554,172.47296369813682,200.93752706738695,187.0508429684753,210.1749079577051","8,7,6,5,4,3,2,1","WHEAT CROP,WHEAT CROP,WHEAT CROP,WHEAT CROP,WHEAT CROP,WHEAT CROP,WHEAT CROP,WHEAT CROP","0,0,0,0,0,0,0,0","20,20,20,20,20,20,20,20","10,10,10,10,10,10,10,10","20,20,20,20,20,20,20,20","20,20,20,20,20,20,20,20","20,20,20,20,20,20,20,20","0,0,0,0,0,0,0,0","20,20,20,20,20,20,20,20","10,10,10,10,10,10,10,10","20,20,20,20,20,20,20,20","20,20,20,20,20,20,20,20","20,20,20,20,20,20,20,20","0,0,0,0,1,0,1,1","1350,1178,485,564,719,342,618,972","7.4877216263453,-18.306162895194802,36.959959829113586,23.254955086417684,22.438043822556317,-21.377903234024625,34.94413189131248,7.411767891751131","-11.662648745114698,2.976484280231806,33.3180128354369,-12.158884672417159,28.46456336925014,-13.886684098911655,23.124064989229797,18.94262155046356","0","0"
"61","86","text","0","81","776499","0-0","","","","","","","","","","","","","","","","","","","","","","","","","","","","","","","","","","","","",""
"","","plant-game","0","82","785421","0-0","","200","120","1","CORN CROP","Right","200","190","2","NETTLE WEED","experimental","28","1,2","190,215.51933306443325","2,1","NETTLE WEED,NETTLE WEED","120,190","1,1","CORN CROP,WHEAT CROP","0,0","20,20","10,10","20,20","20,20","20,20","0,0","20,20","10,10","20,20","20,20","20,20","1,0","2520,630","25.519333064433255,14.542349557683599","33.77257843819075,4.480906776677735","0","0"
"803","86","text","0","83","786344","0-0","","","","","","","","","","","","","","","","","","","","","","","","","","","","","","","","","","","","",""
"","","plant-game","0","84","793979","0-0","","200","160","2","WHEAT CROP","Right","200","160","2","NETTLE WEED","experimental","29","1,2","160,151.8632904792206","2,1","NETTLE WEED,NETTLE WEED","160,154.16272080922806","2,1","WHEAT CROP,WHEAT CROP","0,0","20,20","10,10","20,20","20,20","20,20","0,0","20,20","10,10","20,20","20,20","20,20","0,1","3594,592","-8.136709520779387,38.26241297655663","-5.8372791907719455,2.5371216327934434","0","0"
"557","86","text","0","85","794696","0-0","","","","","","","","","","","","","","","","","","","","","","","","","","","","","","","","","","","","",""
"","","plant-game","0","86","804656","0-0","","200","120","1","CORN CROP","Right","200","160","2","THISTLE WEED","experimental","30","1,2","160,136.3223067131767","2,1","THISTLE WEED,THISTLE WEED","120,190","1,1","CORN CROP,WHEAT CROP","0,0","20,20","10,10","20,20","20,20","20,20","0,0","20,20","10,10","20,20","20,20","20,20","0,1","2595,1950","-23.677693286823324,11.331711957192418","13.010182033643463,45.93643181302569","0","0"
"104","86","text","0","87","804860","0-0","","","","","","","","","","","","","","","","","","","","","","","","","","","","","","","","","","","","",""
"","","plant-game","0","88","815187","0-0","","200","160","8","WHEAT CROP","Right","200","120","4","THISTLE WEED","experimental","31","1,2,3,4,5,6,7,8","120,117.71798470546624,131.81910180609887,161.03708560088523,160,208.06562518657796,235.8598778915442,237.18510091915013","4,3,2,1,4,3,2,1","THISTLE WEED,THISTLE WEED,THISTLE WEED,THISTLE WEED,NETTLE WEED,NETTLE WEED,NETTLE WEED,NETTLE WEED","160,136.3258868550694,128.39379147164163,159.39212299039505,172.47334459342696,177.3389007652118,200.17144260451502,222.37035015583677","8,7,6,5,4,3,2,1","WHEAT CROP,WHEAT CROP,WHEAT CROP,WHEAT CROP,WHEAT CROP,WHEAT CROP,WHEAT CROP,WHEAT CROP","0,0,0,0,0,0,0,0","20,20,20,20,20,20,20,20","10,10,10,10,10,10,10,10","20,20,20,20,20,20,20,20","20,20,20,20,20,20,20,20","20,20,20,20,20,20,20,20","0,0,0,0,0,0,0,0","20,20,20,20,20,20,20,20","10,10,10,10,10,10,10,10","20,20,20,20,20,20,20,20","20,20,20,20,20,20,20,20","20,20,20,20,20,20,20,20","1,1,1,0,0,0,1,1","1162,382,214,649,877,725,374,272","-2.282015294533764,14.101117100632623,29.217983794786367,1.3709763897424025,48.06562518657796,27.794252704966222,1.3252230276059436,-9.588986789870653","-23.6741131449306,-7.932095383427779,30.998331518753407,13.081221603031917,4.865556171784833,22.832541839303214,22.19890755132175,40.646595428689324","0","0"
"360","86","text","0","89","815647","0-0","","","","","","","","","","","","","","","","","","","","","","","","","","","","","","","","","","","","",""
"","","plant-game","0","90","831125","0-0","","200","160","4","WHEAT CROP","Left","200","120","8","THISTLE WEED","experimental","32","1,2,3,4,5,6,7,8","160,156.81858307505996,133.71817266308017,127.26999355300234,160,201.0228156608839,221.75611654642395,184.73722037096616","4,3,2,1,4,3,2,1","WHEAT CROP,WHEAT CROP,WHEAT CROP,WHEAT CROP,CORN CROP,CORN CROP,CORN CROP,CORN CROP","120,153.97364600679947,141.4636052708973,188.1147802345045,215.46686415498365,244.07739507862215,286.33618934906406,272.0273812771389","8,7,6,5,4,3,2,1","THISTLE WEED,THISTLE WEED,THISTLE WEED,THISTLE WEED,THISTLE WEED,THISTLE WEED,THISTLE WEED,THISTLE WEED","20,20,20,20,20,20,20,20","20,20,20,20,20,20,20,20","10,10,10,10,10,10,10,10","20,20,20,20,20,20,20,20","0,0,0,0,0,0,0,0","20,20,20,20,20,20,20,20","20,20,20,20,20,20,20,20","20,20,20,20,20,20,20,20","10,10,10,10,10,10,10,10","20,20,20,20,20,20,20,20","0,0,0,0,0,0,0,0","20,20,20,20,20,20,20,20","0,1,0,1,0,0,1,0","2741,1479,612,804,2046,901,699,547","-3.181416924940038,-23.100410411979794,-6.448179110077838,4.703470965998883,41.02281566088392,20.73330088554005,-37.01889617545781,35.93518699832711","33.97364600679948,-12.510040735902184,46.651174963607225,27.352083920479142,28.610530923638507,42.258794270441896,-14.30880807192517,47.36491172687565","0","0"
"187","86","text","0","91","831482","0-0","","","","","","","","","","","","","","","","","","","","","","","","","","","","","","","","","","","","",""
"","","plant-game","0","92","841402","0-0","","200","160","4","CORN CROP","Left","200","190","1","NETTLE WEED","experimental","33","1,2,3,4","160,172.93913991341444,195.8480402140377,253.55257621426819","4,3,2,1","CORN CROP,CORN CROP,CORN CROP,CORN CROP","190,170,183.78948967679528,173.32121222909967","1,3,2,1","NETTLE WEED,THISTLE WEED,THISTLE WEED,THISTLE WEED","20,20,20,20","20,20,20,20","10,10,10,10","20,20,20,20","0,0,0,0","20,20,20,20","20,20,20,20","20,20,20,20","10,10,10,10","20,20,20,20","0,0,0,0","20,20,20,20","0,0,0,0","1686,1650,652,786","12.939139913414426,22.908900300623248,57.70453600023048,29.316954510950545","61.79160218763863,13.789489676795295,-10.468277447695602,52.13841450505032","0","0"
"587","86","text","0","93","842099","0-0","","","","","","","","","","","","","","","","","","","","","","","","","","","","","","","","","","","","",""
"","","plant-game","0","94","856350","0-0","","200","180","2","CORN CROP","Left","200","180","1","NETTLE WEED","experimental","34","1,2","180,182.63732584754456","2,1","CORN CROP,CORN CROP","180,190","1,1","NETTLE WEED,THISTLE WEED","20,20","20,20","10,10","20,20","0,0","20,20","20,20","20,20","10,10","20,20","0,0","20,20","0,0","1185,8119","2.6373258475445454,46.6280226056194","3.897880381397286,30.205342826717768","0","0"
"417","86","text","0","95","856897","0-0","","","","","","","","","","","","","","","","","","","","","","","","","","","","","","","","","","","","",""
"","","plant-game","0","96","867955","0-0","","200","180","8","WHEAT CROP","Left","200","190","1","THISTLE WEED","experimental","35","1,2,3,4,5,6,7,8","180,184.72451113910833,195.57995160682142,219.78958579478802,226.77940161188886,226.76730127622835,241.42660990070365,215.47218749567767","8,7,6,5,4,3,2,1","WHEAT CROP,WHEAT CROP,WHEAT CROP,WHEAT CROP,WHEAT CROP,WHEAT CROP,WHEAT CROP,WHEAT CROP","190,130,179.40718986696857,210.60470280718258,251.9744607095114,245.9525872169843,254.95477226081084,239.02369856022972","1,7,6,5,4,3,2,1","THISTLE WEED,NETTLE WEED,NETTLE WEED,NETTLE WEED,NETTLE WEED,NETTLE WEED,NETTLE WEED,NETTLE WEED","20,20,20,20,20,20,20,20","20,20,20,20,20,20,20,20","10,10,10,10,10,10,10,10","20,20,20,20,20,20,20,20","0,0,0,0,0,0,0,0","20,20,20,20,20,20,20,20","20,20,20,20,20,20,20,20","20,20,20,20,20,20,20,20","10,10,10,10,10,10,10,10","20,20,20,20,20,20,20,20","0,0,0,0,0,0,0,0","20,20,20,20,20,20,20,20","0,0,0,1,1,1,1,1","1369,1091,344,354,1283,374,510,292","4.724511139108332,10.855440467713088,24.209634187966593,6.989815817100842,-0.012100335660503607,14.659308624475296,-25.954422405025976,-30.429995900530965","-2.950970060839026,49.407189866968565,31.197512940214,41.3697579023288,-6.0218734925270665,9.002185043826522,-15.931073700581136,16.046355390896462","0","0"
"114","86","text","0","97","868149","0-0","","","","","","","","","","","","","","","","","","","","","","","","","","","","","","","","","","","","",""
"","","plant-game","0","98","880148","0-0","","200","190","8","WHEAT CROP","Right","200","190","2","NETTLE WEED","experimental","36","1,2,3,4,5,6,7,8","190,181.74357837250116,140,120.77003118804569,115.53117397991143,116.05778744864227,113.82721352612461,122.52109298929894","2,1,6,5,4,3,2,1","NETTLE WEED,NETTLE WEED,THISTLE WEED,THISTLE WEED,THISTLE WEED,THISTLE WEED,THISTLE WEED,THISTLE WEED","190,173.16875914444472,185.93296788554778,192.94849094089935,180.51087847489728,228.34890345956643,272.55625216727583,259.8195076860276","8,7,6,5,4,3,2,1","WHEAT CROP,WHEAT CROP,WHEAT CROP,WHEAT CROP,WHEAT CROP,WHEAT CROP,WHEAT CROP,WHEAT CROP","0,0,0,0,0,0,0,0","20,20,20,20,20,20,20,20","10,10,10,10,10,10,10,10","20,20,20,20,20,20,20,20","20,20,20,20,20,20,20,20","20,20,20,20,20,20,20,20","0,0,0,0,0,0,0,0","20,20,20,20,20,20,20,20","10,10,10,10,10,10,10,10","20,20,20,20,20,20,20,20","20,20,20,20,20,20,20,20","20,20,20,20,20,20,20,20","0,1,0,0,1,1,1,0","1309,430,1621,944,831,542,424,477","-8.256421627498838,1.4752840138641297,-19.22996881195431,-5.238857208134263,0.5266134687308401,-2.2305739225176566,8.693879463174328,-4.422181379319097","-16.83124085555527,12.76420874110306,7.015523055351568,-12.437612466002076,47.83802498466915,44.207348707709386,-12.736744481248238,-4.84178064622715","0","0"
"120","86","text","0","99","880353","0-0","","","","","","","","","","","","","","","","","","","","","","","","","","","","","","","","","","","","",""
"","","plant-game","0","100","890920","0-0","","200","120","4","CORN CROP","Left","200","190","2","THISTLE WEED","experimental","37","1,2,3,4","120,123.17186132719543,164.004939958748,182.7120353157676","4,3,2,1","CORN CROP,CORN CROP,CORN CROP,CORN CROP","190,207.93178867542122,180,211.76175845402233","2,1,2,1","THISTLE WEED,THISTLE WEED,NETTLE WEED,NETTLE WEED","20,20,20,20","20,20,20,20","10,10,10,10","20,20,20,20","0,0,0,0","20,20,20,20","20,20,20,20","20,20,20,20","10,10,10,10","20,20,20,20","0,0,0,0","20,20,20,20","0,0,0,1","1461,1848,2110,430","3.1718613271954332,40.83307863155257,18.70709535701959,2.161246583717857","17.93178867542123,17.61021870213266,31.76175845402232,8.023976299584044","0","0"
"27","86","text","0","101","891076","0-0","","","","","","","","","","","","","","","","","","","","","","","","","","","","","","","","","","","","",""
"","","plant-game","0","102","912557","0-0","","200","190","4","WHEAT CROP","Right","200","180","2","NETTLE WEED","experimental","38","1,2,3,4","180,171.187268037454,180,199.38547991356856","2,1,2,1","NETTLE WEED,NETTLE WEED,THISTLE WEED,THISTLE WEED","190,192.43800035174576,193.9307052975732,249.65002772430097","4,3,2,1","WHEAT CROP,WHEAT CROP,WHEAT CROP,WHEAT CROP","0,0,0,0","20,20,20,20","10,10,10,10","20,20,20,20","20,20,20,20","20,20,20,20","0,0,0,0","20,20,20,20","10,10,10,10","20,20,20,20","20,20,20,20","20,20,20,20","1,1,1,0","8814,3216,2809,1605","-8.812731962546003,45.74881312045379,19.385479913568552,5.521597003023145","2.4380003517457673,1.4927049458274446,55.71932242672776,-12.012963943150352","0","0"
"174","86","text","0","103","912851","0-0","","","","","","","","","","","","","","","","","","","","","","","","","","","","","","","","","","","","",""
"","","plant-game","0","104","918975","0-0","","200","190","4","WHEAT CROP","Right","200","160","4","NETTLE WEED","experimental","39","1,2,3,4","160,155.3155141978764,175.55026835205922,212.64978217816144","4,3,2,1","NETTLE WEED,NETTLE WEED,NETTLE WEED,NETTLE WEED","190,139.0854336202361,117.35986655438748,127.42141326246532","4,3,2,1","WHEAT CROP,WHEAT CROP,WHEAT CROP,WHEAT CROP","0,0,0,0","20,20,20,20","10,10,10,10","20,20,20,20","20,20,20,20","20,20,20,20","0,0,0,0","20,20,20,20","10,10,10,10","20,20,20,20","20,20,20,20","20,20,20,20","0,0,1,0","999,984,979,22","-4.6844858021236,20.234754154182816,37.09951382610224,10.326290918154452","-50.91456637976389,-21.725567065848615,10.06154670807784,-15.415906713602606","0","0"
"173","86","text","0","105","919291","0-0","","","","","","","","","","","","","","","","","","","","","","","","","","","","","","","","","","","","",""
"","","plant-game","0","106","932428","0-0","","200","120","4","CORN CROP","Left","200","160","1","THISTLE WEED","experimental","40","1,2,3,4","120,144.85495473239556,168.0420562975072,212.57590817731665","4,3,2,1","CORN CROP,CORN CROP,CORN CROP,CORN CROP","160,170,148.2741986052987,181.2165280331025","1,3,2,1","THISTLE WEED,NETTLE WEED,NETTLE WEED,NETTLE WEED","20,20,20,20","20,20,20,20","10,10,10,10","20,20,20,20","0,0,0,0","20,20,20,20","20,20,20,20","20,20,20,20","10,10,10,10","20,20,20,20","0,0,0,0","20,20,20,20","1,0,0,0","457,1728,738,2709","24.85495473239556,23.187101565111647,44.53385187980946,51.20251850754147","21.04265243093372,-21.725801394701307,32.9423294278038,49.32745269527899","0","0"
"227","86","text","0","107","932705","0-0","","","","","","","","","","","","","","","","","","","","","","","","","","","","","","","","","","","","",""
"","","plant-game","0","108","949362","0-0","","200","160","2","WHEAT CROP","Right","200","160","8","NETTLE WEED","experimental","41","1,2,3,4,5,6,7,8","160,155.19890810565892,151.11777635024436,146.68937004140142,191.79418513097826,188.12054202080768,177.17350545159564,159.639514813068","8,7,6,5,4,3,2,1","NETTLE WEED,NETTLE WEED,NETTLE WEED,NETTLE WEED,NETTLE WEED,NETTLE WEED,NETTLE WEED,NETTLE WEED","160,185.23697337420765,140,108.27526350606479,124.25538244095249,146.97397381742672,141.90603838996938,139.38179043558463","2,1,6,5,4,3,2,1","WHEAT CROP,WHEAT CROP,CORN CROP,CORN CROP,CORN CROP,CORN CROP,CORN CROP,CORN CROP","0,0,0,0,0,0,0,0","20,20,20,20,20,20,20,20","10,10,10,10,10,10,10,10","20,20,20,20,20,20,20,20","20,20,20,20,20,20,20,20","20,20,20,20,20,20,20,20","0,0,0,0,0,0,0,0","20,20,20,20,20,20,20,20","10,10,10,10,10,10,10,10","20,20,20,20,20,20,20,20","20,20,20,20,20,20,20,20","20,20,20,20,20,20,20,20","0,0,0,1,0,0,0,1","1198,2210,2801,661,529,385,2173,908","-4.8010918943410825,-4.081131755414569,-4.428406308842945,45.10481508957684,-3.673643110170583,-10.947036569212042,-17.53399063852767,12.522040240436153","25.236973374207654,43.51414635583278,-31.72473649393521,15.9801189348877,22.71859137647423,-5.067935427457348,-2.5242479543847396,-15.530376268310924","0","0"
"88","86","text","0","109","949570","0-0","","","","","","","","","","","","","","","","","","","","","","","","","","","","","","","","","","","","",""
"","","plant-game","0","110","959973","0-0","","200","190","1","CORN CROP","Left","200","180","4","THISTLE WEED","experimental","42","1,2,3,4","190,170,175.53922836668104,145.4560085250956","1,3,2,1","CORN CROP,WHEAT CROP,WHEAT CROP,WHEAT CROP","180,165.08612299134373,210.40428647358095,246.61454194538553","4,3,2,1","THISTLE WEED,THISTLE WEED,THISTLE WEED,THISTLE WEED","20,20,20,20","20,20,20,20","10,10,10,10","20,20,20,20","0,0,0,0","20,20,20,20","20,20,20,20","20,20,20,20","10,10,10,10","20,20,20,20","0,0,0,0","20,20,20,20","0,0,1,1","1417,1556,580,377","24.54339962238983,5.539228366681034,-30.083219841585453,-15.934740150872909","-14.913877008656264,45.318163482237225,36.210255471804565,-12.69811036029967","0","0"
"852","86","text","0","111","961015","0-0","","","","","","","","","","","","","","","","","","","","","","","","","","","","","","","","","","","","",""
"","","plant-game","0","112","977751","0-0","","200","160","8","WHEAT CROP","Right","200","160","4","NETTLE WEED","experimental","43","1,2,3,4,5,6,7,8","160,117.84054731160224,95.31346669810151,75.92022763526327,160,144.3633032367681,118.02545788544941,97.42875834525843","4,3,2,1,4,3,2,1","NETTLE WEED,NETTLE WEED,NETTLE WEED,NETTLE WEED,THISTLE WEED,THISTLE WEED,THISTLE WEED,THISTLE WEED","160,147.66086989895453,132.05873751691465,134.8288820444604,133.84092239075642,106.30792140784139,92.6024405558792,121.79996876205787","8,7,6,5,4,3,2,1","WHEAT CROP,WHEAT CROP,WHEAT CROP,WHEAT CROP,WHEAT CROP,WHEAT CROP,WHEAT CROP,WHEAT CROP","0,0,0,0,0,0,0,0","20,20,20,20,20,20,20,20","10,10,10,10,10,10,10,10","20,20,20,20,20,20,20,20","20,20,20,20,20,20,20,20","20,20,20,20,20,20,20,20","0,0,0,0,0,0,0,0","20,20,20,20,20,20,20,20","10,10,10,10,10,10,10,10","20,20,20,20,20,20,20,20","20,20,20,20,20,20,20,20","20,20,20,20,20,20,20,20","0,1,0,0,0,0,0,1","2135,572,440,1222,2827,954,999,1162","-42.159452688397764,-22.52708061350073,-19.39323906283823,-3.5922563686816957,-15.636696763231882,-26.337845351318684,-20.59669954019098,54.70701297073448","-12.339130101045473,-15.60213238203989,2.770144527545755,-0.9879596537039915,-27.533000982915027,-13.70548085196219,29.197528206178674,-5.225360563188495","0","0"
"671","86","text","0","113","978578","0-0","","","","","","","","","","","","","","","","","","","","","","","","","","","","","","","","","","","","",""
"","","plant-game","0","114","993143","0-0","","200","180","8","WHEAT CROP","Left","200","160","4","NETTLE WEED","experimental","44","1,2,3,4,5,6,7,8","180,161.25092428143546,162.1389528427053,148.22942262652742,180.0777793634688,189.8803202809635,226.84638728516296,222.4827056267874","8,7,6,5,4,3,2,1","WHEAT CROP,WHEAT CROP,WHEAT CROP,WHEAT CROP,WHEAT CROP,WHEAT CROP,WHEAT CROP,WHEAT CROP","160,176.3587352557898,163.4278721033581,153.12140324687883,160,168.37247916484534,199.17605001592298,224.03909391350933","4,3,2,1,4,3,2,1","NETTLE WEED,NETTLE WEED,NETTLE WEED,NETTLE WEED,THISTLE WEED,THISTLE WEED,THISTLE WEED,THISTLE WEED","20,20,20,20,20,20,20,20","20,20,20,20,20,20,20,20","10,10,10,10,10,10,10,10","20,20,20,20,20,20,20,20","0,0,0,0,0,0,0,0","20,20,20,20,20,20,20,20","20,20,20,20,20,20,20,20","20,20,20,20,20,20,20,20","10,10,10,10,10,10,10,10","20,20,20,20,20,20,20,20","0,0,0,0,0,0,0,0","20,20,20,20,20,20,20,20","0,1,1,0,0,0,1,0","1403,702,393,956,1052,366,1006,841","-18.749075718564534,0.8880285612698258,-13.909530216177881,31.848356736941383,9.80254091749469,36.96606700419947,-4.363681658375556,29.110425428359154","16.358735255789806,-12.930863152431701,-10.306468856479276,29.239955649466907,8.372479164845334,30.803570851077627,24.86304389758635,10.092153015696827","0","0"
"178","86","text","0","115","993456","0-0","","","","","","","","","","","","","","","","","","","","","","","","","","","","","","","","","","","","",""
"","","plant-game","0","116","1005599","0-0","","200","180","2","CORN CROP","Left","200","160","8","THISTLE WEED","experimental","45","1,2,3,4,5,6,7,8","180,225.44809208432693,140,173.9704071255543,165.55243013262861,186.4235394479377,166.90957535596604,173.36030790553252","2,1,6,5,4,3,2,1","CORN CROP,CORN CROP,WHEAT CROP,WHEAT CROP,WHEAT CROP,WHEAT CROP,WHEAT CROP,WHEAT CROP","160,201.49411985147492,185.8288821817191,198.6526564681119,224.78129816140734,206.00987263231937,214.08426916261973,168.60618847883984","8,7,6,5,4,3,2,1","THISTLE WEED,THISTLE WEED,THISTLE WEED,THISTLE WEED,THISTLE WEED,THISTLE WEED,THISTLE WEED,THISTLE WEED","20,20,20,20,20,20,20,20","20,20,20,20,20,20,20,20","10,10,10,10,10,10,10,10","20,20,20,20,20,20,20,20","0,0,0,0,0,0,0,0","20,20,20,20,20,20,20,20","20,20,20,20,20,20,20,20","20,20,20,20,20,20,20,20","10,10,10,10,10,10,10,10","20,20,20,20,20,20,20,20","0,0,0,0,0,0,0,0","20,20,20,20,20,20,20,20","0,1,0,1,1,1,1,1","746,1255,1484,500,994,109,77,647","45.44809208432694,7.467183164859224,33.9704071255543,-8.417976992925668,20.871109315309088,-19.513964091971665,6.4507325495664825,11.582098201227591","41.49411985147492,-15.665237669755802,12.823774286392805,26.12864169329544,-18.771425529087974,8.074396530300374,-45.47808068377991,-31.422773862705963","0","0"
"166","86","text","0","117","1005855","0-0","","","","","","","","","","","","","","","","","","","","","","","","","","","","","","","","","","","","",""
"","","plant-game","0","118","1012790","0-0","","200","190","4","CORN CROP","Right","200","160","2","NETTLE WEED","experimental","46","1,2,3,4","160,140.2051833472062,180,193.57035510367996","2,1,2,1","NETTLE WEED,NETTLE WEED,THISTLE WEED,THISTLE WEED","190,184.57077783407235,221.1124690492237,217.1105028186162","4,3,2,1","CORN CROP,CORN CROP,CORN CROP,CORN CROP","0,0,0,0","20,20,20,20","10,10,10,10","20,20,20,20","20,20,20,20","20,20,20,20","0,0,0,0","20,20,20,20","10,10,10,10","20,20,20,20","20,20,20,20","20,20,20,20","0,1,0,1","1000,400,923,441","-19.794816652793806,32.99703461007588,13.570355103679969,33.840518715329345","-5.429222165927653,36.54169121515136,-4.001966230607497,46.365685877214595","0","0"
"113","86","text","0","119","1012983","0-0","","","","","","","","","","","","","","","","","","","","","","","","","","","","","","","","","","","","",""
"","","plant-game","0","120","1024248","0-0","","200","160","1","CORN CROP","Right","200","180","8","NETTLE WEED","experimental","47","1,2,3,4,5,6,7,8","180,153.94097615156818,125.8528135348341,128.17821613112014,146.21252788485947,191.51489131956274,226.93592959243017,244.17383678214344","8,7,6,5,4,3,2,1","NETTLE WEED,NETTLE WEED,NETTLE WEED,NETTLE WEED,NETTLE WEED,NETTLE WEED,NETTLE WEED,NETTLE WEED","160,130,173.67252048040893,213.0771210255794,251.42559901917383,260.89445326960737,254.19139169010361,264.1862567333946","1,7,6,5,4,3,2,1","CORN CROP,WHEAT CROP,WHEAT CROP,WHEAT CROP,WHEAT CROP,WHEAT CROP,WHEAT CROP,WHEAT CROP","0,0,0,0,0,0,0,0","20,20,20,20,20,20,20,20","10,10,10,10,10,10,10,10","20,20,20,20,20,20,20,20","20,20,20,20,20,20,20,20","20,20,20,20,20,20,20,20","0,0,0,0,0,0,0,0","20,20,20,20,20,20,20,20","10,10,10,10,10,10,10,10","20,20,20,20,20,20,20,20","20,20,20,20,20,20,20,20","20,20,20,20,20,20,20,20","0,1,1,1,1,1,0,0","534,1215,374,947,616,25,1235,840","-26.059023848431835,-28.08816261673408,2.325402596286029,18.034311753739342,45.30236343470327,35.421038272867435,17.237907189713262,3.0987713277893363","6.794691795733616,43.67252048040892,39.40460054517046,38.348477993594415,9.46885425043355,-6.703061579503746,9.994865043291002,-9.515377974291969","0","0"
"1695","86","text","0","121","1026104","0-0","","","","","","","","","","","","","","","","","","","","","","","","","","","","","","","","","","","","",""
"","","plant-game","0","122","1035564","0-0","","200","190","1","WHEAT CROP","Left","200","160","4","NETTLE WEED","experimental","48","1,2,3,4","190,170,171.01863276818875,179.8728403453634","1,3,2,1","WHEAT CROP,CORN CROP,CORN CROP,CORN CROP","160,170.8793218860066,184.60265064911192,188.9593602807993","4,3,2,1","NETTLE WEED,NETTLE WEED,NETTLE WEED,NETTLE WEED","20,20,20,20","20,20,20,20","10,10,10,10","20,20,20,20","0,0,0,0","20,20,20,20","20,20,20,20","20,20,20,20","10,10,10,10","20,20,20,20","0,0,0,0","20,20,20,20","0,0,1,1","1358,1168,510,1282","38.025384366792885,1.0186327681887626,8.854207577174636,-27.686793810255118","10.87932188600662,13.723328763105323,4.356709631687368,-12.254997920112046","0","0"
"7724","86","text","0","123","1043438","0-0","","","","","","","","","","","","","","","","","","","","","","","","","","","","","","","","","","","","",""
"","","plant-game","0","124","1051411","0-0","","200","160","1","WHEAT CROP","Left","200","190","4","THISTLE WEED","experimental","49","1,2,3,4","160,170,145.12658895677473,166.1611997154037","1,3,2,1","WHEAT CROP,CORN CROP,CORN CROP,CORN CROP","190,224.97792226390015,199.34722868766093,183.63697160525626","4,3,2,1","THISTLE WEED,THISTLE WEED,THISTLE WEED,THISTLE WEED","20,20,20,20","20,20,20,20","10,10,10,10","20,20,20,20","0,0,0,0","20,20,20,20","20,20,20,20","20,20,20,20","10,10,10,10","20,20,20,20","0,0,0,0","20,20,20,20","0,1,1,1","1023,1208,806,427","11.545225187695584,-24.873411043225282,21.03461075862898,4.970905836479574","34.97792226390016,-25.630693576239224,-15.710257082404668,11.191448370543291","0","0"
"474","86","text","0","125","1052025","0-0","","","","","","","","","","","","","","","","","","","","","","","","","","","","","","","","","","","","",""
"","","plant-game","0","126","1066425","0-0","","200","190","8","CORN CROP","Right","200","120","2","NETTLE WEED","experimental","50","1,2,3,4,5,6,7,8","120,109.05512725914997,140,150.79433113871804,162.3986109352302,194.1755095238484,217.70049878425948,176.05186977059458","2,1,6,5,4,3,2,1","NETTLE WEED,NETTLE WEED,THISTLE WEED,THISTLE WEED,THISTLE WEED,THISTLE WEED,THISTLE WEED,THISTLE WEED","190,228.72413727752974,238.25039212175008,256.8730057157404,263.51815428638514,240.44417094051897,251.28074298612586,267.85761458849623","8,7,6,5,4,3,2,1","CORN CROP,CORN CROP,CORN CROP,CORN CROP,CORN CROP,CORN CROP,CORN CROP,CORN CROP","0,0,0,0,0,0,0,0","20,20,20,20,20,20,20,20","10,10,10,10,10,10,10,10","20,20,20,20,20,20,20,20","20,20,20,20,20,20,20,20","20,20,20,20,20,20,20,20","0,0,0,0,0,0,0,0","20,20,20,20,20,20,20,20","10,10,10,10,10,10,10,10","20,20,20,20,20,20,20,20","20,20,20,20,20,20,20,20","20,20,20,20,20,20,20,20","1,1,1,1,1,1,0,1","1701,1657,1120,455,388,2125,444,986","-10.944872740850027,-5.41470792605406,10.794331138718045,11.604279796512184,31.7768985886182,23.52498926041106,-41.648629013664895,16.844221580615027","38.72413727752975,9.52625484422034,18.62261359399031,6.645148570644725,-23.073983345866168,10.836572045606891,16.576871602370367,4.914040095918752","0","0"
"214","86","text","0","127","1066762","0-0","","","","","","","","","","","","","","","","","","","","","","","","","","","","","","","","","","","","",""
"","","plant-game","0","128","1074685","0-0","","200","120","2","CORN CROP","Right","200","180","4","THISTLE WEED","experimental","51","1,2,3,4","180,176.7191834244048,190.69151443891815,190.9756395710249","4,3,2,1","THISTLE WEED,THISTLE WEED,THISTLE WEED,THISTLE WEED","120,158.15927874512707,180,202.43697095927834","2,1,2,1","CORN CROP,CORN CROP,WHEAT CROP,WHEAT CROP","0,0,0,0","20,20,20,20","10,10,10,10","20,20,20,20","20,20,20,20","20,20,20,20","0,0,0,0","20,20,20,20","10,10,10,10","20,20,20,20","20,20,20,20","20,20,20,20","1,1,1,1","1387,410,1282,633","-3.2808165755951926,13.972331014513337,0.28412513210676593,33.00118972136051","38.15927874512707,4.317330771099062,22.43697095927835,1.9173336466901176","0","0"
"93","86","text","0","129","1074878","0-0","","","","","","","","","","","","","","","","","","","","","","","","","","","","","","","","","","","","",""
"","","plant-game","0","130","1083338","0-0","","200","120","4","WHEAT CROP","Left","200","120","2","NETTLE WEED","experimental","52","1,2,3,4","120,158.3719162770368,183.96397423926,201.3628908121221","4,3,2,1","WHEAT CROP,WHEAT CROP,WHEAT CROP,WHEAT CROP","120,120.20359777376689,180,196.1157713271498","2,1,2,1","NETTLE WEED,NETTLE WEED,THISTLE WEED,THISTLE WEED","20,20,20,20","20,20,20,20","10,10,10,10","20,20,20,20","0,0,0,0","20,20,20,20","20,20,20,20","20,20,20,20","10,10,10,10","20,20,20,20","0,0,0,0","20,20,20,20","0,0,0,0","1219,160,943,1417","38.37191627703682,25.59205796222321,17.398916572862067,25.640930913488987","0.20359777376689436,49.28213272260184,16.115771327149787,46.42067382777337","0","0"
"103","86","text","0","131","1083521","0-0","","","","","","","","","","","","","","","","","","","","","","","","","","","","","","","","","","","","",""
"","","plant-game","0","132","1095267","0-0","","200","180","4","CORN CROP","Left","200","160","8","NETTLE WEED","experimental","53","1,2,3,4,5,6,7,8","180,178.12260242199952,186.02056341401837,169.36684570087667,160,202.7887584038152,233.37030382258635,215.73661913484824","4,3,2,1,4,3,2,1","CORN CROP,CORN CROP,CORN CROP,CORN CROP,WHEAT CROP,WHEAT CROP,WHEAT CROP,WHEAT CROP","160,172.3897627742693,194.2309232112532,208.11358738127166,233.14118767855237,265.2412093569235,262.2774932595646,259.82260059494286","8,7,6,5,4,3,2,1","NETTLE WEED,NETTLE WEED,NETTLE WEED,NETTLE WEED,NETTLE WEED,NETTLE WEED,NETTLE WEED,NETTLE WEED","20,20,20,20,20,20,20,20","20,20,20,20,20,20,20,20","10,10,10,10,10,10,10,10","20,20,20,20,20,20,20,20","0,0,0,0,0,0,0,0","20,20,20,20,20,20,20,20","20,20,20,20,20,20,20,20","20,20,20,20,20,20,20,20","10,10,10,10,10,10,10,10","20,20,20,20,20,20,20,20","0,0,0,0,0,0,0,0","20,20,20,20,20,20,20,20","0,0,1,0,0,0,1,0","1065,190,173,1100,2600,702,380,470","-1.8773975780004761,7.89796099201884,-16.6537177131417,-0.5336243619583527,42.7887584038152,30.581545418771157,-17.633684687738096,47.00348600341507","12.389762774269274,21.841160436983934,13.882664170018447,25.027600297280724,32.10002167837111,-2.9637160973588763,-2.4548926646217755,-6.230508285511153","0","0"
"756","86","text","0","133","1096143","0-0","","","","","","","","","","","","","","","","","","","","","","","","","","","","","","","","","","","","",""
"","","plant-game","0","134","1104363","0-0","","200","120","4","WHEAT CROP","Right","200","120","4","THISTLE WEED","experimental","54","1,2,3,4","120,110.34441240300161,140.36774704804262,186.94118794936858","4,3,2,1","THISTLE WEED,THISTLE WEED,THISTLE WEED,THISTLE WEED","120,103.55134887500091,125.10350250521847,103.42926598172801","4,3,2,1","WHEAT CROP,WHEAT CROP,WHEAT CROP,WHEAT CROP","0,0,0,0","20,20,20,20","10,10,10,10","20,20,20,20","20,20,20,20","20,20,20,20","0,0,0,0","20,20,20,20","10,10,10,10","20,20,20,20","20,20,20,20","20,20,20,20","0,0,1,0","3615,727,462,544","-9.655587596998386,30.023334645040997,46.573440901325974,34.9668229539266","-16.44865112499909,21.55215363021756,-21.67423652349047,-12.075258971661873","0","0"
"240","86","text","0","135","1104723","0-0","","","","","","","","","","","","","","","","","","","","","","","","","","","","","","","","","","","","",""
"","","plant-game","0","136","1113023","0-0","","200","120","4","CORN CROP","Right","200","190","8","NETTLE WEED","experimental","55","1,2,3,4,5,6,7,8","190,187.64541957732246,182.41769183948855,211.70041570573017,234.84586211628738,239.6138287244842,303.87386244178435,286.09232075290157","8,7,6,5,4,3,2,1","NETTLE WEED,NETTLE WEED,NETTLE WEED,NETTLE WEED,NETTLE WEED,NETTLE WEED,NETTLE WEED,NETTLE WEED","120,160.250147920433,181.83081442421914,211.1645976180543,160,165.74747684632476,200.4238346049185,193.5808612028248","4,3,2,1,4,3,2,1","CORN CROP,CORN CROP,CORN CROP,CORN CROP,WHEAT CROP,WHEAT CROP,WHEAT CROP,WHEAT CROP","0,0,0,0,0,0,0,0","20,20,20,20,20,20,20,20","10,10,10,10,10,10,10,10","20,20,20,20,20,20,20,20","20,20,20,20,20,20,20,20","20,20,20,20,20,20,20,20","0,0,0,0,0,0,0,0","20,20,20,20,20,20,20,20","10,10,10,10,10,10,10,10","20,20,20,20,20,20,20,20","20,20,20,20,20,20,20,20","20,20,20,20,20,20,20,20","1,1,1,0,1,1,0,0","317,343,317,607,1013,201,283,169","-2.354580422677536,-5.2277277378338916,29.282723866241618,23.145446410557206,4.7679666081968275,64.26003371730013,-17.781541688882786,-34.54392211832947","40.25014792043299,21.58066650378614,29.33378319383517,34.92873251136444,5.747476846324762,34.67635775859377,-6.8429734020937225,-25.870168471459213","0","0"
"445","86","text","0","137","1113588","0-0","","","","","","","","","","","","","","","","","","","","","","","","","","","","","","","","","","","","",""
"","","plant-game","0","138","1118140","0-0","","200","120","2","CORN CROP","Left","200","190","2","NETTLE WEED","experimental","56","1,2","120,147.59676995824984","2,1","CORN CROP,CORN CROP","190,163.45836758792507","2,1","NETTLE WEED,NETTLE WEED","20,20","20,20","10,10","20,20","0,0","20,20","20,20","20,20","10,10","20,20","0,0","20,20","1,1","886,525","27.596769958249837,11.01164005738973","-26.54163241207494,-23.98393646430018","0","0"
"448","86","text","0","139","1118758","0-0","","","","","","","","","","","","","","","","","","","","","","","","","","","","","","","","","","","","",""
"","","plant-game","0","140","1128972","0-0","","200","180","4","CORN CROP","Left","200","180","8","THISTLE WEED","experimental","57","1,2,3,4,5,6,7,8","180,189.18469445915036,192.91806965532365,200.63056244915654,160,162.75669917163503,187.89159669811977,218.5142758089704","4,3,2,1,4,3,2,1","CORN CROP,CORN CROP,CORN CROP,CORN CROP,WHEAT CROP,WHEAT CROP,WHEAT CROP,WHEAT CROP","180,193.85656237558246,186.61515221867708,188.52558750078893,197.49418774735324,194.4372716346963,194.79126151766377,222.81312586491026","8,7,6,5,4,3,2,1","THISTLE WEED,THISTLE WEED,THISTLE WEED,THISTLE WEED,THISTLE WEED,THISTLE WEED,THISTLE WEED,THISTLE WEED","20,20,20,20,20,20,20,20","20,20,20,20,20,20,20,20","10,10,10,10,10,10,10,10","20,20,20,20,20,20,20,20","0,0,0,0,0,0,0,0","20,20,20,20,20,20,20,20","20,20,20,20,20,20,20,20","20,20,20,20,20,20,20,20","10,10,10,10,10,10,10,10","20,20,20,20,20,20,20,20","0,0,0,0,0,0,0,0","20,20,20,20,20,20,20,20","0,1,1,1,0,0,0,1","832,579,458,568,1011,432,148,644","9.184694459150368,3.7333751961732773,7.712492793832906,-10.826981918015875,2.7566991716350415,25.13489752648475,30.622679110850644,-39.801869201909895","13.856562375582463,-7.241410156905362,1.9104352821118595,8.968600246564293,-3.0569161126569355,0.3539898829674897,28.021864347246492,11.41468013088696","0","0"
"399","86","text","0","141","1129491","0-0","","","","","","","","","","","","","","","","","","","","","","","","","","","","","","","","","","","","",""
"","","plant-game","0","142","1133164","0-0","","200","180","2","CORN CROP","Left","200","180","2","THISTLE WEED","experimental","58","1,2","180,205.6374306002173","2,1","CORN CROP,CORN CROP","180,224.43954238610473","2,1","THISTLE WEED,THISTLE WEED","20,20","20,20","10,10","20,20","0,0","20,20","20,20","20,20","10,10","20,20","0,0","20,20","0,0","434,725","25.6374306002173,56.124307573489226","44.43954238610474,30.036180683734912","0","0"
"175","86","text","0","143","1133429","0-0","","","","","","","","","","","","","","","","","","","","","","","","","","","","","","","","","","","","",""
"","","plant-game","0","144","1141635","0-0","","200","180","4","CORN CROP","Right","200","160","1","THISTLE WEED","experimental","59","1,2,3,4","160,170,205.72200359287342,185.04073655059372","1,3,2,1","THISTLE WEED,NETTLE WEED,NETTLE WEED,NETTLE WEED","180,194.5277490705293,256.4643215059942,215.04664600529279","4,3,2,1","CORN CROP,CORN CROP,CORN CROP,CORN CROP","0,0,0,0","20,20,20,20","10,10,10,10","20,20,20,20","20,20,20,20","20,20,20,20","0,0,0,0","20,20,20,20","10,10,10,10","20,20,20,20","20,20,20,20","20,20,20,20","1,0,0,1","1178,891,780,583","7.345784136948886,35.72200359287342,-20.68126704227971,31.48558541404018","14.527749070529293,61.93657243546488,-41.41767550070139,25.116778675052984","0","0"
"1049","86","text","0","145","1142804","0-0","","","","","","","","","","","","","","","","","","","","","","","","","","","","","","","","","","","","",""
"","","plant-game","0","146","1152514","0-0","","200","180","4","WHEAT CROP","Left","200","120","8","NETTLE WEED","experimental","60","1,2,3,4,5,6,7,8","180,192.78218259789338,188.4097816258016,211.24927309686106,160,179.40610690535198,196.01201631571206,204.99616387937021","4,3,2,1,4,3,2,1","WHEAT CROP,WHEAT CROP,WHEAT CROP,WHEAT CROP,CORN CROP,CORN CROP,CORN CROP,CORN CROP","120,167.6064609725537,193.73724932209822,253.106010701875,275.8140820609041,294.95737903896935,336.413915872562,335.797903342696","8,7,6,5,4,3,2,1","NETTLE WEED,NETTLE WEED,NETTLE WEED,NETTLE WEED,NETTLE WEED,NETTLE WEED,NETTLE WEED,NETTLE WEED","20,20,20,20,20,20,20,20","20,20,20,20,20,20,20,20","10,10,10,10,10,10,10,10","20,20,20,20,20,20,20,20","0,0,0,0,0,0,0,0","20,20,20,20,20,20,20,20","20,20,20,20,20,20,20,20","20,20,20,20,20,20,20,20","10,10,10,10,10,10,10,10","20,20,20,20,20,20,20,20","0,0,0,0,0,0,0,0","20,20,20,20,20,20,20,20","1,1,0,0,0,1,1,1","803,395,524,761,955,454,253,86","12.782182597893385,-4.3724009720917865,22.83949147105946,-6.5012707775906655,19.406106905351972,16.605909410360095,8.984147563658153,-44.4130422496125","47.60646097255369,26.130788349544524,59.36876137977676,22.70807135902916,19.14329697806524,41.45653683359262,-0.6160125298659984,-23.014082146505967","0","0"
"599","86","text","0","147","1153213","0-0","","","","","","","","","","","","","","","","","","","","","","","","","","","","","","","","","","","","",""
"","","plant-game","0","148","1163618","0-0","","200","190","8","WHEAT CROP","Right","200","160","1","THISTLE WEED","experimental","61","1,2,3,4,5,6,7,8","160,130,158.28393097523605,161.76838543961506,174.8564972599041,214.69557037391232,201.6435641775193,191.52151778485484","1,7,6,5,4,3,2,1","THISTLE WEED,NETTLE WEED,NETTLE WEED,NETTLE WEED,NETTLE WEED,NETTLE WEED,NETTLE WEED,NETTLE WEED","190,242.7952632354341,241.26961551621136,253.59396914737493,271.1825385131672,278.7289915069958,261.7856718391415,274.88902421583003","8,7,6,5,4,3,2,1","WHEAT CROP,WHEAT CROP,WHEAT CROP,WHEAT CROP,WHEAT CROP,WHEAT CROP,WHEAT CROP,WHEAT CROP","0,0,0,0,0,0,0,0","20,20,20,20,20,20,20,20","10,10,10,10,10,10,10,10","20,20,20,20,20,20,20,20","20,20,20,20,20,20,20,20","20,20,20,20,20,20,20,20","0,0,0,0,0,0,0,0","20,20,20,20,20,20,20,20","10,10,10,10,10,10,10,10","20,20,20,20,20,20,20,20","20,20,20,20,20,20,20,20","20,20,20,20,20,20,20,20","1,1,1,1,1,0,0,0","1150,719,424,159,301,475,676,1041","16.913767499797224,28.28393097523605,3.4844544643790094,13.088111820289052,39.83907311400822,-13.052006196393016,-10.122046392664458,12.174649870228325","52.79526323543409,-1.525647719222757,12.324353631163564,17.588569365792214,7.546452993828623,-16.943319667854247,13.10335237668851,-27.110039232053435","0","0"
"87","86","text","0","149","1163835","0-0","","","","","","","","","","","","","","","","","","","","","","","","","","","","","","","","","","","","",""
"","","plant-game","0","150","1173652","0-0","","200","160","4","WHEAT CROP","Right","200","120","1","THISTLE WEED","experimental","62","1,2,3,4","120,170,161.4137092627393,169.43579188076694","1,3,2,1","THISTLE WEED,NETTLE WEED,NETTLE WEED,NETTLE WEED","160,163.70867207809448,218.2946461863326,251.5131020707679","4,3,2,1","WHEAT CROP,WHEAT CROP,WHEAT CROP,WHEAT CROP","0,0,0,0","20,20,20,20","10,10,10,10","20,20,20,20","20,20,20,20","20,20,20,20","0,0,0,0","20,20,20,20","10,10,10,10","20,20,20,20","20,20,20,20","20,20,20,20","1,1,1,0","1454,1367,530,1165","61.29123470538546,-8.586290737260708,8.02208261802763,-13.928108951338892","3.7086720780944944,54.58597410823813,33.21845588443527,11.182941876146256","0","0"
"1711","86","text","0","151","1175503","0-0","","","","","","","","","","","","","","","","","","","","","","","","","","","","","","","","","","","","",""
"","","plant-game","0","152","1181051","0-0","","200","160","2","CORN CROP","Right","200","120","4","NETTLE WEED","experimental","63","1,2,3,4","120,158.69237186567364,211.16685289686677,205.5790021873566","4,3,2,1","NETTLE WEED,NETTLE WEED,NETTLE WEED,NETTLE WEED","160,155.9029536023703,180,204.15419109530444","2,1,2,1","CORN CROP,CORN CROP,WHEAT CROP,WHEAT CROP","0,0,0,0","20,20,20,20","10,10,10,10","20,20,20,20","20,20,20,20","20,20,20,20","0,0,0,0","20,20,20,20","10,10,10,10","20,20,20,20","20,20,20,20","20,20,20,20","1,1,0,0","684,69,39,497","38.69237186567365,52.47448103119314,-5.587850709510169,4.789159469933542","-4.097046397629704,8.316840536874512,24.154191095304434,3.679441335680927","0","0"
"181","86","text","0","153","1181352","0-0","","","","","","","","","","","","","","","","","","","","","","","","","","","","","","","","","","","","",""
"","","plant-game","0","154","1191010","0-0","","200","180","4","WHEAT CROP","Left","200","190","2","NETTLE WEED","experimental","64","1,2,3,4","180,191.54008530025513,193.41899343537233,188.03401085281288","4,3,2,1","WHEAT CROP,WHEAT CROP,WHEAT CROP,WHEAT CROP","190,171.36033302880446,180,201.38802159290765","2,1,2,1","NETTLE WEED,NETTLE WEED,THISTLE WEED,THISTLE WEED","20,20,20,20","20,20,20,20","10,10,10,10","20,20,20,20","0,0,0,0","20,20,20,20","20,20,20,20","20,20,20,20","10,10,10,10","20,20,20,20","0,0,0,0","20,20,20,20","1,1,1,0","1152,419,2949,445","11.540085300255141,1.8789081351171943,-5.384982582559436,19.40521183785867","-18.639666971195524,-4.838486057308302,21.388021592907638,-3.612033475632469","0","0"
"281","86","text","0","155","1191351","0-0","","","","","","","","","","","","","","","","","","","","","","","","","","","","","","","","","","","","",""
"","","plant-game","0","156","1201602","0-0","","200","190","8","WHEAT CROP","Right","200","180","2","NETTLE WEED","experimental","65","1,2,3,4,5,6,7,8","180,155.95736600834124,140,137.4468686658404,131.68286208412044,116.24003862748522,95.20965588976664,84.39525121548982","2,1,6,5,4,3,2,1","NETTLE WEED,NETTLE WEED,THISTLE WEED,THISTLE WEED,THISTLE WEED,THISTLE WEED,THISTLE WEED,THISTLE WEED","190,203.87973995587998,233.93836891902788,259.4445773711803,249.35910053759952,257.1589959671031,236.51723852706584,241.2158669919905","8,7,6,5,4,3,2,1","WHEAT CROP,WHEAT CROP,WHEAT CROP,WHEAT CROP,WHEAT CROP,WHEAT CROP,WHEAT CROP,WHEAT CROP","0,0,0,0,0,0,0,0","20,20,20,20,20,20,20,20","10,10,10,10,10,10,10,10","20,20,20,20,20,20,20,20","20,20,20,20,20,20,20,20","20,20,20,20,20,20,20,20","0,0,0,0,0,0,0,0","20,20,20,20,20,20,20,20","10,10,10,10,10,10,10,10","20,20,20,20,20,20,20,20","20,20,20,20,20,20,20,20","20,20,20,20,20,20,20,20","1,1,0,0,0,0,0,0","1004,130,1367,573,477,363,418,456","-24.042633991658747,10.246062277273044,-2.553131334159576,-5.764006581719973,-15.442823456635224,-21.03038273771858,-10.81440467427681,16.270113067325596","13.879739955879984,30.05862896314789,25.506208452152418,-10.085476833580776,7.799895429503615,-20.64175744003729,4.698628464924669,23.54548232076205","0","0"
"223","86","text","0","157","1201885","0-0","","","","","","","","","","","","","","","","","","","","","","","","","","","","","","","","","","","","",""
"","","plant-game","0","158","1210993","0-0","","200","120","8","WHEAT CROP","Right","200","160","4","THISTLE WEED","experimental","66","1,2,3,4,5,6,7,8","160,173.89165371266122,187.42056498110355,161.73190714836625,160,163.7371707887472,179.67763312124103,214.99013914620815","4,3,2,1,4,3,2,1","THISTLE WEED,THISTLE WEED,THISTLE WEED,THISTLE WEED,NETTLE WEED,NETTLE WEED,NETTLE WEED,NETTLE WEED","120,145.22271592904946,182.66862354163067,181.9236316691865,199.30403556873628,217.46396779997272,199.97699847235077,227.86252027046834","8,7,6,5,4,3,2,1","WHEAT CROP,WHEAT CROP,WHEAT CROP,WHEAT CROP,WHEAT CROP,WHEAT CROP,WHEAT CROP,WHEAT CROP","0,0,0,0,0,0,0,0","20,20,20,20,20,20,20,20","10,10,10,10,10,10,10,10","20,20,20,20,20,20,20,20","20,20,20,20,20,20,20,20","20,20,20,20,20,20,20,20","0,0,0,0,0,0,0,0","20,20,20,20,20,20,20,20","10,10,10,10,10,10,10,10","20,20,20,20,20,20,20,20","20,20,20,20,20,20,20,20","20,20,20,20,20,20,20,20","1,1,0,0,0,0,1,0","581,121,302,377,1445,430,699,426","13.89165371266123,13.528911268442318,-25.6886578327373,-7.840630427789435,3.7371707887472008,15.94046233249383,35.312506024967135,-3.142881698978688","25.22271592904945,37.44590761258121,-0.7449918724441719,17.380403899549787,18.159932231236432,-17.48696932762194,27.885521798117566,18.722046909128817","0","0"
"443","86","text","0","159","1211516","0-0","","","","","","","","","","","","","","","","","","","","","","","","","","","","","","","","","","","","",""
"","","plant-game","0","160","1222336","0-0","","200","190","4","WHEAT CROP","Left","200","160","1","THISTLE WEED","experimental","67","1,2,3,4","190,179.80522252780725,169.0871770151723,173.27391513860772","4,3,2,1","WHEAT CROP,WHEAT CROP,WHEAT CROP,WHEAT CROP","160,170,206.61057205176678,215.4028682673346","1,3,2,1","THISTLE WEED,NETTLE WEED,NETTLE WEED,NETTLE WEED","20,20,20,20","20,20,20,20","10,10,10,10","20,20,20,20","0,0,0,0","20,20,20,20","20,20,20,20","20,20,20,20","10,10,10,10","20,20,20,20","0,0,0,0","20,20,20,20","0,0,1,0","840,1570,538,454","-10.194777472192747,-10.718045512634951,4.186738123435406,37.85110357794404","36.41775934529265,36.610572051766795,8.792296215567843,35.4052227319635","0","0"
"499","86","text","0","161","1222935","0-0","","","","","","","","","","","","","","","","","","","","","","","","","","","","","","","","","","","","",""
"","","plant-game","0","162","1229984","0-0","","200","190","8","CORN CROP","Right","200","160","8","NETTLE WEED","experimental","68","1,2,3,4,5,6,7,8","160,192.6006809873135,183.51603288960777,149.98650110481378,188.71144679697767,189.74036136088017,230.75914844512232,236.7162928101394","8,7,6,5,4,3,2,1","NETTLE WEED,NETTLE WEED,NETTLE WEED,NETTLE WEED,NETTLE WEED,NETTLE WEED,NETTLE WEED,NETTLE WEED","190,233.8411546116546,235.83023050206128,212.9527345823367,195.84668016871893,205.30801561904713,236.48696467141534,248.32294590673024","8,7,6,5,4,3,2,1","CORN CROP,CORN CROP,CORN CROP,CORN CROP,CORN CROP,CORN CROP,CORN CROP,CORN CROP","0,0,0,0,0,0,0,0","20,20,20,20,20,20,20,20","10,10,10,10,10,10,10,10","20,20,20,20,20,20,20,20","20,20,20,20,20,20,20,20","20,20,20,20,20,20,20,20","0,0,0,0,0,0,0,0","20,20,20,20,20,20,20,20","10,10,10,10,10,10,10,10","20,20,20,20,20,20,20,20","20,20,20,20,20,20,20,20","20,20,20,20,20,20,20,20","1,0,0,1,0,0,1,0","444,520,384,478,710,429,587,471","32.600680987313496,-9.084648097705719,-33.529531784794,38.7249456921639,1.0289145639025006,41.018787084242156,5.957144365017093,2.3594922826582128","43.841154611654595,1.9890758904066823,-22.87749591972458,-17.106054413617755,9.461335450328193,31.178949052368207,11.835981235314907,12.126657891946781","0","0"
"186","86","text","0","163","1230260","0-0","","","","","","","","","","","","","","","","","","","","","","","","","","","","","","","","","","","","",""
"","","plant-game","0","164","1240181","0-0","","200","190","4","CORN CROP","Left","200","190","8","NETTLE WEED","experimental","69","1,2,3,4,5,6,7,8","190,204.7888518527701,197.0590305496462,198.3314125731903,160,149.47590979500552,166.8242369590757,159.54204503451058","4,3,2,1,4,3,2,1","CORN CROP,CORN CROP,CORN CROP,CORN CROP,WHEAT CROP,WHEAT CROP,WHEAT CROP,WHEAT CROP","190,191.34812769849938,195.2976682610883,223.07972351759605,212.19316241583746,223.89379733786456,232.2424574648251,243.666544240211","8,7,6,5,4,3,2,1","NETTLE WEED,NETTLE WEED,NETTLE WEED,NETTLE WEED,NETTLE WEED,NETTLE WEED,NETTLE WEED,NETTLE WEED","20,20,20,20,20,20,20,20","20,20,20,20,20,20,20,20","10,10,10,10,10,10,10,10","20,20,20,20,20,20,20,20","0,0,0,0,0,0,0,0","20,20,20,20,20,20,20,20","20,20,20,20,20,20,20,20","20,20,20,20,20,20,20,20","10,10,10,10,10,10,10,10","20,20,20,20,20,20,20,20","0,0,0,0,0,0,0,0","20,20,20,20,20,20,20,20","1,1,0,1,1,1,1,0","302,517,1779,793,663,344,55,570","14.7888518527701,-7.72982130312391,1.2723820235441217,25.287174601764008,-10.52409020499448,17.34832716407019,-7.282191924565129,47.78382760581496","1.3481276984993826,3.9495405625889184,27.782055256507746,-10.8865611017586,11.700634922027092,8.348660126960548,11.424086775385923,17.961515108203574","0","0"
"150","86","text","0","165","1240451","0-0","","","","","","","","","","","","","","","","","","","","","","","","","","","","","","","","","","","","",""
"","","plant-game","0","166","1246583","0-0","","200","180","4","CORN CROP","Left","200","160","4","THISTLE WEED","experimental","70","1,2,3,4","180,207.73580792140854,195.21319337353972,151.01216465898386","4,3,2,1","CORN CROP,CORN CROP,CORN CROP,CORN CROP","160,195.12197293057426,172.17024604870622,207.55214299008924","4,3,2,1","THISTLE WEED,THISTLE WEED,THISTLE WEED,THISTLE WEED","20,20,20,20","20,20,20,20","10,10,10,10","20,20,20,20","0,0,0,0","20,20,20,20","20,20,20,20","20,20,20,20","10,10,10,10","20,20,20,20","0,0,0,0","20,20,20,20","0,0,1,0","1020,1148,467,438","27.73580792140855,-12.522614547868812,-44.20102871455586,18.950995298494757","35.12197293057427,-22.951726881868034,35.381896941383005,44.794858830945294","0","0"
"1305","86","text","0","167","1248003","0-0","","","","","","","","","","","","","","","","","","","","","","","","","","","","","","","","","","","","",""
"","","plant-game","0","168","1257139","0-0","","200","190","1","CORN CROP","Left","200","120","8","THISTLE WEED","experimental","71","1,2,3,4,5,6,7,8","190,130,110.84904171246204,121.88415001550828,111.30596916625241,158.08109571069474,173.98575002229987,146.8750297585308","1,7,6,5,4,3,2,1","CORN CROP,WHEAT CROP,WHEAT CROP,WHEAT CROP,WHEAT CROP,WHEAT CROP,WHEAT CROP,WHEAT CROP","120,130.4820700846077,139.36836775749006,115.82925213284705,83.25290402907476,41.94666731975971,12.07831216421539,34.67657265856799","8,7,6,5,4,3,2,1","THISTLE WEED,THISTLE WEED,THISTLE WEED,THISTLE WEED,THISTLE WEED,THISTLE WEED,THISTLE WEED,THISTLE WEED","20,20,20,20,20,20,20,20","20,20,20,20,20,20,20,20","10,10,10,10,10,10,10,10","20,20,20,20,20,20,20,20","0,0,0,0,0,0,0,0","20,20,20,20,20,20,20,20","20,20,20,20,20,20,20,20","20,20,20,20,20,20,20,20","10,10,10,10,10,10,10,10","20,20,20,20,20,20,20,20","0,0,0,0,0,0,0,0","20,20,20,20,20,20,20,20","1,1,1,1,1,1,1,0","647,764,397,505,342,436,378,576","29.224746563544038,-19.15095828753796,11.03510830304625,-10.578180849255872,46.77512654444233,15.904654311605134,-27.110720263769096,19.51288340016922","10.482070084607704,8.886297672882371,-23.53911562464301,-32.5763481037723,-41.306236709315044,-29.86835515554432,22.598260494352598,11.957923761816438","0","0"
"92","86","text","0","169","1257331","0-0","","","","","","","","","","","","","","","","","","","","","","","","","","","","","","","","","","","","",""
"","","plant-game","0","170","1265089","0-0","","200","190","1","WHEAT CROP","Right","200","180","2","THISTLE WEED","experimental","72","1,2","180,192.67916354034023","2,1","THISTLE WEED,THISTLE WEED","190,190","1,1","WHEAT CROP,CORN CROP","0,0","20,20","10,10","20,20","20,20","20,20","0,0","20,20","10,10","20,20","20,20","20,20","1,1","594,2499","12.679163540340221,12.689361215070798","35.04355391625923,24.792974278998177","0","0"
"857","86","text","0","171","1266066","0-0","","","","","","","","","","","","","","","","","","","","","","","","","","","","","","","","","","","","",""
"","","plant-game","0","172","1271041","0-0","","200","180","2","CORN CROP","Right","200","190","2","THISTLE WEED","experimental","73","1,2","190,169.2509650642279","2,1","THISTLE WEED,THISTLE WEED","180,175.91957183257713","2,1","CORN CROP,CORN CROP","0,0","20,20","10,10","20,20","20,20","20,20","0,0","20,20","10,10","20,20","20,20","20,20","0,1","1313,996","-20.749034935772094,23.590867916160903","-4.080428167422865,20.605430214743556","0","0"
"111","86","text","0","173","1271292","0-0","","","","","","","","","","","","","","","","","","","","","","","","","","","","","","","","","","","","",""
"","","plant-game","0","174","1281704","0-0","","200","190","8","WHEAT CROP","Right","200","120","8","THISTLE WEED","experimental","74","1,2,3,4,5,6,7,8","120,166.6217482650356,159.29612308092828,188.05475078730467,205.55733705113374,199.79629858228367,237.54673855604796,271.3860790103332","8,7,6,5,4,3,2,1","THISTLE WEED,THISTLE WEED,THISTLE WEED,THISTLE WEED,THISTLE WEED,THISTLE WEED,THISTLE WEED,THISTLE WEED","190,225.4695243235953,205.36621204940298,227.49101444513863,227.8907398645381,202.87250025305963,184.34877658919962,202.55620431671645","8,7,6,5,4,3,2,1","WHEAT CROP,WHEAT CROP,WHEAT CROP,WHEAT CROP,WHEAT CROP,WHEAT CROP,WHEAT CROP,WHEAT CROP","0,0,0,0,0,0,0,0","20,20,20,20,20,20,20,20","10,10,10,10,10,10,10,10","20,20,20,20,20,20,20,20","20,20,20,20,20,20,20,20","20,20,20,20,20,20,20,20","0,0,0,0,0,0,0,0","20,20,20,20,20,20,20,20","10,10,10,10,10,10,10,10","20,20,20,20,20,20,20,20","20,20,20,20,20,20,20,20","20,20,20,20,20,20,20,20","1,0,1,0,0,1,0,0","1117,1807,703,464,869,627,512,106","46.62174826503558,-7.325625184107314,28.758627706376373,17.502586263829087,-5.761038468850086,37.75043997376429,33.839340454285235,-13.842610458032873","35.469524323595294,-20.10331227419231,22.124802395735657,0.3997254193994507,-25.018239611478478,-18.523723663860004,18.207427727516844,11.813961354766242","0","0"
"153","86","text","0","175","1281947","0-0","","","","","","","","","","","","","","","","","","","","","","","","","","","","","","","","","","","","",""
"","","plant-game","0","176","1290507","0-0","","200","120","8","CORN CROP","Right","200","120","2","THISTLE WEED","experimental","75","1,2,3,4,5,6,7,8","120,124.8654716577565,140,126.02052383038351,116.84153776608926,147.5830546195907,151.4453233291655,138.06713501690624","2,1,6,5,4,3,2,1","THISTLE WEED,THISTLE WEED,NETTLE WEED,NETTLE WEED,NETTLE WEED,NETTLE WEED,NETTLE WEED,NETTLE WEED","120,144.86172960509765,132.05577729486149,113.32333352051211,108.82444988849147,89.12034652693706,117.54436178960856,118.64683167862044","8,7,6,5,4,3,2,1","CORN CROP,CORN CROP,CORN CROP,CORN CROP,CORN CROP,CORN CROP,CORN CROP,CORN CROP","0,0,0,0,0,0,0,0","20,20,20,20,20,20,20,20","10,10,10,10,10,10,10,10","20,20,20,20,20,20,20,20","20,20,20,20,20,20,20,20","20,20,20,20,20,20,20,20","0,0,0,0,0,0,0,0","20,20,20,20,20,20,20,20","10,10,10,10,10,10,10,10","20,20,20,20,20,20,20,20","20,20,20,20,20,20,20,20","20,20,20,20,20,20,20,20","0,0,0,0,1,1,0,1","806,375,1003,368,125,128,304,333","4.865471657756507,10.916940328049638,-13.979476169616486,-9.178986064294243,30.74151685350145,3.8622687095747885,-13.378188312259265,13.932486765650415","24.861729605097665,-12.80595231023616,-18.732443774349385,-4.498883632020639,-19.704103361554417,28.424015262671503,1.102469889011887,-10.438216729948678","0","0"
"149","86","text","0","177","1290736","0-0","","","","","","","","","","","","","","","","","","","","","","","","","","","","","","","","","","","","",""
"","","plant-game","0","178","1297153","0-0","","200","120","1","CORN CROP","Left","200","180","2","NETTLE WEED","experimental","76","1,2","120,190","1,1","CORN CROP,WHEAT CROP","180,187.13684057709642","2,1","NETTLE WEED,NETTLE WEED","20,20","20,20","10,10","20,20","0,0","20,20","20,20","20,20","10,10","20,20","0,0","20,20","1,0","345,1106","25.555836701286225,14.654156129167504","7.1368405770964145,-11.28644693123752","0","0"
"174","86","text","0","179","1297427","0-0","","","","","","","","","","","","","","","","","","","","","","","","","","","","","","","","","","","","",""
"","","plant-game","0","180","1306276","0-0","","200","120","8","WHEAT CROP","Right","200","120","4","THISTLE WEED","experimental","77","1,2,3,4,5,6,7,8","120,126.29083017183926,146.6838593613475,171.84136511250327,160,182.99251708271146,208.85278301853717,193.17952583865463","4,3,2,1,4,3,2,1","THISTLE WEED,THISTLE WEED,THISTLE WEED,THISTLE WEED,NETTLE WEED,NETTLE WEED,NETTLE WEED,NETTLE WEED","120,141.8066207328162,126.40861936005828,123.63925015864041,136.17322516272253,122.72952541881187,113.99070341044762,142.94176865424942","8,7,6,5,4,3,2,1","WHEAT CROP,WHEAT CROP,WHEAT CROP,WHEAT CROP,WHEAT CROP,WHEAT CROP,WHEAT CROP,WHEAT CROP","0,0,0,0,0,0,0,0","20,20,20,20,20,20,20,20","10,10,10,10,10,10,10,10","20,20,20,20,20,20,20,20","20,20,20,20,20,20,20,20","20,20,20,20,20,20,20,20","0,0,0,0,0,0,0,0","20,20,20,20,20,20,20,20","10,10,10,10,10,10,10,10","20,20,20,20,20,20,20,20","20,20,20,20,20,20,20,20","20,20,20,20,20,20,20,20","1,1,1,0,1,0,0,0","529,214,625,264,1471,436,176,555","6.290830171839264,20.393029189508237,25.15750575115579,-40.35149572287847,22.992517082711466,25.860265935825698,-15.67325717988253,-0.420571371073905","21.806620732816203,-15.398001372757932,-2.769369201417881,12.533975004082114,-13.443699743910663,-8.738822008364252,28.95106524380178,-2.7883387181712833","0","0"
"140","86","text","0","181","1306476","0-0","","","","","","","","","","","","","","","","","","","","","","","","","","","","","","","","","","","","",""
"","","plant-game","0","182","1314829","0-0","","200","180","4","WHEAT CROP","Right","200","190","8","NETTLE WEED","experimental","78","1,2,3,4,5,6,7,8","190,184.2867286341684,177.32234503153626,191.61699932211877,234.43933377430758,270.48352485817884,295.83918088413867,311.9862572016558","8,7,6,5,4,3,2,1","NETTLE WEED,NETTLE WEED,NETTLE WEED,NETTLE WEED,NETTLE WEED,NETTLE WEED,NETTLE WEED,NETTLE WEED","180,187.75547217292234,167.59244172577257,184.9658453984873,160,192.8831310889803,216.94531677658836,222.90748620270304","4,3,2,1,4,3,2,1","WHEAT CROP,WHEAT CROP,WHEAT CROP,WHEAT CROP,CORN CROP,CORN CROP,CORN CROP,CORN CROP","0,0,0,0,0,0,0,0","20,20,20,20,20,20,20,20","10,10,10,10,10,10,10,10","20,20,20,20,20,20,20,20","20,20,20,20,20,20,20,20","20,20,20,20,20,20,20,20","0,0,0,0,0,0,0,0","20,20,20,20,20,20,20,20","10,10,10,10,10,10,10,10","20,20,20,20,20,20,20,20","20,20,20,20,20,20,20,20","20,20,20,20,20,20,20,20","0,0,1,1,1,1,1,1","1065,403,484,370,798,98,68,216","-5.713271365831599,-6.96438360263215,14.294654290582528,42.82233445218881,36.04419108387124,25.355656025959856,16.147076317517104,10.725693261558401","7.755472172922328,-20.163030447149758,17.373403672714726,-23.268209466331875,32.88313108898029,24.06218568760805,5.962169426114688,8.961637426569402","0","0"
"532","86","text","0","183","1315471","0-0","","","","","","","","","","","","","","","","","","","","","","","","","","","","","","","","","","","","",""
"","","plant-game","0","184","1327357","0-0","","200","180","8","WHEAT CROP","Right","200","160","2","THISTLE WEED","experimental","79","1,2,3,4,5,6,7,8","160,185.94378802525577,140,154.02651243487676,165.0934056876163,156.89178697088116,216.62503896855281,207.43777517534855","2,1,6,5,4,3,2,1","THISTLE WEED,THISTLE WEED,NETTLE WEED,NETTLE WEED,NETTLE WEED,NETTLE WEED,NETTLE WEED,NETTLE WEED","180,198.4470668999644,248.8639536375041,270.76029886228133,297.30895027514913,301.32856707265114,322.06384414676893,284.68616611691084","8,7,6,5,4,3,2,1","WHEAT CROP,WHEAT CROP,WHEAT CROP,WHEAT CROP,WHEAT CROP,WHEAT CROP,WHEAT CROP,WHEAT CROP","0,0,0,0,0,0,0,0","20,20,20,20,20,20,20,20","10,10,10,10,10,10,10,10","20,20,20,20,20,20,20,20","20,20,20,20,20,20,20,20","20,20,20,20,20,20,20,20","0,0,0,0,0,0,0,0","20,20,20,20,20,20,20,20","10,10,10,10,10,10,10,10","20,20,20,20,20,20,20,20","20,20,20,20,20,20,20,20","20,20,20,20,20,20,20,20","1,1,1,1,0,1,0,0","531,338,2083,421,1063,581,514,176","25.943788025255767,-9.607045235297534,14.026512434876757,11.066893252739533,-8.20161871673515,59.73325199767166,-9.18726379320426,-22.288337983358076","18.44706689996439,50.4168867375397,21.89634522477721,26.548651412867777,4.0196167975020005,20.735277074117807,-37.37767802985806,-8.099612316074605","0","0"
