"rt","key_press","trial_type","trial_index","trial_index_global","time_elapsed","internal_chunk_id","responses","experimental_goal_height","experimental_start_height","experimental_weeks_total","experimental_crop_type","experimental_crop_side","fixed_goal_height","fixed_start_height","fixed_weeks_total","fixed_crop_type","trial_kind","trial_number","stage","left_current_height","left_weeks_remaining","left_crop_type","right_current_height","right_weeks_remaining","right_crop_type","mean_left_growth_given_left","sd_left_growth_given_left","mean_left_growth_given_middle","sd_left_growth_given_middle","mean_left_growth_given_right","sd_left_growth_given_right","mean_right_growth_given_left","sd_right_growth_given_left","mean_right_growth_given_middle","sd_right_growth_given_middle","mean_right_growth_given_right","sd_right_growth_given_right","response","response_time","left_growth","right_growth","other_key_pressed","mouse_clicked"
"5786842","87","text","0","0","5786938","0-0","","","","","","","","","","","","","","","","","","","","","","","","","","","","","","","","","","","","",""
"8696","","survey-text","0","1","5796665","0-0","{""Q0"":""21""}","","","","","","","","","","","","","","","","","","","","","","","","","","","","","","","","","","","",""
"2910","86","text","0","2","3003","0-0","","","","","","","","","","","","","","","","","","","","","","","","","","","","","","","","","","","","",""
"","","plant-game","0","3","60356","0-0","","200","120","8","CORN CROP","Right","200","120","8","THISTLE WEED","practice","1","1,2,3,4,5,6,7,8","120,175.7919812229331,186.71740844690615,216.64680296071515,215.91615688022225,226.6419630669652,229.23499155791959,235.6055798105465","8,7,6,5,4,3,2,1","THISTLE WEED,THISTLE WEED,THISTLE WEED,THISTLE WEED,THISTLE WEED,THISTLE WEED,THISTLE WEED,THISTLE WEED","120,157.77466809251698,176.24739869741384,230.52840218521828,259.6060929359647,246.0841222268918,246.02198152900746,270.48695010286036","8,7,6,5,4,3,2,1","CORN CROP,CORN CROP,CORN CROP,CORN CROP,CORN CROP,CORN CROP,CORN CROP,CORN CROP","0,0,0,0,0,0,0,0","20,20,20,20,20,20,20,20","10,10,10,10,10,10,10,10","20,20,20,20,20,20,20,20","20,20,20,20,20,20,20,20","20,20,20,20,20,20,20,20","0,0,0,0,0,0,0,0","20,20,20,20,20,20,20,20","10,10,10,10,10,10,10,10","20,20,20,20,20,20,20,20","20,20,20,20,20,20,20,20","20,20,20,20,20,20,20,20","1,0,0,0,1,0,0,0","5574,4199,4490,5127,1588,1044,1193,770","55.79198122293308,10.925427223973072,29.929394513808987,-0.7306460804928955,10.72580618674294,2.593028490954394,6.370588252626889,13.170879584441712","37.774668092516976,18.47273060489687,54.28100348780443,29.07769075074639,-13.521970709072889,-0.0621406978843285,24.464968573852914,-23.960063149772118","0","0"
"797","86","text","0","4","61293","0-0","","","","","","","","","","","","","","","","","","","","","","","","","","","","","","","","","","","","",""
"","","plant-game","0","5","90140","0-0","","200","160","4","WHEAT CROP","Right","200","160","4","THISTLE WEED","practice","2","1,2,3,4","160,205.52964429602542,228.65762747444694,258.2392678132606","4,3,2,1","THISTLE WEED,THISTLE WEED,THISTLE WEED,THISTLE WEED","160,165.75799175872234,208.2598236578749,255.7125107009697","4,3,2,1","WHEAT CROP,WHEAT CROP,WHEAT CROP,WHEAT CROP","0,0,0,0","20,20,20,20","10,10,10,10","20,20,20,20","20,20,20,20","20,20,20,20","0,0,0,0","20,20,20,20","10,10,10,10","20,20,20,20","20,20,20,20","20,20,20,20","1,0,1,1","1229,2179,2535,1383","45.529644296025424,23.12798317842151,29.58164033881368,21.90919941082859","5.75799175872233,42.50183189915256,47.45268704309477,5.342573322951139","0","1"
"677","86","text","0","6","90947","0-0","","","","","","","","","","","","","","","","","","","","","","","","","","","","","","","","","","","","",""
"","","plant-game","0","7","114273","0-0","","200","180","2","CORN CROP","Right","200","180","2","THISTLE WEED","practice","3","1,2","180,214.02586233383764","2,1","THISTLE WEED,THISTLE WEED","180,178.38167363987372","2,1","CORN CROP,CORN CROP","0,0","20,20","10,10","20,20","20,20","20,20","0,0","20,20","10,10","20,20","20,20","20,20","1,0","1105,5684","34.02586233383763,1.5825254613955062","-1.6183263601262787,-15.180389677042497","1","0"
"497","86","text","0","8","114930","0-0","","","","","","","","","","","","","","","","","","","","","","","","","","","","","","","","","","","","",""
"","","plant-game","0","9","132033","0-0","","200","190","1","WHEAT CROP","Right","200","190","1","NETTLE WEED","practice","4","1","190","1","NETTLE WEED","190","1","WHEAT CROP","0","20","10","20","20","20","0","20","10","20","20","20","0","1118","43.97535642632383","-29.24125046123396","0","0"
"454","86","text","0","10","132657","0-0","","","","","","","","","","","","","","","","","","","","","","","","","","","","","","","","","","","","",""
"","","plant-game","0","11","154793","0-0","","200","120","8","WHEAT CROP","Right","200","160","8","NETTLE WEED","practice","5","1,2,3,4,5,6,7,8","160,167.9227905995946,202.8407612252448,218.23428072594032,239.73495964231537,259.1459376246172,254.6243957976909,247.45387195502173","8,7,6,5,4,3,2,1","NETTLE WEED,NETTLE WEED,NETTLE WEED,NETTLE WEED,NETTLE WEED,NETTLE WEED,NETTLE WEED,NETTLE WEED","120,147.83268961440618,177.39824123241115,188.38265740390995,174.0992660763652,181.86015533580124,226.87382207250124,261.3691746662034","8,7,6,5,4,3,2,1","WHEAT CROP,WHEAT CROP,WHEAT CROP,WHEAT CROP,WHEAT CROP,WHEAT CROP,WHEAT CROP,WHEAT CROP","0,0,0,0,0,0,0,0","20,20,20,20,20,20,20,20","10,10,10,10,10,10,10,10","20,20,20,20,20,20,20,20","20,20,20,20,20,20,20,20","20,20,20,20,20,20,20,20","0,0,0,0,0,0,0,0","20,20,20,20,20,20,20,20","10,10,10,10,10,10,10,10","20,20,20,20,20,20,20,20","20,20,20,20,20,20,20,20","20,20,20,20,20,20,20,20","1,1,0,0,1,1,1,1","3637,1540,1809,586,714,480,1198,949","7.922790599594601,34.91797062565019,15.393519500695545,21.500678916375055,19.41097798230185,-4.521541826926292,-7.170523842669169,21.01513295921858","27.832689614406174,29.565551618004985,10.984416171498793,-14.283391327544727,7.7608892594360395,45.013666736699996,34.495352593702115,45.679408473832225","0","0"
"520","86","text","0","12","155493","0-0","","","","","","","","","","","","","","","","","","","","","","","","","","","","","","","","","","","","",""
"","","plant-game","0","13","173721","0-0","","200","180","4","CORN CROP","Left","200","160","4","THISTLE WEED","practice","6","1,2,3,4","180,196.15364738181253,148.03004333203646,124.68992919983035","4,3,2,1","CORN CROP,CORN CROP,CORN CROP,CORN CROP","160,146.31246647076767,96.99168272585416,89.75854789773643","4,3,2,1","THISTLE WEED,THISTLE WEED,THISTLE WEED,THISTLE WEED","20,20,20,20","20,20,20,20","10,10,10,10","20,20,20,20","0,0,0,0","20,20,20,20","20,20,20,20","20,20,20,20","10,10,10,10","20,20,20,20","0,0,0,0","20,20,20,20","1,1,0,1","517,1551,1150,1114","16.153647381812522,-48.12360404977607,-23.34011413220611,22.66952703006186","-13.687533529232338,-49.320783744913506,-7.2331348281177235,34.63294237550214","0","0"
"398","86","text","0","14","174290","0-0","","","","","","","","","","","","","","","","","","","","","","","","","","","","","","","","","","","","",""
"","","plant-game","0","15","197001","0-0","","200","180","2","CORN CROP","Right","200","190","2","NETTLE WEED","practice","7","1,2","190,198.20031376878208","2,1","NETTLE WEED,NETTLE WEED","180,173.460890418871","2,1","CORN CROP,CORN CROP","0,0","20,20","10,10","20,20","20,20","20,20","0,0","20,20","10,10","20,20","20,20","20,20","1,0","11877,1358","8.200313768782078,12.821076648525057","-6.5391095811289865,-4.785650447812076","0","0"
"464","86","text","0","16","197650","0-0","","","","","","","","","","","","","","","","","","","","","","","","","","","","","","","","","","","","",""
"","","plant-game","0","17","236618","0-0","","200","120","4","CORN CROP","Left","200","120","8","THISTLE WEED","practice","8","1,2,3,4,5,6,7,8","120,150.04138811428697,144.43806470800692,137.04546225366136,160,163.24429412239596,169.08519171969894,178.36934369741653","4,3,2,1,4,3,2,1","CORN CROP,CORN CROP,CORN CROP,CORN CROP,WHEAT CROP,WHEAT CROP,WHEAT CROP,WHEAT CROP","120,103.12889850068018,117.74205434287418,141.6519827617606,134.52288498849495,130.2500309626479,119.9649672935115,113.34542565599007","8,7,6,5,4,3,2,1","THISTLE WEED,THISTLE WEED,THISTLE WEED,THISTLE WEED,THISTLE WEED,THISTLE WEED,THISTLE WEED,THISTLE WEED","20,20,20,20,20,20,20,20","20,20,20,20,20,20,20,20","10,10,10,10,10,10,10,10","20,20,20,20,20,20,20,20","0,0,0,0,0,0,0,0","20,20,20,20,20,20,20,20","20,20,20,20,20,20,20,20","20,20,20,20,20,20,20,20","10,10,10,10,10,10,10,10","20,20,20,20,20,20,20,20","0,0,0,0,0,0,0,0","20,20,20,20,20,20,20,20","1,1,0,1,0,1,1,1","4634,1094,672,678,3780,4644,1203,531","30.041388114286967,-5.603323406280048,-7.39260245434556,-10.15916825883096,3.2442941223959494,5.840897597302979,9.28415197771759,5.643699676895771","-16.871101499319817,14.613155842194011,23.909928418886416,-7.129097773265646,-4.2728540258470495,-10.285063669136399,-6.61954163752144,19.6788062476279","0","0"
"660","86","text","0","18","237418","0-0","","","","","","","","","","","","","","","","","","","","","","","","","","","","","","","","","","","","",""
"","","plant-game","0","19","258873","0-0","","200","160","4","WHEAT CROP","Left","200","160","2","NETTLE WEED","practice","9","1,2,3,4","160,174.25074324497317,162.96885839701122,151.51349891944727","4,3,2,1","WHEAT CROP,WHEAT CROP,WHEAT CROP,WHEAT CROP","160,159.6901678460765,180,217.41267744831566","2,1,2,1","NETTLE WEED,NETTLE WEED,THISTLE WEED,THISTLE WEED","20,20,20,20","20,20,20,20","10,10,10,10","20,20,20,20","0,0,0,0","20,20,20,20","20,20,20,20","20,20,20,20","10,10,10,10","20,20,20,20","0,0,0,0","20,20,20,20","1,1,0,1","811,1284,929,1024","14.250743244973176,-11.281884847961958,-11.455359477563938,19.914902505373234","-0.30983215392351166,3.2915979190852256,37.41267744831565,28.464674629492734","0","0"
"524","86","text","0","20","259537","0-0","","","","","","","","","","","","","","","","","","","","","","","","","","","","","","","","","","","","",""
"","","plant-game","0","21","284691","0-0","","200","180","2","WHEAT CROP","Right","200","180","1","THISTLE WEED","practice","10","1,2","180,190","1,1","THISTLE WEED,NETTLE WEED","180,185.9090188652328","2,1","WHEAT CROP,WHEAT CROP","0,0","20,20","10,10","20,20","20,20","20,20","0,0","20,20","10,10","20,20","20,20","20,20","1,1","543,1477","8.83490760468943,18.795445210292808","5.90901886523282,7.671030455316949","0","0"
"458","86","text","0","22","285315","0-0","","","","","","","","","","","","","","","","","","","","","","","","","","","","","","","","","","","","",""
"","","plant-game","0","23","314683","0-0","","200","120","8","WHEAT CROP","Right","200","160","4","NETTLE WEED","practice","11","1,2,3,4,5,6,7,8","160,174.88859910277546,171.61188722997628,182.4773222833472,160,189.25907468055726,190.98373206794403,217.79399858481813","4,3,2,1,4,3,2,1","NETTLE WEED,NETTLE WEED,NETTLE WEED,NETTLE WEED,THISTLE WEED,THISTLE WEED,THISTLE WEED,THISTLE WEED","120,146.99007571710243,132.61965322677992,151.4929573762039,150.05161456406736,170.88082811398277,174.59671047730387,204.65592384822259","8,7,6,5,4,3,2,1","WHEAT CROP,WHEAT CROP,WHEAT CROP,WHEAT CROP,WHEAT CROP,WHEAT CROP,WHEAT CROP,WHEAT CROP","0,0,0,0,0,0,0,0","20,20,20,20,20,20,20,20","10,10,10,10,10,10,10,10","20,20,20,20,20,20,20,20","20,20,20,20,20,20,20,20","20,20,20,20,20,20,20,20","0,0,0,0,0,0,0,0","20,20,20,20,20,20,20,20","10,10,10,10,10,10,10,10","20,20,20,20,20,20,20,20","20,20,20,20,20,20,20,20","20,20,20,20,20,20,20,20","1,0,1,0,1,0,1,0","1881,4059,998,1700,1469,1890,1239,2126","14.888599102775457,-3.2767118727991913,10.865435053370922,8.331753344344076,29.259074680557262,1.7246573873867832,26.810266516874083,-8.579476312560091","26.990075717102417,-14.370422490322518,18.873304149423973,-1.4413428121365168,20.829213549915405,3.7158823633210987,30.059213370918727,6.4524227881866825","0","0"
"451","86","text","0","24","315284","0-0","","","","","","","","","","","","","","","","","","","","","","","","","","","","","","","","","","","","",""
"","","plant-game","0","25","335414","0-0","","200","180","2","CORN CROP","Left","200","160","4","THISTLE WEED","practice","12","1,2,3,4","180,191.85976824838366,180,218.4692490748738","2,1,2,1","CORN CROP,CORN CROP,WHEAT CROP,WHEAT CROP","160,139.316517585883,163.99966190051376,176.39149123295107","4,3,2,1","THISTLE WEED,THISTLE WEED,THISTLE WEED,THISTLE WEED","20,20,20,20","20,20,20,20","10,10,10,10","20,20,20,20","0,0,0,0","20,20,20,20","20,20,20,20","20,20,20,20","10,10,10,10","20,20,20,20","0,0,0,0","20,20,20,20","1,0,0,0","1287,1148,1502,3188","11.859768248383649,39.87870749654674,38.46924907487379,8.454544029995523","-20.683482414116995,24.683144314630756,12.39182933243731,6.09306055484512","0","0"
"1950","86","text","0","26","337534","0-0","","","","","","","","","","","","","","","","","","","","","","","","","","","","","","","","","","","","",""
"13225","86","text","0","27","352023","0-0","","","","","","","","","","","","","","","","","","","","","","","","","","","","","","","","","","","","",""
"","","plant-game","0","28","369623","0-0","","200","190","1","WHEAT CROP","Left","200","120","8","THISTLE WEED","experimental","1","1,2,3,4,5,6,7,8","190,130,174.92368031103763,151.7570835677246,160.75907301575836,146.5381794577361,176.19208884975782,194.3369154773424","1,7,6,5,4,3,2,1","WHEAT CROP,CORN CROP,CORN CROP,CORN CROP,CORN CROP,CORN CROP,CORN CROP,CORN CROP","120,154.75928407090282,132.89388452864557,143.73045330071957,154.77316167074903,189.07228934701595,231.22792879167622,239.97462977560792","8,7,6,5,4,3,2,1","THISTLE WEED,THISTLE WEED,THISTLE WEED,THISTLE WEED,THISTLE WEED,THISTLE WEED,THISTLE WEED,THISTLE WEED","20,20,20,20,20,20,20,20","20,20,20,20,20,20,20,20","10,10,10,10,10,10,10,10","20,20,20,20,20,20,20,20","0,0,0,0,0,0,0,0","20,20,20,20,20,20,20,20","20,20,20,20,20,20,20,20","20,20,20,20,20,20,20,20","10,10,10,10,10,10,10,10","20,20,20,20,20,20,20,20","0,0,0,0,0,0,0,0","20,20,20,20,20,20,20,20","0,1,0,1,1,0,0,0","2123,1619,1985,665,576,466,1300,522","6.704533954514147,44.92368031103763,-23.166596743313022,9.001989448033743,-14.220893558022244,29.653909392021717,18.144826627584557,8.681098872906537","34.75928407090281,-21.86539954225725,10.836568772074003,11.042708370029462,34.299127676266906,42.15563944466028,8.746700983931694,9.160848973388758","0","0"
"751","86","text","0","29","370552","0-0","","","","","","","","","","","","","","","","","","","","","","","","","","","","","","","","","","","","",""
"","","plant-game","0","30","389457","0-0","","200","180","8","CORN CROP","Right","200","120","2","NETTLE WEED","experimental","2","1,2,3,4,5,6,7,8","120,137.09413514995646,140,147.70324758461825,155.09416351290832,145.03016056614445,173.88436715755176,190.412598183673","2,1,6,5,4,3,2,1","NETTLE WEED,NETTLE WEED,THISTLE WEED,THISTLE WEED,THISTLE WEED,THISTLE WEED,THISTLE WEED,THISTLE WEED","180,179.49569103150915,204.68345157322665,236.63806070202344,253.11237120396908,266.6541888964204,251.47992175805896,222.28410493423195","8,7,6,5,4,3,2,1","CORN CROP,CORN CROP,CORN CROP,CORN CROP,CORN CROP,CORN CROP,CORN CROP,CORN CROP","0,0,0,0,0,0,0,0","20,20,20,20,20,20,20,20","10,10,10,10,10,10,10,10","20,20,20,20,20,20,20,20","20,20,20,20,20,20,20,20","20,20,20,20,20,20,20,20","0,0,0,0,0,0,0,0","20,20,20,20,20,20,20,20","10,10,10,10,10,10,10,10","20,20,20,20,20,20,20,20","20,20,20,20,20,20,20,20","20,20,20,20,20,20,20,20","1,1,0,1,1,1,0,1","1492,3062,1118,573,992,667,989,1116","17.09413514995646,26.585396117467216,7.703247584618245,7.39091592829007,-10.064002946763871,28.854206591407326,16.528231026121233,7.5477502533921665","-0.5043089684908466,25.18776054171748,31.954609128796797,16.474310501945638,13.541817692451344,-15.17426713836145,-29.195816823827005,29.771529965951785","0","0"
"819","86","text","0","31","390446","0-0","","","","","","","","","","","","","","","","","","","","","","","","","","","","","","","","","","","","",""
"","","plant-game","0","32","409925","0-0","","200","180","8","WHEAT CROP","Right","200","160","4","NETTLE WEED","experimental","3","1,2,3,4,5,6,7,8","160,173.62227722615214,218.28672652459076,238.41225398946045,160,167.5367891777684,163.9151984252485,104.98594398625835","4,3,2,1,4,3,2,1","NETTLE WEED,NETTLE WEED,NETTLE WEED,NETTLE WEED,THISTLE WEED,THISTLE WEED,THISTLE WEED,THISTLE WEED","180,235.2787702958267,261.557816347279,270.6372648338026,261.10817348040047,253.27490430118849,258.9715230145598,294.68403587481254","8,7,6,5,4,3,2,1","WHEAT CROP,WHEAT CROP,WHEAT CROP,WHEAT CROP,WHEAT CROP,WHEAT CROP,WHEAT CROP,WHEAT CROP","0,0,0,0,0,0,0,0","20,20,20,20,20,20,20,20","10,10,10,10,10,10,10,10","20,20,20,20,20,20,20,20","20,20,20,20,20,20,20,20","20,20,20,20,20,20,20,20","0,0,0,0,0,0,0,0","20,20,20,20,20,20,20,20","10,10,10,10,10,10,10,10","20,20,20,20,20,20,20,20","20,20,20,20,20,20,20,20","20,20,20,20,20,20,20,20","0,1,0,0,0,0,0,0","2546,1612,1706,550,908,1111,936,1199","13.622277226152148,44.664449298438626,20.12552746486968,22.878336956801068,7.536789177768409,-3.6215907525199094,-58.92925443899014,58.57606414610994","55.27877029582668,26.27904605145235,9.079448486523575,-9.529091353402096,-7.833269179211992,5.696618713371322,35.71251286025274,-27.354224170996112","0","0"
"728","86","text","0","33","410833","0-0","","","","","","","","","","","","","","","","","","","","","","","","","","","","","","","","","","","","",""
"","","plant-game","0","34","415620","0-0","","200","120","1","CORN CROP","Right","200","160","1","THISTLE WEED","experimental","4","1","160","1","THISTLE WEED","120","1","CORN CROP","0","20","10","20","20","20","0","20","10","20","20","20","1","1598","34.552583061343185","8.99558739818895","0","0"
"439","86","text","0","35","416200","0-0","","","","","","","","","","","","","","","","","","","","","","","","","","","","","","","","","","","","",""
"","","plant-game","0","36","435329","0-0","","200","120","4","CORN CROP","Left","200","120","8","NETTLE WEED","experimental","5","1,2,3,4,5,6,7,8","120,128.70603095531996,118.10046281093159,131.93883814081073,160,166.93738445076096,170.1390960278911,174.84191403063224","4,3,2,1,4,3,2,1","CORN CROP,CORN CROP,CORN CROP,CORN CROP,WHEAT CROP,WHEAT CROP,WHEAT CROP,WHEAT CROP","120,148.48875121237222,179.5463657489562,165.93208043007016,111.81322094527638,129.67224272180619,162.88005052814208,195.28340842078046","8,7,6,5,4,3,2,1","NETTLE WEED,NETTLE WEED,NETTLE WEED,NETTLE WEED,NETTLE WEED,NETTLE WEED,NETTLE WEED,NETTLE WEED","20,20,20,20,20,20,20,20","20,20,20,20,20,20,20,20","10,10,10,10,10,10,10,10","20,20,20,20,20,20,20,20","0,0,0,0,0,0,0,0","20,20,20,20,20,20,20,20","20,20,20,20,20,20,20,20","20,20,20,20,20,20,20,20","10,10,10,10,10,10,10,10","20,20,20,20,20,20,20,20","0,0,0,0,0,0,0,0","20,20,20,20,20,20,20,20","1,0,1,1,0,0,0,1","1682,1672,681,1333,1473,1703,1520,771","8.706030955319948,-10.605568144388364,13.838375329879156,34.73212334438827,6.9373844507609554,3.2017115771301476,4.702818002741127,18.57564245397836","28.488751212372215,31.05761453658396,-13.614285318886044,-54.11885948479377,17.85902177652981,33.20780780633589,32.4033578926384,19.14811030908435","0","0"
"522","86","text","0","37","436011","0-0","","","","","","","","","","","","","","","","","","","","","","","","","","","","","","","","","","","","",""
"","","plant-game","0","38","448855","0-0","","200","180","4","WHEAT CROP","Right","200","160","1","THISTLE WEED","experimental","6","1,2,3,4","160,170,164.68073571634196,185.85257729512878","1,3,2,1","THISTLE WEED,NETTLE WEED,NETTLE WEED,NETTLE WEED","180,207.22533767062467,206.26953043052947,245.3421333017252","4,3,2,1","WHEAT CROP,WHEAT CROP,WHEAT CROP,WHEAT CROP","0,0,0,0","20,20,20,20","10,10,10,10","20,20,20,20","20,20,20,20","20,20,20,20","0,0,0,0","20,20,20,20","10,10,10,10","20,20,20,20","20,20,20,20","20,20,20,20","0,0,1,0","1754,833,444,1672","18.342425428799338,-5.319264283658043,21.171841578786836,16.736553982835037","27.22533767062466,-0.9558072400952013,39.07260287119572,-19.852005007142893","0","0"
"555","86","text","0","39","449570","0-0","","","","","","","","","","","","","","","","","","","","","","","","","","","","","","","","","","","","",""
"","","plant-game","0","40","459738","0-0","","200","180","2","CORN CROP","Left","200","180","2","THISTLE WEED","experimental","7","1,2","180,215.27337369470052","2,1","CORN CROP,CORN CROP","180,193.41592715026363","2,1","THISTLE WEED,THISTLE WEED","20,20","20,20","10,10","20,20","0,0","20,20","20,20","20,20","10,10","20,20","0,0","20,20","0,0","2352,2316","35.273373694700524,5.407513104103732","13.415927150263618,45.06327594290495","0","0"
"465","86","text","0","41","460384","0-0","","","","","","","","","","","","","","","","","","","","","","","","","","","","","","","","","","","","",""
"","","plant-game","0","42","471414","0-0","","200","180","2","WHEAT CROP","Right","200","120","4","THISTLE WEED","experimental","8","1,2,3,4","120,109.92692833859546,123.0902412823719,159.6150292658579","4,3,2,1","THISTLE WEED,THISTLE WEED,THISTLE WEED,THISTLE WEED","180,189.00324440977607,180,184.51419340699988","2,1,2,1","WHEAT CROP,WHEAT CROP,CORN CROP,CORN CROP","0,0,0,0","20,20,20,20","10,10,10,10","20,20,20,20","20,20,20,20","20,20,20,20","0,0,0,0","20,20,20,20","10,10,10,10","20,20,20,20","20,20,20,20","20,20,20,20","0,1,0,1","1509,705,1027,615","-10.073071661404544,13.163312943776448,36.52478798348601,33.56391872567097","9.003244409776068,22.963913715515954,4.514193406999888,6.932160304540835","0","0"
"451","86","text","0","43","472035","0-0","","","","","","","","","","","","","","","","","","","","","","","","","","","","","","","","","","","","",""
"","","plant-game","0","44","485347","0-0","","200","160","4","CORN CROP","Left","200","190","8","THISTLE WEED","experimental","9","1,2,3,4,5,6,7,8","160,160.69494546511112,161.31991110751167,157.32574737953055,160,138.88561377767292,117.3925956568238,130.8960013406038","4,3,2,1,4,3,2,1","CORN CROP,CORN CROP,CORN CROP,CORN CROP,WHEAT CROP,WHEAT CROP,WHEAT CROP,WHEAT CROP","190,221.64123922673937,210.1962048853467,194.4394950309083,226.96427813843394,237.72227173331345,240.41729106472957,269.84482586745753","8,7,6,5,4,3,2,1","THISTLE WEED,THISTLE WEED,THISTLE WEED,THISTLE WEED,THISTLE WEED,THISTLE WEED,THISTLE WEED,THISTLE WEED","20,20,20,20,20,20,20,20","20,20,20,20,20,20,20,20","10,10,10,10,10,10,10,10","20,20,20,20,20,20,20,20","0,0,0,0,0,0,0,0","20,20,20,20,20,20,20,20","20,20,20,20,20,20,20,20","20,20,20,20,20,20,20,20","10,10,10,10,10,10,10,10","20,20,20,20,20,20,20,20","0,0,0,0,0,0,0,0","20,20,20,20,20,20,20,20","0,1,1,1,1,1,0,0","1423,875,335,163,1087,500,443,353","0.6949454651111147,0.6249656424005421,-3.9941637279811064,-26.508609057778646,-21.114386222327074,-21.493018120849108,13.503405683779985,19.436700826146176","31.641239226739366,-11.445034341392667,-15.756709854438398,32.524783107525664,10.757993594879498,2.695019331416115,29.427534802727976,26.34947371438619","0","0"
"1697","86","text","0","45","487264","0-0","","","","","","","","","","","","","","","","","","","","","","","","","","","","","","","","","","","","",""
"","","plant-game","0","46","497947","0-0","","200","160","2","CORN CROP","Right","200","190","2","NETTLE WEED","experimental","10","1,2","190,220.6067249249125","2,1","NETTLE WEED,NETTLE WEED","160,178.937554850374","2,1","CORN CROP,CORN CROP","0,0","20,20","10,10","20,20","20,20","20,20","0,0","20,20","10,10","20,20","20,20","20,20","1,0","3247,2601","30.6067249249125,-1.4408371215261642","18.93755485037399,13.518730633358182","0","0"
"462","86","text","0","47","498599","0-0","","","","","","","","","","","","","","","","","","","","","","","","","","","","","","","","","","","","",""
"","","plant-game","0","48","515468","0-0","","200","120","1","WHEAT CROP","Left","200","180","8","NETTLE WEED","experimental","11","1,2,3,4,5,6,7,8","120,130,189.34879598206015,211.27382387922313,239.65760620856116,247.93817759748094,249.1037178072775,195.66070174723677","1,7,6,5,4,3,2,1","WHEAT CROP,CORN CROP,CORN CROP,CORN CROP,CORN CROP,CORN CROP,CORN CROP,CORN CROP","180,210.49959331814844,237.51898213962318,196.644561325951,236.93198934474358,257.24620094799064,240.59178824915273,274.1169342760356","8,7,6,5,4,3,2,1","NETTLE WEED,NETTLE WEED,NETTLE WEED,NETTLE WEED,NETTLE WEED,NETTLE WEED,NETTLE WEED,NETTLE WEED","20,20,20,20,20,20,20,20","20,20,20,20,20,20,20,20","10,10,10,10,10,10,10,10","20,20,20,20,20,20,20,20","0,0,0,0,0,0,0,0","20,20,20,20,20,20,20,20","20,20,20,20,20,20,20,20","20,20,20,20,20,20,20,20","10,10,10,10,10,10,10,10","20,20,20,20,20,20,20,20","0,0,0,0,0,0,0,0","20,20,20,20,20,20,20,20","1,0,1,1,0,1,1,0","2812,930,667,2104,1342,585,454,630","23.356376723835165,59.34879598206016,21.92502789716297,28.383782329338047,8.28057138891978,1.165540209796533,-53.44301606004073,-8.498774950336365","30.499593318148438,27.019388821474738,-40.87442081367218,40.28742801879258,20.314211603247035,-16.65441269883792,33.52514602688284,41.38668005610158","0","0"
"514","86","text","0","49","516142","0-0","","","","","","","","","","","","","","","","","","","","","","","","","","","","","","","","","","","","",""
"","","plant-game","0","50","531094","0-0","","200","180","2","WHEAT CROP","Right","200","180","4","NETTLE WEED","experimental","12","1,2,3,4","180,191.79548101376702,220.82367766880762,243.32859177596785","4,3,2,1","NETTLE WEED,NETTLE WEED,NETTLE WEED,NETTLE WEED","180,207.09767088307953,180,203.2663095474774","2,1,2,1","WHEAT CROP,WHEAT CROP,CORN CROP,CORN CROP","0,0,0,0","20,20,20,20","10,10,10,10","20,20,20,20","20,20,20,20","20,20,20,20","0,0,0,0","20,20,20,20","10,10,10,10","20,20,20,20","20,20,20,20","20,20,20,20","0,1,0,0","4602,1846,1044,973","11.795481013767006,29.02819665504061,22.504914107160236,-16.334959515479202","27.097670883079537,1.3518434532122043,23.266309547477384,3.503262603804213","0","0"
"569","86","text","0","51","531821","0-0","","","","","","","","","","","","","","","","","","","","","","","","","","","","","","","","","","","","",""
"","","plant-game","0","52","549750","0-0","","200","160","8","CORN CROP","Left","200","190","1","NETTLE WEED","experimental","13","1,2,3,4,5,6,7,8","160,177.09948886965884,176.30178152555624,188.63325688489266,195.75859592221758,173.34344724502844,151.34216746907404,211.50275389934382","8,7,6,5,4,3,2,1","CORN CROP,CORN CROP,CORN CROP,CORN CROP,CORN CROP,CORN CROP,CORN CROP,CORN CROP","190,130,156.86853244223641,196.37309964575684,170.01970650089356,219.08162115703522,207.0958867996152,230.76371167396172","1,7,6,5,4,3,2,1","NETTLE WEED,THISTLE WEED,THISTLE WEED,THISTLE WEED,THISTLE WEED,THISTLE WEED,THISTLE WEED,THISTLE WEED","20,20,20,20,20,20,20,20","20,20,20,20,20,20,20,20","10,10,10,10,10,10,10,10","20,20,20,20,20,20,20,20","0,0,0,0,0,0,0,0","20,20,20,20,20,20,20,20","20,20,20,20,20,20,20,20","20,20,20,20,20,20,20,20","10,10,10,10,10,10,10,10","20,20,20,20,20,20,20,20","0,0,0,0,0,0,0,0","20,20,20,20,20,20,20,20","0,1,0,1,0,1,0,0","1185,1349,643,1188,1076,1372,571,2059","17.09948886965885,-0.7977073441026166,12.331475359336414,7.125339037324913,-22.41514867718913,-22.00127977595439,60.16058643026976,-1.4032010036838862","10.48868422793671,26.86853244223642,39.50456720352041,-26.353393144863286,49.06191465614164,-11.985734357420037,23.667824874346536,4.399619773606613","0","0"
"638","86","text","0","53","550608","0-0","","","","","","","","","","","","","","","","","","","","","","","","","","","","","","","","","","","","",""
"","","plant-game","0","54","562460","0-0","","200","190","4","WHEAT CROP","Right","200","160","4","NETTLE WEED","experimental","14","1,2,3,4","160,186.90100163507458,184.62215215583782,207.45909402107404","4,3,2,1","NETTLE WEED,NETTLE WEED,NETTLE WEED,NETTLE WEED","190,258.7187695205141,325.369225759487,330.49644817359183","4,3,2,1","WHEAT CROP,WHEAT CROP,WHEAT CROP,WHEAT CROP","0,0,0,0","20,20,20,20","10,10,10,10","20,20,20,20","20,20,20,20","20,20,20,20","0,0,0,0","20,20,20,20","10,10,10,10","20,20,20,20","20,20,20,20","20,20,20,20","1,1,1,0","1568,3045,612,1186","26.901001635074593,-2.2788494792367544,22.836941865236216,-7.1377104394901405","68.71876952051414,66.65045623897291,5.127222414104839,-8.621778071028213","0","0"
"567","86","text","0","55","563187","0-0","","","","","","","","","","","","","","","","","","","","","","","","","","","","","","","","","","","","",""
"","","plant-game","0","56","577259","0-0","","200","160","2","WHEAT CROP","Right","200","180","8","THISTLE WEED","experimental","15","1,2,3,4,5,6,7,8","180,193.4319798804432,191.26676754955548,228.66183480017753,222.8163001726633,209.69939380458874,224.83233781777616,221.91460594001725","8,7,6,5,4,3,2,1","THISTLE WEED,THISTLE WEED,THISTLE WEED,THISTLE WEED,THISTLE WEED,THISTLE WEED,THISTLE WEED,THISTLE WEED","160,163.57743824199076,140,128.4502473885726,126.89143972186339,153.82228782207588,178.65940793128334,152.10131720825026","2,1,6,5,4,3,2,1","WHEAT CROP,WHEAT CROP,CORN CROP,CORN CROP,CORN CROP,CORN CROP,CORN CROP,CORN CROP","0,0,0,0,0,0,0,0","20,20,20,20,20,20,20,20","10,10,10,10,10,10,10,10","20,20,20,20,20,20,20,20","20,20,20,20,20,20,20,20","20,20,20,20,20,20,20,20","0,0,0,0,0,0,0,0","20,20,20,20,20,20,20,20","10,10,10,10,10,10,10,10","20,20,20,20,20,20,20,20","20,20,20,20,20,20,20,20","20,20,20,20,20,20,20,20","1,0,1,0,0,1,0,0","3121,575,1524,905,430,284,304,259","13.431979880443212,-2.1652123308877385,37.39506725062204,-5.845534627514253,-13.116906368074556,15.132944013187414,-2.9177318777589156,15.025806620709654","3.5774382419907553,-1.318526742196723,-11.549752611427408,-1.5588076667091957,26.930848100212476,24.837120109207476,-26.558090723033068,34.433415171752635","0","0"
"82","86","text","0","57","577491","0-0","","","","","","","","","","","","","","","","","","","","","","","","","","","","","","","","","","","","",""
"","","plant-game","0","58","589178","0-0","","200","190","4","CORN CROP","Left","200","160","1","THISTLE WEED","experimental","16","1,2,3,4","190,201.9312980851694,230.94721672527535,198.7159529254451","4,3,2,1","CORN CROP,CORN CROP,CORN CROP,CORN CROP","160,170,211.17628399319386,234.41228391430548","1,3,2,1","THISTLE WEED,NETTLE WEED,NETTLE WEED,NETTLE WEED","20,20,20,20","20,20,20,20","10,10,10,10","20,20,20,20","0,0,0,0","20,20,20,20","20,20,20,20","20,20,20,20","10,10,10,10","20,20,20,20","0,0,0,0","20,20,20,20","1,0,1,1","1747,1667,1216,416","11.931298085169406,29.01591864010595,-32.23126379983026,-45.76908535351001","-19.173630307559694,41.17628399319388,23.2359999211116,-30.302180241885388","0","0"
"12675","86","text","0","59","602056","0-0","","","","","","","","","","","","","","","","","","","","","","","","","","","","","","","","","","","","",""
"","","plant-game","0","60","615890","0-0","","200","190","2","WHEAT CROP","Right","200","180","8","NETTLE WEED","experimental","17","1,2,3,4,5,6,7,8","180,175.1959327404329,158.46671907405994,135.24844969779588,136.8105449846145,148.43244338168074,162.95382734159253,189.1415818139232","8,7,6,5,4,3,2,1","NETTLE WEED,NETTLE WEED,NETTLE WEED,NETTLE WEED,NETTLE WEED,NETTLE WEED,NETTLE WEED,NETTLE WEED","190,168.8488400405493,140,139.73646077874565,134.20475568129422,142.523509145263,128.32308287988621,155.46718868346156","2,1,6,5,4,3,2,1","WHEAT CROP,WHEAT CROP,CORN CROP,CORN CROP,CORN CROP,CORN CROP,CORN CROP,CORN CROP","0,0,0,0,0,0,0,0","20,20,20,20,20,20,20,20","10,10,10,10,10,10,10,10","20,20,20,20,20,20,20,20","20,20,20,20,20,20,20,20","20,20,20,20,20,20,20,20","0,0,0,0,0,0,0,0","20,20,20,20,20,20,20,20","10,10,10,10,10,10,10,10","20,20,20,20,20,20,20,20","20,20,20,20,20,20,20,20","20,20,20,20,20,20,20,20","0,0,1,0,1,0,1,0","1465,425,846,518,757,480,596,862","-4.804067259567096,-16.72921366637297,-23.218269376264075,1.5620952868186082,11.62189839706626,14.5213839599118,26.18775447233068,15.082559117533606","-21.151159959450695,-20.147479692089036,-0.2635392212543408,-5.531705097451426,8.318753463968775,-14.200426265376795,27.144105803575354,-3.027082154939901","0","0"
"764","86","text","0","61","616844","0-0","","","","","","","","","","","","","","","","","","","","","","","","","","","","","","","","","","","","",""
"","","plant-game","0","62","628451","0-0","","200","190","4","CORN CROP","Right","200","160","2","THISTLE WEED","experimental","18","1,2,3,4","160,183.72556048571874,180,202.23279578465707","2,1,2,1","THISTLE WEED,THISTLE WEED,NETTLE WEED,NETTLE WEED","190,222.3976517198282,220.0815988363671,233.34028168212095","4,3,2,1","CORN CROP,CORN CROP,CORN CROP,CORN CROP","0,0,0,0","20,20,20,20","10,10,10,10","20,20,20,20","20,20,20,20","20,20,20,20","0,0,0,0","20,20,20,20","10,10,10,10","20,20,20,20","20,20,20,20","20,20,20,20","0,1,1,0","839,215,1836,903","23.72556048571876,67.18990044370392,22.23279578465707,-14.229352829208466","32.39765171982819,-2.316052883461083,13.258682845753833,-13.016918505376578","0","0"
"389","86","text","0","63","629018","0-0","","","","","","","","","","","","","","","","","","","","","","","","","","","","","","","","","","","","",""
"","","plant-game","0","64","640877","0-0","","200","120","1","CORN CROP","Left","200","160","4","THISTLE WEED","experimental","19","1,2,3,4","120,170,185.95605184900506,209.74091557913476","1,3,2,1","CORN CROP,WHEAT CROP,WHEAT CROP,WHEAT CROP","160,134.70808598763142,146.19070834212485,169.15078249388918","4,3,2,1","THISTLE WEED,THISTLE WEED,THISTLE WEED,THISTLE WEED","20,20,20,20","20,20,20,20","10,10,10,10","20,20,20,20","0,0,0,0","20,20,20,20","20,20,20,20","20,20,20,20","10,10,10,10","20,20,20,20","0,0,0,0","20,20,20,20","1,0,0,1","1983,546,1084,1064","-9.78552940191284,15.956051849005066,23.784863730129715,-28.407475959528163","-25.291914012368572,11.482622354493433,22.960074151764324,7.469554273518612","0","0"
"483","86","text","0","65","641530","0-0","","","","","","","","","","","","","","","","","","","","","","","","","","","","","","","","","","","","",""
"","","plant-game","0","66","654228","0-0","","200","190","4","CORN CROP","Right","200","190","4","NETTLE WEED","experimental","20","1,2,3,4","190,217.3955233363139,212.91016863481903,277.2839039656234","4,3,2,1","NETTLE WEED,NETTLE WEED,NETTLE WEED,NETTLE WEED","190,167.4539301155985,196.01136558137935,211.68456119246505","4,3,2,1","CORN CROP,CORN CROP,CORN CROP,CORN CROP","0,0,0,0","20,20,20,20","10,10,10,10","20,20,20,20","20,20,20,20","20,20,20,20","0,0,0,0","20,20,20,20","10,10,10,10","20,20,20,20","20,20,20,20","20,20,20,20","0,1,1,1","1213,1341,247,1850","27.395523336313875,-4.485354701494867,64.37373533080438,1.7966885690121401","-22.546069884401497,28.557435465780856,15.673195611085704,3.3741192126429596","0","0"
"471","86","text","0","67","654849","0-0","","","","","","","","","","","","","","","","","","","","","","","","","","","","","","","","","","","","",""
"","","plant-game","0","68","664692","0-0","","200","190","1","WHEAT CROP","Right","200","180","2","NETTLE WEED","experimental","21","1,2","180,206.94680785799272","2,1","NETTLE WEED,NETTLE WEED","190,190","1,1","WHEAT CROP,CORN CROP","0,0","20,20","10,10","20,20","20,20","20,20","0,0","20,20","10,10","20,20","20,20","20,20","1,0","1333,1523","26.94680785799272,-18.306162074095248","1.9945810562534732,21.183700539757947","0","0"
"459","86","text","0","69","665326","0-0","","","","","","","","","","","","","","","","","","","","","","","","","","","","","","","","","","","","",""
"","","plant-game","0","70","683709","0-0","","200","190","4","WHEAT CROP","Right","200","160","8","THISTLE WEED","experimental","22","1,2,3,4,5,6,7,8","160,169.24449246528238,179.07232939691502,173.58471267843467,186.64665687606703,169.42297373814287,167.36247930979346,196.4963344072674","8,7,6,5,4,3,2,1","THISTLE WEED,THISTLE WEED,THISTLE WEED,THISTLE WEED,THISTLE WEED,THISTLE WEED,THISTLE WEED,THISTLE WEED","190,173.61138502628728,182.5068005211389,172.36331531131032,160,175.6334600600553,128.9510439319298,119.32104938008833","4,3,2,1,4,3,2,1","WHEAT CROP,WHEAT CROP,WHEAT CROP,WHEAT CROP,CORN CROP,CORN CROP,CORN CROP,CORN CROP","0,0,0,0,0,0,0,0","20,20,20,20,20,20,20,20","10,10,10,10,10,10,10,10","20,20,20,20,20,20,20,20","20,20,20,20,20,20,20,20","20,20,20,20,20,20,20,20","0,0,0,0,0,0,0,0","20,20,20,20,20,20,20,20","10,10,10,10,10,10,10,10","20,20,20,20,20,20,20,20","20,20,20,20,20,20,20,20","20,20,20,20,20,20,20,20","0,1,0,1,0,0,0,1","3231,774,585,468,956,1238,2442,749","9.244492465282377,9.827836931632657,-5.487616718480353,13.061944197632346,-17.22368313792415,-2.060494428349428,29.133855097473926,28.67194787069488","-16.388614973712716,8.895415494851628,-10.143485209828597,48.067863037119075,15.633460060055322,-46.682416128125524,-9.629994551841474,-10.941549225224833","0","0"
"208","86","text","0","71","684035","0-0","","","","","","","","","","","","","","","","","","","","","","","","","","","","","","","","","","","","",""
"","","plant-game","0","72","698583","0-0","","200","120","4","CORN CROP","Right","200","160","1","NETTLE WEED","experimental","23","1,2,3,4","160,170,168.62005613332437,201.63847821756093","1,3,2,1","NETTLE WEED,THISTLE WEED,THISTLE WEED,THISTLE WEED","120,120.34413591911306,103.66078635442719,108.7412923689622","4,3,2,1","CORN CROP,CORN CROP,CORN CROP,CORN CROP","0,0,0,0","20,20,20,20","10,10,10,10","20,20,20,20","20,20,20,20","20,20,20,20","0,0,0,0","20,20,20,20","10,10,10,10","20,20,20,20","20,20,20,20","20,20,20,20","1,0,1,1","1083,526,550,824","-10.891765973813278,-1.37994386667562,33.01842208423657,17.836216569916772","0.3441359191130573,-16.68334956468587,5.08050601453502,33.89973110250004","0","0"
"5095","86","text","0","73","703838","0-0","","","","","","","","","","","","","","","","","","","","","","","","","","","","","","","","","","","","",""
"","","plant-game","0","74","722717","0-0","","200","160","8","WHEAT CROP","Left","200","180","2","THISTLE WEED","experimental","24","1,2,3,4,5,6,7,8","160,153.94547956114297,201.33480311057798,190.1162357628229,191.56986381406853,197.59600438340112,200.26182222419752,164.20356213253484","8,7,6,5,4,3,2,1","WHEAT CROP,WHEAT CROP,WHEAT CROP,WHEAT CROP,WHEAT CROP,WHEAT CROP,WHEAT CROP,WHEAT CROP","180,193.15521057353845,140,177.46792819058547,211.26581760325945,203.82825600832135,160.48403454424843,130.90587327618275","2,1,6,5,4,3,2,1","THISTLE WEED,THISTLE WEED,NETTLE WEED,NETTLE WEED,NETTLE WEED,NETTLE WEED,NETTLE WEED,NETTLE WEED","20,20,20,20,20,20,20,20","20,20,20,20,20,20,20,20","10,10,10,10,10,10,10,10","20,20,20,20,20,20,20,20","0,0,0,0,0,0,0,0","20,20,20,20,20,20,20,20","20,20,20,20,20,20,20,20","20,20,20,20,20,20,20,20","10,10,10,10,10,10,10,10","20,20,20,20,20,20,20,20","0,0,0,0,0,0,0,0","20,20,20,20,20,20,20,20","1,1,1,0,1,1,1,0","2396,868,1683,1663,1734,401,1382,854","-6.054520438857033,47.389323549435,-11.218567347755071,1.453628051245616,6.026140569332602,2.6658178407963877,-36.058260091662675,25.312670462018076","13.155210573538449,-3.550797923103751,37.467928190585475,33.79788941267399,-7.437561594938103,-43.34422146407292,-29.578161268065678,2.1240330731029857","0","0"
"442","86","text","0","75","723289","0-0","","","","","","","","","","","","","","","","","","","","","","","","","","","","","","","","","","","","",""
"","","plant-game","0","76","736908","0-0","","200","120","4","CORN CROP","Left","200","180","1","NETTLE WEED","experimental","25","1,2,3,4","120,136.93285149202353,105.57523333300816,99.54518803053915","4,3,2,1","CORN CROP,CORN CROP,CORN CROP,CORN CROP","180,170,160.61382791768798,201.7517443927049","1,3,2,1","NETTLE WEED,THISTLE WEED,THISTLE WEED,THISTLE WEED","20,20,20,20","20,20,20,20","10,10,10,10","20,20,20,20","0,0,0,0","20,20,20,20","20,20,20,20","20,20,20,20","10,10,10,10","20,20,20,20","0,0,0,0","20,20,20,20","0,1,0,1","2294,826,534,788","16.932851492023524,-31.357618159015367,-6.030045302469013,-26.224488007118826","7.3239411619451324,-9.386172082312012,41.13791647501691,-6.718859393345374","0","0"
"507","86","text","0","77","737555","0-0","","","","","","","","","","","","","","","","","","","","","","","","","","","","","","","","","","","","",""
"","","plant-game","0","78","765000","0-0","","200","160","1","WHEAT CROP","Right","200","180","8","NETTLE WEED","experimental","26","1,2,3,4,5,6,7,8","180,215.73793497352133,233.9141609880503,215.44871172503548,209.3034002859034,187.763740567815,154.8599472246197,146.56977618944646","8,7,6,5,4,3,2,1","NETTLE WEED,NETTLE WEED,NETTLE WEED,NETTLE WEED,NETTLE WEED,NETTLE WEED,NETTLE WEED,NETTLE WEED","160,130,129.58343499590998,154.39800949988683,199.184543137431,196.21372987830097,203.7464932741505,162.9258516154976","1,7,6,5,4,3,2,1","WHEAT CROP,CORN CROP,CORN CROP,CORN CROP,CORN CROP,CORN CROP,CORN CROP,CORN CROP","0,0,0,0,0,0,0,0","20,20,20,20,20,20,20,20","10,10,10,10,10,10,10,10","20,20,20,20,20,20,20,20","20,20,20,20,20,20,20,20","20,20,20,20,20,20,20,20","0,0,0,0,0,0,0,0","20,20,20,20,20,20,20,20","10,10,10,10,10,10,10,10","20,20,20,20,20,20,20,20","20,20,20,20,20,20,20,20","20,20,20,20,20,20,20,20","1,0,0,0,0,0,0,0","1356,551,1141,419,312,407,4905,1922","35.737934973521334,18.17622601452895,-18.46544926301482,-6.14531143913208,-21.539659718088377,-32.90379334319531,-8.290171035173254,-10.099699353817776","0.31824348223445753,-0.4165650040900244,24.814574503976836,44.786533637544174,-2.9708132591300274,7.532763395849543,-40.8206416586529,20.72695157488601","0","0"
"497","86","text","0","79","765647","0-0","","","","","","","","","","","","","","","","","","","","","","","","","","","","","","","","","","","","",""
"","","plant-game","0","80","781431","0-0","","200","180","2","WHEAT CROP","Left","200","120","8","NETTLE WEED","experimental","27","1,2,3,4,5,6,7,8","180,156.00294947448387,140,86.11254925505102,88.30311256246476,109.16858856684738,108.80469405265296,156.68933610664118","2,1,6,5,4,3,2,1","WHEAT CROP,WHEAT CROP,CORN CROP,CORN CROP,CORN CROP,CORN CROP,CORN CROP,CORN CROP","120,135.098249168235,187.85254149075575,185.47130438971263,190.88216580332298,187.5583891309811,180.65145996150812,199.0734548704274","8,7,6,5,4,3,2,1","NETTLE WEED,NETTLE WEED,NETTLE WEED,NETTLE WEED,NETTLE WEED,NETTLE WEED,NETTLE WEED,NETTLE WEED","20,20,20,20,20,20,20,20","20,20,20,20,20,20,20,20","10,10,10,10,10,10,10,10","20,20,20,20,20,20,20,20","0,0,0,0,0,0,0,0","20,20,20,20,20,20,20,20","20,20,20,20,20,20,20,20","20,20,20,20,20,20,20,20","10,10,10,10,10,10,10,10","20,20,20,20,20,20,20,20","0,0,0,0,0,0,0,0","20,20,20,20,20,20,20,20","1,0,1,1,1,0,0,0","2223,587,701,1157,625,238,376,493","-23.99705052551613,-9.348921630808825,-53.88745074494898,2.1905633074137447,20.86547600438262,-0.363894514194417,47.88464205398821,27.569488802174654","15.098249168234986,52.75429232252077,-2.3812371010431184,5.410861413610341,-3.3237766723418543,-6.906929169472992,18.421994908919288,-20.043779856041795","1","0"
"512","86","text","0","81","782052","0-0","","","","","","","","","","","","","","","","","","","","","","","","","","","","","","","","","","","","",""
"","","plant-game","0","82","799453","0-0","","200","180","1","WHEAT CROP","Left","200","190","8","NETTLE WEED","experimental","28","1,2,3,4,5,6,7,8","180,130,116.00182936127956,71.211139918018,62.05282273731181,81.30551041744123,69.28776670895519,67.11253915388609","1,7,6,5,4,3,2,1","WHEAT CROP,CORN CROP,CORN CROP,CORN CROP,CORN CROP,CORN CROP,CORN CROP,CORN CROP","190,247.38512361760354,212.1024174476732,190.95321681853548,182.2883222650663,196.25654823788494,174.85452995170448,183.99473429130043","8,7,6,5,4,3,2,1","NETTLE WEED,NETTLE WEED,NETTLE WEED,NETTLE WEED,NETTLE WEED,NETTLE WEED,NETTLE WEED,NETTLE WEED","20,20,20,20,20,20,20,20","20,20,20,20,20,20,20,20","10,10,10,10,10,10,10,10","20,20,20,20,20,20,20,20","0,0,0,0,0,0,0,0","20,20,20,20,20,20,20,20","20,20,20,20,20,20,20,20","20,20,20,20,20,20,20,20","10,10,10,10,10,10,10,10","20,20,20,20,20,20,20,20","0,0,0,0,0,0,0,0","20,20,20,20,20,20,20,20","0,1,1,1,1,1,0,1","3268,2214,686,323,307,403,535,360","29.83601960364028,-13.998170638720438,-44.79068944326155,-9.158317180706199,19.25268768012942,-12.017743708486034,-2.1752275550690996,-15.457018072956041","57.385123617603554,-35.28270616993035,-21.149200629137702,-8.66489455346916,13.96822597281863,-21.402018286180468,9.140204339595961,40.883720574853825","0","0"
"457","86","text","0","83","800070","0-0","","","","","","","","","","","","","","","","","","","","","","","","","","","","","","","","","","","","",""
"","","plant-game","0","84","824696","0-0","","200","180","1","CORN CROP","Right","200","190","2","THISTLE WEED","experimental","29","1,2","190,221.28036490406348","2,1","THISTLE WEED,THISTLE WEED","180,190","1,1","CORN CROP,WHEAT CROP","0,0","20,20","10,10","20,20","20,20","20,20","0,0","20,20","10,10","20,20","20,20","20,20","1,0","1933,1610","31.280364904063486,-8.712003475387888","16.067722700162026,12.15342841687869","0","0"
"484","86","text","0","85","825320","0-0","","","","","","","","","","","","","","","","","","","","","","","","","","","","","","","","","","","","",""
"","","plant-game","0","86","837394","0-0","","200","190","1","CORN CROP","Right","200","180","8","NETTLE WEED","experimental","30","1,2,3,4,5,6,7,8","180,196.25024210004668,206.36354306492822,239.58720311764523,207.54002214243022,261.41039001253154,237.2040256764301,228.7804275161497","8,7,6,5,4,3,2,1","NETTLE WEED,NETTLE WEED,NETTLE WEED,NETTLE WEED,NETTLE WEED,NETTLE WEED,NETTLE WEED,NETTLE WEED","190,130,138.5479943436768,172.22300710731204,201.7037910217021,226.55397213578146,230.56481311929886,233.2173526316027","1,7,6,5,4,3,2,1","CORN CROP,WHEAT CROP,WHEAT CROP,WHEAT CROP,WHEAT CROP,WHEAT CROP,WHEAT CROP,WHEAT CROP","0,0,0,0,0,0,0,0","20,20,20,20,20,20,20,20","10,10,10,10,10,10,10,10","20,20,20,20,20,20,20,20","20,20,20,20,20,20,20,20","20,20,20,20,20,20,20,20","0,0,0,0,0,0,0,0","20,20,20,20,20,20,20,20","10,10,10,10,10,10,10,10","20,20,20,20,20,20,20,20","20,20,20,20,20,20,20,20","20,20,20,20,20,20,20,20","0,1,1,0,1,0,1,1","2748,930,1137,463,14,79,254,183","16.250242100046673,10.113300964881537,33.22366005271702,-32.04718097521501,53.87036787010131,-24.20636433610146,-8.423598160280392,35.878753784178144","-1.1229356102608934,8.547994343676816,33.67501276363524,29.480783914390074,24.850181114079376,4.010840983517407,2.6525395123038322,30.137355340240703","0","0"
"546","86","text","0","87","838041","0-0","","","","","","","","","","","","","","","","","","","","","","","","","","","","","","","","","","","","",""
"","","plant-game","0","88","845663","0-0","","200","160","4","CORN CROP","Right","200","160","2","NETTLE WEED","experimental","31","1,2,3,4","160,174.08795077233526,180,166.6523641084117","2,1,2,1","NETTLE WEED,NETTLE WEED,THISTLE WEED,THISTLE WEED","160,175.31692245764472,167.07913858036414,159.66988731284405","4,3,2,1","CORN CROP,CORN CROP,CORN CROP,CORN CROP","0,0,0,0","20,20,20,20","10,10,10,10","20,20,20,20","20,20,20,20","20,20,20,20","0,0,0,0","20,20,20,20","10,10,10,10","20,20,20,20","20,20,20,20","20,20,20,20","0,0,0,0","430,175,623,666","14.087950772335269,-14.0435643404359,-13.347635891588322,6.877737198620109","15.31692245764473,-8.237783877280576,-7.4092512675201,-42.52343750944016","0","0"
"491","86","text","0","89","846244","0-0","","","","","","","","","","","","","","","","","","","","","","","","","","","","","","","","","","","","",""
"","","plant-game","0","90","862218","0-0","","200","190","1","WHEAT CROP","Right","200","180","4","NETTLE WEED","experimental","32","1,2,3,4","180,165.42997425677453,175.02104846223193,221.81583710804514","4,3,2,1","NETTLE WEED,NETTLE WEED,NETTLE WEED,NETTLE WEED","190,170,178.63695900043862,206.93639982593763","1,3,2,1","WHEAT CROP,CORN CROP,CORN CROP,CORN CROP","0,0,0,0","20,20,20,20","10,10,10,10","20,20,20,20","20,20,20,20","20,20,20,20","0,0,0,0","20,20,20,20","10,10,10,10","20,20,20,20","20,20,20,20","20,20,20,20","0,0,1,0","1245,1137,161,3370","-14.570025743225477,9.59107420545741,46.79478864581322,10.030922379735856","-17.698640985724282,8.636959000438635,28.299440825499012,-10.463596824778985","4","0"
"19539","86","text","0","91","881960","0-0","","","","","","","","","","","","","","","","","","","","","","","","","","","","","","","","","","","","",""
"","","plant-game","0","92","888355","0-0","","200","120","8","CORN CROP","Right","200","120","8","NETTLE WEED","experimental","33","1,2,3,4,5,6,7,8","120,132.1776470540937,162.31217510314707,164.3215099453955,194.41453186490958,238.72129095416477,239.7019577984987,212.57845694141983","8,7,6,5,4,3,2,1","NETTLE WEED,NETTLE WEED,NETTLE WEED,NETTLE WEED,NETTLE WEED,NETTLE WEED,NETTLE WEED,NETTLE WEED","120,120.53368682731157,139.33880408504714,122.67789445537744,136.67426808528623,157.14082095272587,159.6039063283022,192.55844852735467","8,7,6,5,4,3,2,1","CORN CROP,CORN CROP,CORN CROP,CORN CROP,CORN CROP,CORN CROP,CORN CROP,CORN CROP","0,0,0,0,0,0,0,0","20,20,20,20,20,20,20,20","10,10,10,10,10,10,10,10","20,20,20,20,20,20,20,20","20,20,20,20,20,20,20,20","20,20,20,20,20,20,20,20","0,0,0,0,0,0,0,0","20,20,20,20,20,20,20,20","10,10,10,10,10,10,10,10","20,20,20,20,20,20,20,20","20,20,20,20,20,20,20,20","20,20,20,20,20,20,20,20","0,1,0,1,1,1,1,1","1059,219,153,0,118,103,159,334","12.177647054093699,30.134528049053344,2.009334842248429,30.093021919514086,44.306759089255195,0.9806668443339426,-27.12350085707888,32.15653913123707","0.5336868273115688,18.805117257735574,-16.660909629669707,13.996373629908785,20.466552867439635,2.4630853755763304,32.95454219905247,6.827007998521935","0","0"
"418","86","text","0","93","888903","0-0","","","","","","","","","","","","","","","","","","","","","","","","","","","","","","","","","","","","",""
"","","plant-game","0","94","897469","0-0","","200","190","2","WHEAT CROP","Left","200","120","4","THISTLE WEED","experimental","34","1,2,3,4","190,206.73771855877558,180,173.63435909239644","2,1,2,1","WHEAT CROP,WHEAT CROP,CORN CROP,CORN CROP","120,152.8319183630326,161.08423646567084,124.70471472033525","4,3,2,1","THISTLE WEED,THISTLE WEED,THISTLE WEED,THISTLE WEED","20,20,20,20","20,20,20,20","10,10,10,10","20,20,20,20","0,0,0,0","20,20,20,20","20,20,20,20","20,20,20,20","10,10,10,10","20,20,20,20","0,0,0,0","20,20,20,20","0,0,1,1","1343,1607,795,337","16.737718558775594,20.812765548498007,-6.3656409076035505,1.0752041723492751","32.8319183630326,8.252318102638249,-36.379521745335595,-48.24483598434974","0","0"
"209","86","text","0","95","897828","0-0","","","","","","","","","","","","","","","","","","","","","","","","","","","","","","","","","","","","",""
"","","plant-game","0","96","907269","0-0","","200","190","1","CORN CROP","Right","200","120","2","NETTLE WEED","experimental","35","1,2","120,121.12917248394524","2,1","NETTLE WEED,NETTLE WEED","190,190","1,1","CORN CROP,WHEAT CROP","0,0","20,20","10,10","20,20","20,20","20,20","0,0","20,20","10,10","20,20","20,20","20,20","0,1","1861,981","1.1291724839452353,30.843562754339462","25.944694322489866,-0.778461307382333","1","0"
"803","86","text","0","97","908212","0-0","","","","","","","","","","","","","","","","","","","","","","","","","","","","","","","","","","","","",""
"","","plant-game","0","98","948762","0-0","","200","180","2","WHEAT CROP","Right","200","160","8","NETTLE WEED","experimental","36","1,2,3,4,5,6,7,8","160,134.0873016331255,166.6150344374473,165.33099861941082,172.75704688492496,177.47691750858053,177.76076983379176,230.08843190568754","8,7,6,5,4,3,2,1","NETTLE WEED,NETTLE WEED,NETTLE WEED,NETTLE WEED,NETTLE WEED,NETTLE WEED,NETTLE WEED,NETTLE WEED","180,198.01578980403636,140,153.35904626394552,145.87833497422514,148.58452490826883,130.07703810911215,141.50096766585975","2,1,6,5,4,3,2,1","WHEAT CROP,WHEAT CROP,CORN CROP,CORN CROP,CORN CROP,CORN CROP,CORN CROP,CORN CROP","0,0,0,0,0,0,0,0","20,20,20,20,20,20,20,20","10,10,10,10,10,10,10,10","20,20,20,20,20,20,20,20","20,20,20,20,20,20,20,20","20,20,20,20,20,20,20,20","0,0,0,0,0,0,0,0","20,20,20,20,20,20,20,20","10,10,10,10,10,10,10,10","20,20,20,20,20,20,20,20","20,20,20,20,20,20,20,20","20,20,20,20,20,20,20,20","0,1,0,0,1,0,1,0","29255,16,2222,424,401,307,101,38","-25.9126983668745,32.52773280432179,-1.2840358180364673,7.4260482655141535,4.719870623655556,0.28385232521123693,52.327662071895794,-13.03948142176461","18.01578980403637,29.166188026179725,13.359046263945512,-7.480711289720377,2.7061899340436995,-18.50748679915667,11.423929556747588,39.49748172526444","0","0"
"132","86","text","0","99","949014","0-0","","","","","","","","","","","","","","","","","","","","","","","","","","","","","","","","","","","","",""
"","","plant-game","0","100","957070","0-0","","200","120","8","CORN CROP","Right","200","190","8","THISTLE WEED","experimental","37","1,2,3,4,5,6,7,8","190,212.26838487946293,274.99039964158885,286.2762009475038,286.1593045732254,298.2989587649637,287.3867143169826,292.24410007942015","8,7,6,5,4,3,2,1","THISTLE WEED,THISTLE WEED,THISTLE WEED,THISTLE WEED,THISTLE WEED,THISTLE WEED,THISTLE WEED,THISTLE WEED","120,156.33112978695337,186.2815023408437,160.6995722868117,195.32402847182814,232.26240363543633,215.6038898903462,260.1007454624906","8,7,6,5,4,3,2,1","CORN CROP,CORN CROP,CORN CROP,CORN CROP,CORN CROP,CORN CROP,CORN CROP,CORN CROP","0,0,0,0,0,0,0,0","20,20,20,20,20,20,20,20","10,10,10,10,10,10,10,10","20,20,20,20,20,20,20,20","20,20,20,20,20,20,20,20","20,20,20,20,20,20,20,20","0,0,0,0,0,0,0,0","20,20,20,20,20,20,20,20","10,10,10,10,10,10,10,10","20,20,20,20,20,20,20,20","20,20,20,20,20,20,20,20","20,20,20,20,20,20,20,20","1,1,0,1,1,1,1,1","2689,174,468,218,95,125,112,107","22.26838487946292,62.72201476212594,11.28580130591494,-0.1168963742783582,12.13965419173823,-10.912244447981102,4.857385762437541,14.766951978496802","36.33112978695336,29.950372553890347,-25.58193005403201,34.62445618501644,36.93837516360819,-16.65851374509011,44.49685557214436,-5.697252240369259","0","0"
"161","86","text","0","101","957361","0-0","","","","","","","","","","","","","","","","","","","","","","","","","","","","","","","","","","","","",""
"","","plant-game","0","102","974961","0-0","","200","190","4","CORN CROP","Right","200","190","8","NETTLE WEED","experimental","38","1,2,3,4,5,6,7,8","190,162.3381158223118,156.0516468863446,177.9986773559784,189.4011261162681,192.83595372300078,193.9764751579311,205.26433129071415","8,7,6,5,4,3,2,1","NETTLE WEED,NETTLE WEED,NETTLE WEED,NETTLE WEED,NETTLE WEED,NETTLE WEED,NETTLE WEED,NETTLE WEED","190,218.8056448329971,254.20219305068915,240.17033998226574,160,170.1915339573161,176.06679235291932,178.41733651313322","4,3,2,1,4,3,2,1","CORN CROP,CORN CROP,CORN CROP,CORN CROP,WHEAT CROP,WHEAT CROP,WHEAT CROP,WHEAT CROP","0,0,0,0,0,0,0,0","20,20,20,20,20,20,20,20","10,10,10,10,10,10,10,10","20,20,20,20,20,20,20,20","20,20,20,20,20,20,20,20","20,20,20,20,20,20,20,20","0,0,0,0,0,0,0,0","20,20,20,20,20,20,20,20","10,10,10,10,10,10,10,10","20,20,20,20,20,20,20,20","20,20,20,20,20,20,20,20","20,20,20,20,20,20,20,20","1,1,1,1,1,0,0,1","308,330,1027,1344,1750,747,330,486","-27.661884177688208,-6.2864689359672,21.9470304696338,11.402448760289714,3.434827606732675,1.1405214349303199,11.287856132783054,2.4988727474308874","28.805644832997103,35.39654821769205,-14.031853068423395,22.80480378519086,10.191533957316084,5.875258395603211,2.3505441602139006,41.67397472693358","0","0"
"524","86","text","0","103","975685","0-0","","","","","","","","","","","","","","","","","","","","","","","","","","","","","","","","","","","","",""
"","","plant-game","0","104","983406","0-0","","200","180","8","CORN CROP","Right","200","160","8","NETTLE WEED","experimental","39","1,2,3,4,5,6,7,8","160,212.94910534505212,211.4197641309942,252.5827164285748,251.64886337897315,263.1136299798388,277.26471918116596,275.2409893810166","8,7,6,5,4,3,2,1","NETTLE WEED,NETTLE WEED,NETTLE WEED,NETTLE WEED,NETTLE WEED,NETTLE WEED,NETTLE WEED,NETTLE WEED","180,222.6454886183061,258.0184812518679,303.895985647274,279.471240155286,282.4618225840916,315.560422543948,349.89698883170723","8,7,6,5,4,3,2,1","CORN CROP,CORN CROP,CORN CROP,CORN CROP,CORN CROP,CORN CROP,CORN CROP,CORN CROP","0,0,0,0,0,0,0,0","20,20,20,20,20,20,20,20","10,10,10,10,10,10,10,10","20,20,20,20,20,20,20,20","20,20,20,20,20,20,20,20","20,20,20,20,20,20,20,20","0,0,0,0,0,0,0,0","20,20,20,20,20,20,20,20","10,10,10,10,10,10,10,10","20,20,20,20,20,20,20,20","20,20,20,20,20,20,20,20","20,20,20,20,20,20,20,20","1,1,1,1,1,1,1,1","1269,205,368,182,173,203,430,147","52.94910534505212,-1.5293412140579257,41.1629522975806,-0.9338530496016482,11.464766600865609,14.151089201327197,-2.023729800149326,7.852251748688129","42.64548861830612,35.372992633561836,45.877504395406106,-24.42474549198802,2.9905824288055918,33.09859995985642,34.33656628775922,2.780135619194354","1","0"
"465","86","text","0","105","984011","0-0","","","","","","","","","","","","","","","","","","","","","","","","","","","","","","","","","","","","",""
"","","plant-game","0","106","993445","0-0","","200","120","4","WHEAT CROP","Left","200","160","2","NETTLE WEED","experimental","40","1,2,3,4","120,140.79724483849128,126.35830110137312,151.71326946219625","4,3,2,1","WHEAT CROP,WHEAT CROP,WHEAT CROP,WHEAT CROP","160,174.60349890537407,180,197.07803668613275","2,1,2,1","NETTLE WEED,NETTLE WEED,THISTLE WEED,THISTLE WEED","20,20,20,20","20,20,20,20","10,10,10,10","20,20,20,20","0,0,0,0","20,20,20,20","20,20,20,20","20,20,20,20","10,10,10,10","20,20,20,20","0,0,0,0","20,20,20,20","1,0,0,0","624,180,1480,520","20.797244838491274,-14.438943737118166,25.354968360823143,32.673929709909146","14.603498905374073,17.007296923927118,17.078036686132748,22.091633591320758","0","0"
"393","86","text","0","107","993958","0-0","","","","","","","","","","","","","","","","","","","","","","","","","","","","","","","","","","","","",""
"","","plant-game","0","108","1002346","0-0","","200","120","4","CORN CROP","Right","200","120","4","NETTLE WEED","experimental","41","1,2,3,4","120,122.30199807298345,121.00178483432947,106.90555850941595","4,3,2,1","NETTLE WEED,NETTLE WEED,NETTLE WEED,NETTLE WEED","120,132.59455197177206,149.41894367335553,157.98197410329038","4,3,2,1","CORN CROP,CORN CROP,CORN CROP,CORN CROP","0,0,0,0","20,20,20,20","10,10,10,10","20,20,20,20","20,20,20,20","20,20,20,20","0,0,0,0","20,20,20,20","10,10,10,10","20,20,20,20","20,20,20,20","20,20,20,20","0,0,0,0","2241,612,350,347","2.3019980729834586,-1.3002132386539782,-14.096226324913514,9.511958651464349","12.594551971772068,16.824391701583455,8.563030429934864,-5.641352763362148","0","0"
"505","86","text","0","109","1003001","0-0","","","","","","","","","","","","","","","","","","","","","","","","","","","","","","","","","","","","",""
"","","plant-game","0","110","1016651","0-0","","200","190","4","CORN CROP","Right","200","120","2","NETTLE WEED","experimental","42","1,2,3,4","120,148.30367444811262,180,163.19602416854525","2,1,2,1","NETTLE WEED,NETTLE WEED,THISTLE WEED,THISTLE WEED","190,203.72378111367732,228.7842436440248,191.55693511932282","4,3,2,1","CORN CROP,CORN CROP,CORN CROP,CORN CROP","0,0,0,0","20,20,20,20","10,10,10,10","20,20,20,20","20,20,20,20","20,20,20,20","0,0,0,0","20,20,20,20","10,10,10,10","20,20,20,20","20,20,20,20","20,20,20,20","0,1,0,1","2557,1223,2723,612","28.30367444811262,17.044617135025096,-16.80397583145475,31.135680967357775","13.723781113677326,25.060462530347476,-37.22730852470198,35.67642412985664","0","0"
"5633","86","text","0","111","1022424","0-0","","","","","","","","","","","","","","","","","","","","","","","","","","","","","","","","","","","","",""
"","","plant-game","0","112","1039661","0-0","","200","190","2","WHEAT CROP","Right","200","180","1","THISTLE WEED","experimental","43","1,2","180,190","1,1","THISTLE WEED,NETTLE WEED","190,204.80180004720089","2,1","WHEAT CROP,WHEAT CROP","0,0","20,20","10,10","20,20","20,20","20,20","0,0","20,20","10,10","20,20","20,20","20,20","1,1","2171,3542","-30.98563309353765,16.041853623841902","14.801800047200878,26.03137927417747","0","0"
"653","86","text","0","113","1040474","0-0","","","","","","","","","","","","","","","","","","","","","","","","","","","","","","","","","","","","",""
"","","plant-game","0","114","1054595","0-0","","200","160","1","WHEAT CROP","Right","200","180","4","NETTLE WEED","experimental","44","1,2,3,4","180,235.01437077399106,265.83346765750497,277.184268836836","4,3,2,1","NETTLE WEED,NETTLE WEED,NETTLE WEED,NETTLE WEED","160,170,200.60586394538728,243.11619222039184","1,3,2,1","WHEAT CROP,CORN CROP,CORN CROP,CORN CROP","0,0,0,0","20,20,20,20","10,10,10,10","20,20,20,20","20,20,20,20","20,20,20,20","0,0,0,0","20,20,20,20","10,10,10,10","20,20,20,20","20,20,20,20","20,20,20,20","0,1,1,0","1459,972,1427,628","55.01437077399106,30.819096883513918,11.350801179331055,2.2705190800224218","5.002588020522081,30.605863945387277,42.51032827500454,4.581244961525127","0","0"
"586","86","text","0","115","1055312","0-0","","","","","","","","","","","","","","","","","","","","","","","","","","","","","","","","","","","","",""
"","","plant-game","0","116","1066203","0-0","","200","180","2","WHEAT CROP","Left","200","160","1","NETTLE WEED","experimental","45","1,2","180,166.97966633883934","2,1","WHEAT CROP,WHEAT CROP","160,190","1,1","NETTLE WEED,THISTLE WEED","20,20","20,20","10,10","20,20","0,0","20,20","20,20","20,20","10,10","20,20","0,0","20,20","1,0","1067,2178","-13.020333661160652,44.16943857333685","-29.92863545874112,36.042264883280936","1","0"
"450","86","text","0","117","1066813","0-0","","","","","","","","","","","","","","","","","","","","","","","","","","","","","","","","","","","","",""
"","","plant-game","0","118","1075227","0-0","","200","160","8","CORN CROP","Right","200","160","4","THISTLE WEED","experimental","46","1,2,3,4,5,6,7,8","160,142.33751234284915,161.43072349947184,172.5937867050929,160,148.8407531969999,182.3193702490002,172.40544197154722","4,3,2,1,4,3,2,1","THISTLE WEED,THISTLE WEED,THISTLE WEED,THISTLE WEED,NETTLE WEED,NETTLE WEED,NETTLE WEED,NETTLE WEED","160,178.67737497565858,151.58321311521667,163.70537616912873,175.6600445957274,177.2804390920806,208.41684818046505,215.58005491151627","8,7,6,5,4,3,2,1","CORN CROP,CORN CROP,CORN CROP,CORN CROP,CORN CROP,CORN CROP,CORN CROP,CORN CROP","0,0,0,0,0,0,0,0","20,20,20,20,20,20,20,20","10,10,10,10,10,10,10,10","20,20,20,20,20,20,20,20","20,20,20,20,20,20,20,20","20,20,20,20,20,20,20,20","0,0,0,0,0,0,0,0","20,20,20,20,20,20,20,20","10,10,10,10,10,10,10,10","20,20,20,20,20,20,20,20","20,20,20,20,20,20,20,20","20,20,20,20,20,20,20,20","0,0,1,1,0,1,1,0","891,117,10,114,826,424,297,457","-17.662487657150844,19.093211156622676,11.163063205621066,42.96781201702583,-11.159246803000098,33.478617052000295,-9.913928277452989,19.545156316794056","18.677374975658573,-27.094161860441922,12.12216305391206,11.95466842659869,1.620394496353178,31.136409088384465,7.163206731051224,27.53069963929247","0","0"
"96","86","text","0","119","1075426","0-0","","","","","","","","","","","","","","","","","","","","","","","","","","","","","","","","","","","","",""
"","","plant-game","0","120","1084099","0-0","","200","190","2","CORN CROP","Right","200","190","8","THISTLE WEED","experimental","47","1,2,3,4,5,6,7,8","190,232.75890029381958,224.19057120359415,240.5747551766102,233.93008792491906,245.37399512334284,256.6473758784744,267.7491528263567","8,7,6,5,4,3,2,1","THISTLE WEED,THISTLE WEED,THISTLE WEED,THISTLE WEED,THISTLE WEED,THISTLE WEED,THISTLE WEED,THISTLE WEED","190,199.51055048742396,140,150.32323494428715,132.7043319088869,165.8531260121624,169.5078005582975,213.87975699117277","2,1,6,5,4,3,2,1","CORN CROP,CORN CROP,WHEAT CROP,WHEAT CROP,WHEAT CROP,WHEAT CROP,WHEAT CROP,WHEAT CROP","0,0,0,0,0,0,0,0","20,20,20,20,20,20,20,20","10,10,10,10,10,10,10,10","20,20,20,20,20,20,20,20","20,20,20,20,20,20,20,20","20,20,20,20,20,20,20,20","0,0,0,0,0,0,0,0","20,20,20,20,20,20,20,20","10,10,10,10,10,10,10,10","20,20,20,20,20,20,20,20","20,20,20,20,20,20,20,20","20,20,20,20,20,20,20,20","1,0,1,0,1,1,1,1","580,97,1910,1,80,428,276,127","42.75890029381957,-8.568329090225445,16.384183973016057,-6.6446672516911605,11.443907198423775,11.273380755131567,11.101776947882291,50.23372202572787","9.510550487423943,16.530086268130745,10.323234944287165,-17.61890303540024,33.14879410327549,3.6546745461351122,44.37195643287528,38.93800583189463","0","0"
"130","86","text","0","121","1084369","0-0","","","","","","","","","","","","","","","","","","","","","","","","","","","","","","","","","","","","",""
"","","plant-game","0","122","1091813","0-0","","200","120","4","WHEAT CROP","Right","200","180","8","THISTLE WEED","experimental","48","1,2,3,4,5,6,7,8","180,171.55194567557484,155.67578698282458,159.01720797752884,174.7226848498674,176.87468086568177,176.0137767121549,230.01505224127746","8,7,6,5,4,3,2,1","THISTLE WEED,THISTLE WEED,THISTLE WEED,THISTLE WEED,THISTLE WEED,THISTLE WEED,THISTLE WEED,THISTLE WEED","120,123.72773471611522,142.2387122492491,185.87293066781837,160,220.15206256585515,234.7431689335898,274.88488197703185","4,3,2,1,4,3,2,1","WHEAT CROP,WHEAT CROP,WHEAT CROP,WHEAT CROP,CORN CROP,CORN CROP,CORN CROP,CORN CROP","0,0,0,0,0,0,0,0","20,20,20,20,20,20,20,20","10,10,10,10,10,10,10,10","20,20,20,20,20,20,20,20","20,20,20,20,20,20,20,20","20,20,20,20,20,20,20,20","0,0,0,0,0,0,0,0","20,20,20,20,20,20,20,20","10,10,10,10,10,10,10,10","20,20,20,20,20,20,20,20","20,20,20,20,20,20,20,20","20,20,20,20,20,20,20,20","0,0,1,0,1,0,1,1","64,600,207,106,407,127,595,204","-8.448054324425168,-15.876158692750256,3.3414209947042686,15.705476872338558,2.151996015814376,-0.8609041535268563,54.001275529122545,4.054705533903828","3.7277347161152203,18.510977533133875,43.63421841856928,2.3171766314068556,60.15206256585514,14.591106367734639,40.14171304344207,14.903833229447642","0","0"
"203","86","text","0","123","1092136","0-0","","","","","","","","","","","","","","","","","","","","","","","","","","","","","","","","","","","","",""
"","","plant-game","0","124","1100309","0-0","","200","160","4","WHEAT CROP","Left","200","190","2","NETTLE WEED","experimental","49","1,2,3,4","160,153.7000953101831,164.51567963041424,156.7797207151582","4,3,2,1","WHEAT CROP,WHEAT CROP,WHEAT CROP,WHEAT CROP","190,191.9577813859838,180,170.05443439441393","2,1,2,1","NETTLE WEED,NETTLE WEED,THISTLE WEED,THISTLE WEED","20,20,20,20","20,20,20,20","10,10,10,10","20,20,20,20","0,0,0,0","20,20,20,20","20,20,20,20","20,20,20,20","10,10,10,10","20,20,20,20","0,0,0,0","20,20,20,20","1,0,1,0","906,7,490,414","-6.299904689816904,10.815584320231144,-7.735958915256047,36.07777880759062","1.9577813859838067,33.20007809751989,-9.945565605586074,40.671052513257294","1","0"
"427","86","text","0","125","1100836","0-0","","","","","","","","","","","","","","","","","","","","","","","","","","","","","","","","","","","","",""
"","","plant-game","0","126","1110220","0-0","","200","160","2","WHEAT CROP","Left","200","180","4","NETTLE WEED","experimental","50","1,2,3,4","160,170.82637736486464,180,180.00947643040536","2,1,2,1","WHEAT CROP,WHEAT CROP,CORN CROP,CORN CROP","180,173.22061811456393,183.38339000389024,185.7667360726589","4,3,2,1","NETTLE WEED,NETTLE WEED,NETTLE WEED,NETTLE WEED","20,20,20,20","20,20,20,20","10,10,10,10","20,20,20,20","0,0,0,0","20,20,20,20","20,20,20,20","20,20,20,20","10,10,10,10","20,20,20,20","0,0,0,0","20,20,20,20","1,0,1,1","685,407,2610,304","10.826377364864644,34.89521129285603,0.00947643040535733,-30.248032271651056","-6.779381885436067,10.162771889326311,2.3833460687686383,29.74383564476231","2","0"
"5918","86","text","0","127","1116262","0-0","","","","","","","","","","","","","","","","","","","","","","","","","","","","","","","","","","","","",""
"","","plant-game","0","128","1121477","0-0","","200","180","2","WHEAT CROP","Right","200","160","2","THISTLE WEED","experimental","51","1,2","160,140.28111322314646","2,1","THISTLE WEED,THISTLE WEED","180,171.59411469589645","2,1","WHEAT CROP,WHEAT CROP","0,0","20,20","10,10","20,20","20,20","20,20","0,0","20,20","10,10","20,20","20,20","20,20","0,1","860,514","-19.718886776853527,18.62314588240763","-8.405885304103546,15.490006741123228","0","0"
"490","86","text","0","129","1122117","0-0","","","","","","","","","","","","","","","","","","","","","","","","","","","","","","","","","","","","",""
"","","plant-game","0","130","1143089","0-0","","200","120","2","CORN CROP","Left","200","160","4","THISTLE WEED","experimental","52","1,2,3,4","120,117.32092992214857,180,191.78380076885423","2,1,2,1","CORN CROP,CORN CROP,WHEAT CROP,WHEAT CROP","160,157.73623862714535,154.23956752615942,127.3692853038145","4,3,2,1","THISTLE WEED,THISTLE WEED,THISTLE WEED,THISTLE WEED","20,20,20,20","20,20,20,20","10,10,10,10","20,20,20,20","0,0,0,0","20,20,20,20","20,20,20,20","20,20,20,20","10,10,10,10","20,20,20,20","0,0,0,0","20,20,20,20","1,0,1,1","1280,430,1053,191","-2.6790700778514323,49.36937637024168,11.783800768854245,-35.16948187064576","-2.263761372854656,-3.4966711009859424,-26.870282222344926,34.72840905436621","1","0"
"3127","86","text","0","131","1146403","0-0","","","","","","","","","","","","","","","","","","","","","","","","","","","","","","","","","","","","",""
"","","plant-game","0","132","1155122","0-0","","200","160","2","CORN CROP","Right","200","180","1","THISTLE WEED","experimental","53","1,2","180,190","1,1","THISTLE WEED,NETTLE WEED","160,157.5804014603799","2,1","CORN CROP,CORN CROP","0,0","20,20","10,10","20,20","20,20","20,20","0,0","20,20","10,10","20,20","20,20","20,20","0,1","1464,1027","7.443302653694555,36.27778018791878","-2.419598539620093,29.680983878337994","0","0"
"515","86","text","0","133","1155777","0-0","","","","","","","","","","","","","","","","","","","","","","","","","","","","","","","","","","","","",""
"","","plant-game","0","134","1164583","0-0","","200","160","4","CORN CROP","Right","200","180","1","THISTLE WEED","experimental","54","1,2,3,4","180,170,208.07047236884185,242.9369052772908","1,3,2,1","THISTLE WEED,NETTLE WEED,NETTLE WEED,NETTLE WEED","160,181.41786955791804,199.05384167161202,197.12050064932404","4,3,2,1","CORN CROP,CORN CROP,CORN CROP,CORN CROP","0,0,0,0","20,20,20,20","10,10,10,10","20,20,20,20","20,20,20,20","20,20,20,20","0,0,0,0","20,20,20,20","10,10,10,10","20,20,20,20","20,20,20,20","20,20,20,20","0,1,1,1","47,916,2286,507","-10.826975769113664,38.07047236884185,34.866432908448964,10.391491641311083","21.41786955791805,17.635972113693978,-1.9333410222879799,8.724099721648802","1","0"
"653","86","text","0","135","1165386","0-0","","","","","","","","","","","","","","","","","","","","","","","","","","","","","","","","","","","","",""
"","","plant-game","0","136","1174643","0-0","","200","190","4","CORN CROP","Left","200","180","2","THISTLE WEED","experimental","55","1,2,3,4","190,196.0087733590629,181.1139167633987,199.7945327441235","4,3,2,1","CORN CROP,CORN CROP,CORN CROP,CORN CROP","180,168.39971997735853,180,221.3335648408465","2,1,2,1","THISTLE WEED,THISTLE WEED,NETTLE WEED,NETTLE WEED","20,20,20,20","20,20,20,20","10,10,10,10","20,20,20,20","0,0,0,0","20,20,20,20","20,20,20,20","20,20,20,20","10,10,10,10","20,20,20,20","0,0,0,0","20,20,20,20","1,1,0,1","1879,674,823,953","6.008773359062908,-14.894856595664212,18.68061598072482,-11.637719431576892","-11.600280022641485,15.684474007127388,41.33356484084649,0.5480040288717827","0","0"
"80","86","text","0","137","1174863","0-0","","","","","","","","","","","","","","","","","","","","","","","","","","","","","","","","","","","","",""
"","","plant-game","0","138","1184869","0-0","","200","190","2","WHEAT CROP","Left","200","180","2","NETTLE WEED","experimental","56","1,2","190,189.16365686749776","2,1","WHEAT CROP,WHEAT CROP","180,193.15793187574766","2,1","NETTLE WEED,NETTLE WEED","20,20","20,20","10,10","20,20","0,0","20,20","20,20","20,20","10,10","20,20","0,0","20,20","1,0","6444,201","-0.8363431325022225,40.348765619848834","13.157931875747654,15.041981761884653","0","0"
"161","86","text","0","139","1185180","0-0","","","","","","","","","","","","","","","","","","","","","","","","","","","","","","","","","","","","",""
"","","plant-game","0","140","1193626","0-0","","200","120","2","WHEAT CROP","Right","200","160","2","THISTLE WEED","experimental","57","1,2","160,180.25793639683354","2,1","THISTLE WEED,THISTLE WEED","120,130.1012432104435","2,1","WHEAT CROP,WHEAT CROP","0,0","20,20","10,10","20,20","20,20","20,20","0,0","20,20","10,10","20,20","20,20","20,20","1,1","342,147","20.257936396833536,46.347330087096715","10.101243210443505,23.75728592473637","0","0"
"530","86","text","0","141","1194386","0-0","","","","","","","","","","","","","","","","","","","","","","","","","","","","","","","","","","","","",""
"","","plant-game","0","142","1206906","0-0","","200","160","1","CORN CROP","Right","200","190","4","THISTLE WEED","experimental","58","1,2,3,4","190,196.50342588384518,188.84401824004794,142.8881883228774","4,3,2,1","THISTLE WEED,THISTLE WEED,THISTLE WEED,THISTLE WEED","160,170,164.63070093532258,179.51136090189576","1,3,2,1","CORN CROP,WHEAT CROP,WHEAT CROP,WHEAT CROP","0,0,0,0","20,20,20,20","10,10,10,10","20,20,20,20","20,20,20,20","20,20,20,20","0,0,0,0","20,20,20,20","10,10,10,10","20,20,20,20","20,20,20,20","20,20,20,20","1,0,0,0","3273,550,820,667","6.503425883845175,-7.659407643797238,-45.95582991717056,0.9898935487748806","-11.866228156831408,-5.369299064677414,14.880659966573164,-23.05384335211189","0","0"
"513","86","text","0","143","1207575","0-0","","","","","","","","","","","","","","","","","","","","","","","","","","","","","","","","","","","","",""
"","","plant-game","0","144","1230901","0-0","","200","120","2","CORN CROP","Right","200","160","8","NETTLE WEED","experimental","59","1,2,3,4,5,6,7,8","160,182.40070693327164,158.98980892338523,187.86115931557583,168.83995815172298,179.99187203523877,182.49988640646487,212.61190978506653","8,7,6,5,4,3,2,1","NETTLE WEED,NETTLE WEED,NETTLE WEED,NETTLE WEED,NETTLE WEED,NETTLE WEED,NETTLE WEED,NETTLE WEED","120,158.39386881540528,140,153.29784386178977,134.080186570675,133.5032223208815,115.19342463041028,163.17284493229732","2,1,6,5,4,3,2,1","CORN CROP,CORN CROP,WHEAT CROP,WHEAT CROP,WHEAT CROP,WHEAT CROP,WHEAT CROP,WHEAT CROP","0,0,0,0,0,0,0,0","20,20,20,20,20,20,20,20","10,10,10,10,10,10,10,10","20,20,20,20,20,20,20,20","20,20,20,20,20,20,20,20","20,20,20,20,20,20,20,20","0,0,0,0,0,0,0,0","20,20,20,20,20,20,20,20","10,10,10,10,10,10,10,10","20,20,20,20,20,20,20,20","20,20,20,20,20,20,20,20","20,20,20,20,20,20,20,20","1,0,1,0,1,0,1,0","996,385,2493,593,542,398,103,15","22.40070693327164,-23.410898009886402,28.87135039219062,-19.02120116385285,11.151913883515801,2.508014371226097,30.11202337860165,1.3661179415053168","38.39386881540529,7.50304700794791,13.29784386178977,-19.217657291114755,-0.5769642497935266,-18.309797690471214,47.97942030188704,29.490173672491963","0","0"
"375","86","text","0","145","1231496","0-0","","","","","","","","","","","","","","","","","","","","","","","","","","","","","","","","","","","","",""
"","","plant-game","0","146","1243980","0-0","","200","190","8","CORN CROP","Right","200","180","1","NETTLE WEED","experimental","60","1,2,3,4,5,6,7,8","180,130,130.217152197846,135.77430858292396,117.42005714467624,127.85652631813377,141.02707505082276,178.04827871497568","1,7,6,5,4,3,2,1","NETTLE WEED,THISTLE WEED,THISTLE WEED,THISTLE WEED,THISTLE WEED,THISTLE WEED,THISTLE WEED,THISTLE WEED","190,176.2154506391807,150.08148773649359,188.29897735335206,206.9457053591816,227.99630753352855,258.91427236789775,309.71033072842","8,7,6,5,4,3,2,1","CORN CROP,CORN CROP,CORN CROP,CORN CROP,CORN CROP,CORN CROP,CORN CROP,CORN CROP","0,0,0,0,0,0,0,0","20,20,20,20,20,20,20,20","10,10,10,10,10,10,10,10","20,20,20,20,20,20,20,20","20,20,20,20,20,20,20,20","20,20,20,20,20,20,20,20","0,0,0,0,0,0,0,0","20,20,20,20,20,20,20,20","10,10,10,10,10,10,10,10","20,20,20,20,20,20,20,20","20,20,20,20,20,20,20,20","20,20,20,20,20,20,20,20","0,0,1,0,1,1,1,1","1716,932,215,248,185,570,171,158","-25.248285373511187,0.21715219784600387,5.557156385077985,-18.354251438247736,10.43646917345754,13.170548732688978,37.02120366415292,39.88707412996462","-13.784549360819302,-26.133962902687106,38.21748961685847,18.64672800582956,21.05060217434695,30.917964834369172,50.79605836052224,2.7580861753872874","1","0"
"844","86","text","0","147","1245001","0-0","","","","","","","","","","","","","","","","","","","","","","","","","","","","","","","","","","","","",""
"","","plant-game","0","148","1255729","0-0","","200","190","1","CORN CROP","Left","200","190","4","THISTLE WEED","experimental","61","1,2,3,4","190,170,189.3292271820303,231.09940427229304","1,3,2,1","CORN CROP,WHEAT CROP,WHEAT CROP,WHEAT CROP","190,146.326329366054,196.77007023451844,203.3432016793195","4,3,2,1","THISTLE WEED,THISTLE WEED,THISTLE WEED,THISTLE WEED","20,20,20,20","20,20,20,20","10,10,10,10","20,20,20,20","0,0,0,0","20,20,20,20","20,20,20,20","20,20,20,20","10,10,10,10","20,20,20,20","0,0,0,0","20,20,20,20","1,0,1,1","515,520,620,2215","-39.5794981326381,19.3292271820303,41.77017709026275,-3.9127676967000733","-43.67367063394599,50.443740868464424,6.57313144480106,37.60965573588826","0","0"
"289","86","text","0","149","1256198","0-0","","","","","","","","","","","","","","","","","","","","","","","","","","","","","","","","","","","","",""
"","","plant-game","0","150","1274245","0-0","","200","120","4","CORN CROP","Right","200","120","2","NETTLE WEED","experimental","62","1,2,3,4","120,130.07027145703532,180,184.07546165846628","2,1,2,1","NETTLE WEED,NETTLE WEED,THISTLE WEED,THISTLE WEED","120,144.67320087253063,190.52537892392655,181.68823729204246","4,3,2,1","CORN CROP,CORN CROP,CORN CROP,CORN CROP","0,0,0,0","20,20,20,20","10,10,10,10","20,20,20,20","20,20,20,20","20,20,20,20","0,0,0,0","20,20,20,20","10,10,10,10","20,20,20,20","20,20,20,20","20,20,20,20","1,0,0,1","2688,4516,2245,2024","10.07027145703533,15.346334126852527,4.075461658466275,28.58793574557295","24.673200872530618,45.85217805139594,-8.837141631884082,15.193897880372415","6","0"
"397","86","text","0","151","1274842","0-0","","","","","","","","","","","","","","","","","","","","","","","","","","","","","","","","","","","","",""
"","","plant-game","0","152","1290803","0-0","","200","180","4","WHEAT CROP","Left","200","190","8","THISTLE WEED","experimental","63","1,2,3,4,5,6,7,8","180,159.81816917105448,170.93677150352397,150.32244471910772,160,167.23513913804115,229.66087406847083,236.38010483854097","4,3,2,1,4,3,2,1","WHEAT CROP,WHEAT CROP,WHEAT CROP,WHEAT CROP,CORN CROP,CORN CROP,CORN CROP,CORN CROP","190,192.4411910771042,213.99782823403112,224.80326329263096,200.38832499889864,220.36226717470072,264.04680096014386,275.108912858518","8,7,6,5,4,3,2,1","THISTLE WEED,THISTLE WEED,THISTLE WEED,THISTLE WEED,THISTLE WEED,THISTLE WEED,THISTLE WEED,THISTLE WEED","20,20,20,20,20,20,20,20","20,20,20,20,20,20,20,20","10,10,10,10,10,10,10,10","20,20,20,20,20,20,20,20","0,0,0,0,0,0,0,0","20,20,20,20,20,20,20,20","20,20,20,20,20,20,20,20","20,20,20,20,20,20,20,20","10,10,10,10,10,10,10,10","20,20,20,20,20,20,20,20","0,0,0,0,0,0,0,0","20,20,20,20,20,20,20,20","1,0,1,1,1,0,1,0","1808,676,600,1144,798,942,893,137","-20.181830828945515,11.118602332469482,-20.61432678441625,-12.73405409371023,7.235139138041142,62.42573493042969,6.7192307700701335,32.13888413013548","2.441191077104204,21.556637156926914,10.805435058599828,-24.41493829373231,19.97394217580207,43.684533785443165,11.062111898374145,29.933784429802262","0","0"
"509","86","text","0","153","1291472","0-0","","","","","","","","","","","","","","","","","","","","","","","","","","","","","","","","","","","","",""
"","","plant-game","0","154","1318668","0-0","","200","180","1","CORN CROP","Right","200","120","8","NETTLE WEED","experimental","64","1,2,3,4,5,6,7,8","120,118.52996252173857,140.47265639866828,109.98671881174687,135.0692260526675,152.08936488271877,152.557448648437,170.31059473622372","8,7,6,5,4,3,2,1","NETTLE WEED,NETTLE WEED,NETTLE WEED,NETTLE WEED,NETTLE WEED,NETTLE WEED,NETTLE WEED,NETTLE WEED","180,130,174.00048665196414,173.3710233744564,164.92737428574202,133.87062767003005,115.41762363934598,126.81954753155456","1,7,6,5,4,3,2,1","CORN CROP,WHEAT CROP,WHEAT CROP,WHEAT CROP,WHEAT CROP,WHEAT CROP,WHEAT CROP,WHEAT CROP","0,0,0,0,0,0,0,0","20,20,20,20,20,20,20,20","10,10,10,10,10,10,10,10","20,20,20,20,20,20,20,20","20,20,20,20,20,20,20,20","20,20,20,20,20,20,20,20","0,0,0,0,0,0,0,0","20,20,20,20,20,20,20,20","10,10,10,10,10,10,10,10","20,20,20,20,20,20,20,20","20,20,20,20,20,20,20,20","20,20,20,20,20,20,20,20","0,1,0,0,1,0,0,0","1274,447,3210,446,420,887,383,208","-1.4700374782614387,21.9426938769297,-30.485937586921402,25.082507240920613,17.02013883005129,0.4680837657182369,17.753146087786728,-8.235702157755899","1.252610022307907,44.00048665196415,-0.6294632775077265,-8.44364908871437,-31.05674661571196,-18.453004030684077,11.401923892208591,13.207981832285933","3","0"
"113","86","text","0","155","1318906","0-0","","","","","","","","","","","","","","","","","","","","","","","","","","","","","","","","","","","","",""
"","","plant-game","0","156","1323309","0-0","","200","160","2","CORN CROP","Right","200","180","2","THISTLE WEED","experimental","65","1,2","180,185.369596655495","2,1","THISTLE WEED,THISTLE WEED","160,162.4193295077213","2,1","CORN CROP,CORN CROP","0,0","20,20","10,10","20,20","20,20","20,20","0,0","20,20","10,10","20,20","20,20","20,20","0,1","1202,0","5.369596655495014,7.412680046902814","2.419329507721307,32.333151978464514","0","0"
"137","86","text","0","157","1323602","0-0","","","","","","","","","","","","","","","","","","","","","","","","","","","","","","","","","","","","",""
"","","plant-game","0","158","1346815","0-0","","200","190","8","CORN CROP","Right","200","160","8","THISTLE WEED","experimental","66","1,2,3,4,5,6,7,8","160,158.0467274165584,148.66344038329478,159.7827694696999,217.27202601700145,266.12051419393555,276.35240358740856,265.45245682922996","8,7,6,5,4,3,2,1","THISTLE WEED,THISTLE WEED,THISTLE WEED,THISTLE WEED,THISTLE WEED,THISTLE WEED,THISTLE WEED,THISTLE WEED","190,178.79460305245235,230.3080847626767,225.64271481273238,221.7515868101901,229.05377420882112,260.3743024273699,290.74317596227695","8,7,6,5,4,3,2,1","CORN CROP,CORN CROP,CORN CROP,CORN CROP,CORN CROP,CORN CROP,CORN CROP,CORN CROP","0,0,0,0,0,0,0,0","20,20,20,20,20,20,20,20","10,10,10,10,10,10,10,10","20,20,20,20,20,20,20,20","20,20,20,20,20,20,20,20","20,20,20,20,20,20,20,20","0,0,0,0,0,0,0,0","20,20,20,20,20,20,20,20","10,10,10,10,10,10,10,10","20,20,20,20,20,20,20,20","20,20,20,20,20,20,20,20","20,20,20,20,20,20,20,20","0,0,1,1,1,0,0,0","1114,223,16,530,344,32,342,255","-1.9532725834415865,-9.383287033263626,11.119329086405124,57.489256547301565,48.8484881769341,10.231889393473008,-10.899946758178602,32.335493399769526","-11.205396947547646,51.513481710224376,-4.665369949944335,-3.8911280025422847,7.302187398631009,31.32052821854877,30.36887353490701,-10.607463509466694","0","0"
"513","86","text","0","159","1347499","0-0","","","","","","","","","","","","","","","","","","","","","","","","","","","","","","","","","","","","",""
"","","plant-game","0","160","1352400","0-0","","200","190","1","WHEAT CROP","Right","200","120","1","THISTLE WEED","experimental","67","1","120","1","THISTLE WEED","190","1","WHEAT CROP","0","20","10","20","20","20","0","20","10","20","20","20","0","1625","-26.43818619471834","-9.27342527711143","0","0"
"427","86","text","0","161","1352968","0-0","","","","","","","","","","","","","","","","","","","","","","","","","","","","","","","","","","","","",""
"","","plant-game","0","162","1360457","0-0","","200","120","2","WHEAT CROP","Right","200","190","2","NETTLE WEED","experimental","68","1,2","190,228.71505911904063","2,1","NETTLE WEED,NETTLE WEED","120,173.22511413958455","2,1","WHEAT CROP,WHEAT CROP","0,0","20,20","10,10","20,20","20,20","20,20","0,0","20,20","10,10","20,20","20,20","20,20","1,1","314,501","38.71505911904063,6.390250385680925","53.225114139584555,11.906620085091387","0","0"
"136","86","text","0","163","1360733","0-0","","","","","","","","","","","","","","","","","","","","","","","","","","","","","","","","","","","","",""
"","","plant-game","0","164","1367993","0-0","","200","180","1","WHEAT CROP","Right","200","120","2","NETTLE WEED","experimental","69","1,2","120,122.34387171211222","2,1","NETTLE WEED,NETTLE WEED","180,190","1,1","WHEAT CROP,CORN CROP","0,0","20,20","10,10","20,20","20,20","20,20","0,0","20,20","10,10","20,20","20,20","20,20","0,0","1364,400","2.3438717121122203,29.528355846846054","11.930167880652247,-7.154992169158623","0","0"
"2164","86","text","0","165","1370327","0-0","","","","","","","","","","","","","","","","","","","","","","","","","","","","","","","","","","","","",""
"","","plant-game","0","166","1383596","0-0","","200","180","1","CORN CROP","Left","200","160","1","THISTLE WEED","experimental","70","1","180","1","CORN CROP","160","1","THISTLE WEED","20","20","10","20","0","20","20","20","10","20","0","20","1","1546","9.767392450566666","6.232735214285218","2","0"
"369","86","text","0","167","1384105","0-0","","","","","","","","","","","","","","","","","","","","","","","","","","","","","","","","","","","","",""
"","","plant-game","0","168","1395989","0-0","","200","160","1","CORN CROP","Right","200","120","8","THISTLE WEED","experimental","71","1,2,3,4,5,6,7,8","120,154.5433051704984,177.1121898016936,202.80316639229346,216.70215247697607,232.3262239800605,253.15180397988667,231.1900106221376","8,7,6,5,4,3,2,1","THISTLE WEED,THISTLE WEED,THISTLE WEED,THISTLE WEED,THISTLE WEED,THISTLE WEED,THISTLE WEED,THISTLE WEED","160,130,157.91950907934662,211.9252717943814,254.94546660635825,299.08773881477174,298.03397722273337,278.1223011712113","1,7,6,5,4,3,2,1","CORN CROP,WHEAT CROP,WHEAT CROP,WHEAT CROP,WHEAT CROP,WHEAT CROP,WHEAT CROP,WHEAT CROP","0,0,0,0,0,0,0,0","20,20,20,20,20,20,20,20","10,10,10,10,10,10,10,10","20,20,20,20,20,20,20,20","20,20,20,20,20,20,20,20","20,20,20,20,20,20,20,20","0,0,0,0,0,0,0,0","20,20,20,20,20,20,20,20","10,10,10,10,10,10,10,10","20,20,20,20,20,20,20,20","20,20,20,20,20,20,20,20","20,20,20,20,20,20,20,20","1,1,1,1,1,1,0,1","1220,1447,239,165,436,232,772,130","34.543305170498414,22.568884631195193,25.69097659059986,13.898986084682607,15.62407150308442,20.82557999982617,-21.961793357749055,9.76876859060281","-16.906905883880945,27.919509079346632,54.00576271503476,43.02019481197685,44.1422722084135,-1.0537615920383416,-19.91167605152207,2.8045970710818047","0","0"
"11869","86","text","0","169","1408076","0-0","","","","","","","","","","","","","","","","","","","","","","","","","","","","","","","","","","","","",""
"","","plant-game","0","170","1421557","0-0","","200","120","2","CORN CROP","Left","200","180","2","THISTLE WEED","experimental","72","1,2","120,131.73400322463493","2,1","CORN CROP,CORN CROP","180,157.51914682807663","2,1","THISTLE WEED,THISTLE WEED","20,20","20,20","10,10","20,20","0,0","20,20","20,20","20,20","10,10","20,20","0,0","20,20","1,1","10031,235","11.734003224634947,-3.93177720054438","-22.48085317192336,13.44681152890082","0","0"
"1966","86","text","0","171","1423726","0-0","","","","","","","","","","","","","","","","","","","","","","","","","","","","","","","","","","","","",""
"","","plant-game","0","172","1438856","0-0","","200","180","8","CORN CROP","Right","200","190","1","NETTLE WEED","experimental","73","1,2,3,4,5,6,7,8","190,130,127.95712044416717,143.07682573191408,190.19178518922075,201.78289558501416,247.34331728238905,253.09890330691255","1,7,6,5,4,3,2,1","NETTLE WEED,THISTLE WEED,THISTLE WEED,THISTLE WEED,THISTLE WEED,THISTLE WEED,THISTLE WEED,THISTLE WEED","180,198.58760313561223,213.26403033215786,240.281147540359,242.0448939872303,243.97767487124122,240.85571083788935,291.5096502554686","8,7,6,5,4,3,2,1","CORN CROP,CORN CROP,CORN CROP,CORN CROP,CORN CROP,CORN CROP,CORN CROP,CORN CROP","0,0,0,0,0,0,0,0","20,20,20,20,20,20,20,20","10,10,10,10,10,10,10,10","20,20,20,20,20,20,20,20","20,20,20,20,20,20,20,20","20,20,20,20,20,20,20,20","0,0,0,0,0,0,0,0","20,20,20,20,20,20,20,20","10,10,10,10,10,10,10,10","20,20,20,20,20,20,20,20","20,20,20,20,20,20,20,20","20,20,20,20,20,20,20,20","0,0,1,0,1,1,1,1","2150,848,1184,813,858,1531,209,199","-20.940137430591772,-2.042879555832832,15.11970528774691,47.114959457306675,11.591110395793407,45.5604216973749,5.755586024523488,25.238239060932024","18.58760313561222,14.676427196545628,27.01711720820115,1.7637464468712918,1.9327808840109348,-3.1219640333518726,50.65393941757926,29.183004303618013","0","0"
"877","86","text","0","173","1439873","0-0","","","","","","","","","","","","","","","","","","","","","","","","","","","","","","","","","","","","",""
"","","plant-game","0","174","1449489","0-0","","200","180","2","CORN CROP","Left","200","190","8","THISTLE WEED","experimental","74","1,2,3,4,5,6,7,8","180,186.81306392257923,140,161.48250941101844,127.39528014246355,142.1701562336585,118.28200707417983,133.6865947699945","2,1,6,5,4,3,2,1","CORN CROP,CORN CROP,WHEAT CROP,WHEAT CROP,WHEAT CROP,WHEAT CROP,WHEAT CROP,WHEAT CROP","190,238.78131525641376,230.062748863959,241.90818519629423,255.81348969426108,304.58415972535533,296.5120501094269,295.6092358644541","8,7,6,5,4,3,2,1","THISTLE WEED,THISTLE WEED,THISTLE WEED,THISTLE WEED,THISTLE WEED,THISTLE WEED,THISTLE WEED,THISTLE WEED","20,20,20,20,20,20,20,20","20,20,20,20,20,20,20,20","10,10,10,10,10,10,10,10","20,20,20,20,20,20,20,20","0,0,0,0,0,0,0,0","20,20,20,20,20,20,20,20","20,20,20,20,20,20,20,20","20,20,20,20,20,20,20,20","10,10,10,10,10,10,10,10","20,20,20,20,20,20,20,20","0,0,0,0,0,0,0,0","20,20,20,20,20,20,20,20","0,1,0,1,0,1,0,1","496,32,895,333,249,25,326,1100","6.813063922579236,11.977884761438371,21.48250941101843,-34.08722926855489,14.774876091194962,-23.88814915947867,15.404587695814676,-9.227215921192611","48.78131525641376,-8.718566392454768,11.845436332335238,13.905304497966855,48.77067003109423,-8.07210961592843,-0.9028142449728307,-7.932984067340549","0","0"
"525","86","text","0","175","1450144","0-0","","","","","","","","","","","","","","","","","","","","","","","","","","","","","","","","","","","","",""
"","","plant-game","0","176","1460194","0-0","","200","120","2","WHEAT CROP","Left","200","180","1","THISTLE WEED","experimental","75","1,2","120,129.84164848960052","2,1","WHEAT CROP,WHEAT CROP","180,190","1,1","THISTLE WEED,NETTLE WEED","20,20","20,20","10,10","20,20","0,0","20,20","20,20","20,20","10,10","20,20","0,0","20,20","1,1","1468,1054","9.841648489600505,-19.757506351220183","-18.612316611986877,20.99706496120731","0","0"
"810","86","text","0","177","1461134","0-0","","","","","","","","","","","","","","","","","","","","","","","","","","","","","","","","","","","","",""
"","","plant-game","0","178","1470849","0-0","","200","180","1","CORN CROP","Left","200","180","2","NETTLE WEED","experimental","76","1,2","180,190","1,1","CORN CROP,WHEAT CROP","180,208.63227462452411","2,1","NETTLE WEED,NETTLE WEED","20,20","20,20","10,10","20,20","0,0","20,20","20,20","20,20","10,10","20,20","0,0","20,20","0,0","809,1836","57.7236739414479,42.28208085844932","28.632274624524122,27.14968250080766","0","0"
"688","86","text","0","179","1471667","0-0","","","","","","","","","","","","","","","","","","","","","","","","","","","","","","","","","","","","",""
"","","plant-game","0","180","1486837","0-0","","200","180","1","WHEAT CROP","Left","200","180","8","NETTLE WEED","experimental","77","1,2,3,4,5,6,7,8","180,130,159.65271849065448,144.47285668483073,141.52167871188706,147.0363402880794,131.33780149421062,113.46578805245402","1,7,6,5,4,3,2,1","WHEAT CROP,CORN CROP,CORN CROP,CORN CROP,CORN CROP,CORN CROP,CORN CROP,CORN CROP","180,205.04531672770977,188.49568723984424,186.9332451766703,188.4125248945708,164.4910231313439,135.3381262165337,132.2416148537796","8,7,6,5,4,3,2,1","NETTLE WEED,NETTLE WEED,NETTLE WEED,NETTLE WEED,NETTLE WEED,NETTLE WEED,NETTLE WEED,NETTLE WEED","20,20,20,20,20,20,20,20","20,20,20,20,20,20,20,20","10,10,10,10,10,10,10,10","20,20,20,20,20,20,20,20","0,0,0,0,0,0,0,0","20,20,20,20,20,20,20,20","20,20,20,20,20,20,20,20","20,20,20,20,20,20,20,20","10,10,10,10,10,10,10,10","20,20,20,20,20,20,20,20","0,0,0,0,0,0,0,0","20,20,20,20,20,20,20,20","0,1,1,1,1,1,1,1","1534,2140,2261,349,433,822,154,728","26.668331749151946,29.652718490654472,-15.179861805823737,-2.9511779729436687,5.5146615761923385,-15.698538793868783,-17.872013441756607,12.785645951828892","25.045316727709785,-16.549629487865523,-1.5624420631739275,1.479279717900469,-23.921501763226892,-29.152896914810196,-3.09651136275411,42.93718570653124","0","0"
"94","86","text","0","181","1487071","0-0","","","","","","","","","","","","","","","","","","","","","","","","","","","","","","","","","","","","",""
"","","plant-game","0","182","1503035","0-0","","200","120","8","CORN CROP","Left","200","160","1","NETTLE WEED","experimental","78","1,2,3,4,5,6,7,8","120,149.64605378817214,152.66928838992646,179.86369974366784,213.47927902345788,209.68505572876776,217.6088894659829,201.8021727277406","8,7,6,5,4,3,2,1","CORN CROP,CORN CROP,CORN CROP,CORN CROP,CORN CROP,CORN CROP,CORN CROP,CORN CROP","160,130,173.24518637636083,182.87708719135202,180.1644808363265,163.42748632918565,172.83529251370183,178.42662433320922","1,7,6,5,4,3,2,1","NETTLE WEED,THISTLE WEED,THISTLE WEED,THISTLE WEED,THISTLE WEED,THISTLE WEED,THISTLE WEED,THISTLE WEED","20,20,20,20,20,20,20,20","20,20,20,20,20,20,20,20","10,10,10,10,10,10,10,10","20,20,20,20,20,20,20,20","0,0,0,0,0,0,0,0","20,20,20,20,20,20,20,20","20,20,20,20,20,20,20,20","20,20,20,20,20,20,20,20","10,10,10,10,10,10,10,10","20,20,20,20,20,20,20,20","0,0,0,0,0,0,0,0","20,20,20,20,20,20,20,20","0,0,1,0,1,1,1,1","990,1074,467,486,4202,655,686,428","29.646053788172125,3.0232346017543286,27.19441135374137,33.61557927979003,-3.7942232946901044,7.923833737215156,-15.806716738242297,2.6285271383100013","-7.764467619604261,43.24518637636082,9.631900814991187,-2.7126063550255175,-16.73699450714085,9.407806184516186,5.59133181950738,-32.33684093323133","0","0"
"553","86","text","0","183","1503748","0-0","","","","","","","","","","","","","","","","","","","","","","","","","","","","","","","","","","","","",""
"","","plant-game","0","184","1522984","0-0","","200","120","2","WHEAT CROP","Right","200","120","1","NETTLE WEED","experimental","79","1,2","120,190","1,1","NETTLE WEED,THISTLE WEED","120,99.67176556300038","2,1","WHEAT CROP,WHEAT CROP","0,0","20,20","10,10","20,20","20,20","20,20","0,0","20,20","10,10","20,20","20,20","20,20","0,1","15540,35","-23.765342199783728,65.4421028321432","-20.328234436999626,-4.37646664500674","1","0"
"67","86","text","0","185","1523191","0-0","","","","","","","","","","","","","","","","","","","","","","","","","","","","","","","","","","","","",""
"","","plant-game","0","186","1529537","0-0","","200","160","8","WHEAT CROP","Left","200","160","8","NETTLE WEED","experimental","80","1,2,3,4,5,6,7,8","160,172.86808006303409,201.02645076352624,216.83827227211165,229.15451727712457,209.266290895949,246.14051270137404,251.13668587759338","8,7,6,5,4,3,2,1","WHEAT CROP,WHEAT CROP,WHEAT CROP,WHEAT CROP,WHEAT CROP,WHEAT CROP,WHEAT CROP,WHEAT CROP","160,196.5397768758173,182.525029057561,172.65003031919406,191.31067653592302,223.69766511018398,227.2187725088374,245.41423527875222","8,7,6,5,4,3,2,1","NETTLE WEED,NETTLE WEED,NETTLE WEED,NETTLE WEED,NETTLE WEED,NETTLE WEED,NETTLE WEED,NETTLE WEED","20,20,20,20,20,20,20,20","20,20,20,20,20,20,20,20","10,10,10,10,10,10,10,10","20,20,20,20,20,20,20,20","0,0,0,0,0,0,0,0","20,20,20,20,20,20,20,20","20,20,20,20,20,20,20,20","20,20,20,20,20,20,20,20","10,10,10,10,10,10,10,10","20,20,20,20,20,20,20,20","0,0,0,0,0,0,0,0","20,20,20,20,20,20,20,20","0,0,1,0,1,0,0,1","176,450,192,145,287,207,562,291","12.868080063034075,28.158370700492153,15.811821508585414,12.31624500501293,-19.888226381175574,36.874221805425044,4.996173176219356,15.492059398932616","36.539776875817296,-14.014747818256303,-9.874998738366934,18.660646216728974,32.38698857426095,3.521107398653413,18.195462769914823,-33.67088864195252","0","0"
"13532","86","text","0","187","1543209","0-0","","","","","","","","","","","","","","","","","","","","","","","","","","","","","","","","","","","","",""
"","","plant-game","0","188","1556361","0-0","","200","120","8","WHEAT CROP","Left","200","190","1","NETTLE WEED","experimental","81","1,2,3,4,5,6,7,8","120,129.73405173661703,131.6096278002686,164.4085013407726,191.56346394857775,206.9071068406596,233.5388213491995,248.2125635031138","8,7,6,5,4,3,2,1","WHEAT CROP,WHEAT CROP,WHEAT CROP,WHEAT CROP,WHEAT CROP,WHEAT CROP,WHEAT CROP,WHEAT CROP","190,130,121.71501086560954,143.8973251447328,168.97735315221996,186.65872895387832,190.55688410873557,212.26320717683865","1,7,6,5,4,3,2,1","NETTLE WEED,THISTLE WEED,THISTLE WEED,THISTLE WEED,THISTLE WEED,THISTLE WEED,THISTLE WEED,THISTLE WEED","20,20,20,20,20,20,20,20","20,20,20,20,20,20,20,20","10,10,10,10,10,10,10,10","20,20,20,20,20,20,20,20","0,0,0,0,0,0,0,0","20,20,20,20,20,20,20,20","20,20,20,20,20,20,20,20","20,20,20,20,20,20,20,20","10,10,10,10,10,10,10,10","20,20,20,20,20,20,20,20","0,0,0,0,0,0,0,0","20,20,20,20,20,20,20,20","0,1,0,1,0,0,0,1","1038,531,428,303,366,1017,416,601","9.734051736617037,1.875576063651574,32.79887354050398,27.154962607805135,15.343642892081839,26.631714508539922,14.673742153914318,17.488375792666137","14.218032871098156,-8.284989134390454,22.182314279123258,25.080028007487147,17.681375801658348,3.8981551548572604,21.70632306810309,12.813737994268049","0","0"
"746","86","text","0","189","1557224","0-0","","","","","","","","","","","","","","","","","","","","","","","","","","","","","","","","","","","","",""
"","","plant-game","0","190","1566360","0-0","","200","190","4","CORN CROP","Right","200","180","1","THISTLE WEED","experimental","82","1,2,3,4","180,170,149.56661334674757,156.4490655183871","1,3,2,1","THISTLE WEED,NETTLE WEED,NETTLE WEED,NETTLE WEED","190,181.63667001368816,172.22203615989582,192.16284663359957","4,3,2,1","CORN CROP,CORN CROP,CORN CROP,CORN CROP","0,0,0,0","20,20,20,20","10,10,10,10","20,20,20,20","20,20,20,20","20,20,20,20","0,0,0,0","20,20,20,20","10,10,10,10","20,20,20,20","20,20,20,20","20,20,20,20","0,0,1,0","1831,961,466,588","8.806331301706866,-20.43338665325242,6.882452171639539,7.4834351073648255","-8.363329986311825,-9.41463385379235,19.94081047370374,41.83017753000588","0","0"
"387","86","text","0","191","1566857","0-0","","","","","","","","","","","","","","","","","","","","","","","","","","","","","","","","","","","","",""
