"rt","key_press","trial_type","trial_index","trial_index_global","time_elapsed","internal_chunk_id","responses","experimental_goal_height","experimental_start_height","experimental_weeks_total","experimental_crop_type","experimental_crop_side","fixed_goal_height","fixed_start_height","fixed_weeks_total","fixed_crop_type","trial_kind","trial_number","stage","left_current_height","left_weeks_remaining","left_crop_type","right_current_height","right_weeks_remaining","right_crop_type","mean_left_growth_given_left","sd_left_growth_given_left","mean_left_growth_given_middle","sd_left_growth_given_middle","mean_left_growth_given_right","sd_left_growth_given_right","mean_right_growth_given_left","sd_right_growth_given_left","mean_right_growth_given_middle","sd_right_growth_given_middle","mean_right_growth_given_right","sd_right_growth_given_right","response","response_time","left_growth","right_growth","other_key_pressed","mouse_clicked"
"3641164","77","text","0","0","3641275","0-0","","","","","","","","","","","","","","","","","","","","","","","","","","","","","","","","","","","","",""
"5141","","survey-text","0","1","3647442","0-0","{""Q0"":""17""}","","","","","","","","","","","","","","","","","","","","","","","","","","","","","","","","","","","",""
"4787","86","text","0","2","4865","0-0","","","","","","","","","","","","","","","","","","","","","","","","","","","","","","","","","","","","",""
"","","plant-game","0","3","70384","0-0","","200","120","8","CORN CROP","Right","200","120","8","NETTLE WEED","practice","1","1,2,3,4,5,6,7,8","120,105.10390341531229,71.90001319268816,114.03784442895038,146.53335549403283,165.44714255296742,135.94139308321184,117.57182787425285","8,7,6,5,4,3,2,1","NETTLE WEED,NETTLE WEED,NETTLE WEED,NETTLE WEED,NETTLE WEED,NETTLE WEED,NETTLE WEED,NETTLE WEED","120,116.75216293500515,63.00791793900979,77.68561258223266,121.5742318211924,163.02423202765266,146.48705330203708,150.8983144390015","8,7,6,5,4,3,2,1","CORN CROP,CORN CROP,CORN CROP,CORN CROP,CORN CROP,CORN CROP,CORN CROP,CORN CROP","0,0,0,0,0,0,0,0","20,20,20,20,20,20,20,20","10,10,10,10,10,10,10,10","20,20,20,20,20,20,20,20","20,20,20,20,20,20,20,20","20,20,20,20,20,20,20,20","0,0,0,0,0,0,0,0","20,20,20,20,20,20,20,20","10,10,10,10,10,10,10,10","20,20,20,20,20,20,20,20","20,20,20,20,20,20,20,20","20,20,20,20,20,20,20,20","0,0,1,1,1,0,1,1","8691,2422,2585,3449,6010,5689,2566,1889","-14.896096584687712,-33.203890222624125,42.137831236262215,32.495511065082454,18.913787058934584,-29.505749469755592,-18.369565208958996,32.60687340410154","-3.247837064994858,-53.74424499599535,14.677694643222878,43.888619238959734,41.450000206460274,-16.537178725615583,4.411261136964422,-18.58815795603641","0","0"
"995","86","text","0","4","71488","0-0","","","","","","","","","","","","","","","","","","","","","","","","","","","","","","","","","","","","",""
"","","plant-game","0","5","111248","0-0","","200","160","4","CORN CROP","Left","200","160","4","NETTLE WEED","practice","2","1,2,3,4","160,147.77657276452868,155.86640258683485,136.63674005296647","4,3,2,1","CORN CROP,CORN CROP,CORN CROP,CORN CROP","160,162.06102897681538,180.4294347523907,193.2660781203189","4,3,2,1","NETTLE WEED,NETTLE WEED,NETTLE WEED,NETTLE WEED","20,20,20,20","20,20,20,20","10,10,10,10","20,20,20,20","0,0,0,0","20,20,20,20","20,20,20,20","20,20,20,20","10,10,10,10","20,20,20,20","0,0,0,0","20,20,20,20","0,0,1,1","9364,1790,4463,2624","-12.223427235471306,8.08982982230616,-19.229662533868385,0.22315049993637986","2.061028976815372,18.36840577557532,12.836643367928195,-1.293914315784122","0","0"
"772","86","text","0","6","112176","0-0","","","","","","","","","","","","","","","","","","","","","","","","","","","","","","","","","","","","",""
"","","plant-game","0","7","149257","0-0","","200","180","2","CORN CROP","Left","200","180","2","NETTLE WEED","practice","3","1,2","180,215.13306098905554","2,1","CORN CROP,CORN CROP","180,151.71625643954255","2,1","NETTLE WEED,NETTLE WEED","20,20","20,20","10,10","20,20","0,0","20,20","20,20","20,20","10,10","20,20","0,0","20,20","1,0","15049,4593","35.13306098905555,34.13737456031277","-28.283743560457463,22.14087434839789","0","0"
"1157","86","text","0","8","150564","0-0","","","","","","","","","","","","","","","","","","","","","","","","","","","","","","","","","","","","",""
"","","plant-game","0","9","173875","0-0","","200","190","1","CORN CROP","Left","200","190","1","THISTLE WEED","practice","4","1","190","1","CORN CROP","190","1","THISTLE WEED","20","20","10","20","0","20","20","20","10","20","0","20","1","4444","8.680407594542643","-3.4100289868155182","0","0"
"531","86","text","0","10","174578","0-0","","","","","","","","","","","","","","","","","","","","","","","","","","","","","","","","","","","","",""
"","","plant-game","0","11","209994","0-0","","200","120","8","CORN CROP","Right","200","160","8","NETTLE WEED","practice","5","1,2,3,4,5,6,7,8","160,155.10111902777757,201.8878970270028,202.32944634451147,245.71720198340938,255.5690780220779,291.8659316524015,329.3734058385772","8,7,6,5,4,3,2,1","NETTLE WEED,NETTLE WEED,NETTLE WEED,NETTLE WEED,NETTLE WEED,NETTLE WEED,NETTLE WEED,NETTLE WEED","120,135.0413372619911,167.62937453901975,172.07160537540693,240.5825136325776,264.99407854340546,277.5490796736901,258.4691070018412","8,7,6,5,4,3,2,1","CORN CROP,CORN CROP,CORN CROP,CORN CROP,CORN CROP,CORN CROP,CORN CROP,CORN CROP","0,0,0,0,0,0,0,0","20,20,20,20,20,20,20,20","10,10,10,10,10,10,10,10","20,20,20,20,20,20,20,20","20,20,20,20,20,20,20,20","20,20,20,20,20,20,20,20","0,0,0,0,0,0,0,0","20,20,20,20,20,20,20,20","10,10,10,10,10,10,10,10","20,20,20,20,20,20,20,20","20,20,20,20,20,20,20,20","20,20,20,20,20,20,20,20","1,1,1,1,0,0,0,0","3193,682,6587,1474,1243,1038,2100,1661","-4.898880972222422,46.78677799922521,0.44154931750867377,43.3877556388979,9.851876038668511,36.29685363032364,37.507474186175656,-4.866051005190732","15.041337261991096,32.588037277028675,4.442230836387191,68.51090825717066,24.411564910827863,12.555001130284628,-19.07997267184883,11.01749476901832","0","0"
"1238","86","text","0","12","211322","0-0","","","","","","","","","","","","","","","","","","","","","","","","","","","","","","","","","","","","",""
"","","plant-game","0","13","235274","0-0","","200","180","4","WHEAT CROP","Left","200","160","4","NETTLE WEED","practice","6","1,2,3,4","180,206.83262475291127,195.14327726946883,196.54497686633653","4,3,2,1","WHEAT CROP,WHEAT CROP,WHEAT CROP,WHEAT CROP","160,174.7645602078645,163.1142446439,186.1027852018205","4,3,2,1","NETTLE WEED,NETTLE WEED,NETTLE WEED,NETTLE WEED","20,20,20,20","20,20,20,20","10,10,10,10","20,20,20,20","0,0,0,0","20,20,20,20","20,20,20,20","20,20,20,20","10,10,10,10","20,20,20,20","0,0,0,0","20,20,20,20","0,1,0,0","4305,2677,771,768","26.83262475291128,-11.689347483442434,1.4016995968677115,25.63801849020831","14.764560207864486,-11.650315563964478,22.988540557920473,11.338086492524294","0","0"
"710","86","text","0","14","236104","0-0","","","","","","","","","","","","","","","","","","","","","","","","","","","","","","","","","","","","",""
"","","plant-game","0","15","267238","0-0","","200","180","2","CORN CROP","Right","200","190","2","THISTLE WEED","practice","7","1,2","190,198.1073595865132","2,1","THISTLE WEED,THISTLE WEED","180,175.95246165583876","2,1","CORN CROP,CORN CROP","0,0","20,20","10,10","20,20","20,20","20,20","0,0","20,20","10,10","20,20","20,20","20,20","1,0","11124,2417","8.10735958651322,4.724816528530776","-4.047538344161232,-11.672469492046618","0","0"
"803","86","text","0","16","268201","0-0","","","","","","","","","","","","","","","","","","","","","","","","","","","","","","","","","","","","",""
"","","plant-game","0","17","318429","0-0","","200","120","4","WHEAT CROP","Left","200","120","8","NETTLE WEED","practice","8","1,2,3,4,5,6,7,8","120,142.5826577158137,167.0867835924655,209.50817772747433,160,203.48058360501574,177.33435906593238,176.82118132311822","4,3,2,1,4,3,2,1","WHEAT CROP,WHEAT CROP,WHEAT CROP,WHEAT CROP,CORN CROP,CORN CROP,CORN CROP,CORN CROP","120,123.82258982175291,121.33156884518266,149.20845662440797,173.1049841109676,223.71765506250176,230.15099337072334,217.97308696504058","8,7,6,5,4,3,2,1","NETTLE WEED,NETTLE WEED,NETTLE WEED,NETTLE WEED,NETTLE WEED,NETTLE WEED,NETTLE WEED,NETTLE WEED","20,20,20,20,20,20,20,20","20,20,20,20,20,20,20,20","10,10,10,10,10,10,10,10","20,20,20,20,20,20,20,20","0,0,0,0,0,0,0,0","20,20,20,20,20,20,20,20","20,20,20,20,20,20,20,20","20,20,20,20,20,20,20,20","10,10,10,10,10,10,10,10","20,20,20,20,20,20,20,20","0,0,0,0,0,0,0,0","20,20,20,20,20,20,20,20","0,0,0,0,0,1,1,0","5142,443,437,3402,4871,2493,900,1632","22.582657715813703,24.50412587665182,42.42139413500884,18.030581848340322,43.48058360501575,-26.14622453908336,-0.5131777428141447,18.959450532760357","3.82258982175291,-2.4910209765702476,27.876887779225328,23.89652748655962,50.612670951534184,6.433338308221589,-12.177906405682762,30.75326981164927","0","0"
"893","86","text","0","18","319482","0-0","","","","","","","","","","","","","","","","","","","","","","","","","","","","","","","","","","","","",""
"","","plant-game","0","19","347989","0-0","","200","160","4","CORN CROP","Left","200","160","2","NETTLE WEED","practice","9","1,2,3,4","160,180.93136703434172,155.8931255003693,182.53168374169502","4,3,2,1","CORN CROP,CORN CROP,CORN CROP,CORN CROP","160,174.84026231409487,180,186.98781140969677","2,1,2,1","NETTLE WEED,NETTLE WEED,THISTLE WEED,THISTLE WEED","20,20,20,20","20,20,20,20","10,10,10,10","20,20,20,20","0,0,0,0","20,20,20,20","20,20,20,20","20,20,20,20","10,10,10,10","20,20,20,20","0,0,0,0","20,20,20,20","0,0,1,1","2348,2630,6231,1082","20.931367034341708,-25.03824153397241,26.638558241325722,-35.63292611815681","14.840262314094883,6.430989938230468,6.987811409696764,-3.9275866581302594","0","0"
"627","86","text","0","20","348740","0-0","","","","","","","","","","","","","","","","","","","","","","","","","","","","","","","","","","","","",""
"","","plant-game","0","21","378946","0-0","","200","180","2","WHEAT CROP","Right","200","180","1","THISTLE WEED","practice","10","1,2","180,190","1,1","THISTLE WEED,NETTLE WEED","180,169.33934924280308","2,1","WHEAT CROP,WHEAT CROP","0,0","20,20","10,10","20,20","20,20","20,20","0,0","20,20","10,10","20,20","20,20","20,20","0,0","2222,5523","-23.723828733802375,-7.979506660656574","-10.66065075719692,24.22954348008406","0","0"
"693","86","text","0","22","379778","0-0","","","","","","","","","","","","","","","","","","","","","","","","","","","","","","","","","","","","",""
"","","plant-game","0","23","419296","0-0","","200","120","8","WHEAT CROP","Left","200","160","4","THISTLE WEED","practice","11","1,2,3,4,5,6,7,8","120,167.6780201290511,220.7591170625641,229.78435520125677,234.02509928251803,230.8411711092492,220.35071351582604,224.77923693958508","8,7,6,5,4,3,2,1","WHEAT CROP,WHEAT CROP,WHEAT CROP,WHEAT CROP,WHEAT CROP,WHEAT CROP,WHEAT CROP,WHEAT CROP","160,167.61557098491116,193.5376961531626,211.72512191046462,160,184.41926885841946,182.40645952915042,190.97603039481618","4,3,2,1,4,3,2,1","THISTLE WEED,THISTLE WEED,THISTLE WEED,THISTLE WEED,NETTLE WEED,NETTLE WEED,NETTLE WEED,NETTLE WEED","20,20,20,20,20,20,20,20","20,20,20,20,20,20,20,20","10,10,10,10,10,10,10,10","20,20,20,20,20,20,20,20","0,0,0,0,0,0,0,0","20,20,20,20,20,20,20,20","20,20,20,20,20,20,20,20","20,20,20,20,20,20,20,20","10,10,10,10,10,10,10,10","20,20,20,20,20,20,20,20","0,0,0,0,0,0,0,0","20,20,20,20,20,20,20,20","0,0,1,1,1,1,1,1","9330,3238,1663,2082,1769,1044,1013,859","47.678020129051106,53.081096933512995,9.025238138692695,4.240744081261243,-3.1839281732688463,-10.49045759342313,4.428523423759031,0.41398039992409064","7.615570984911166,25.92212516825146,18.187425757301995,-7.144480186453595,24.41926885841945,-2.012809329269036,8.569570865665764,-44.807105726979124","0","0"
"625","86","text","0","24","420031","0-0","","","","","","","","","","","","","","","","","","","","","","","","","","","","","","","","","","","","",""
"","","plant-game","0","25","453488","0-0","","200","180","2","CORN CROP","Right","200","160","4","NETTLE WEED","practice","12","1,2,3,4","160,201.2620170748174,224.85292885019567,197.41817859974","4,3,2,1","NETTLE WEED,NETTLE WEED,NETTLE WEED,NETTLE WEED","180,186.95635032104326,180,231.9873110859204","2,1,2,1","CORN CROP,CORN CROP,WHEAT CROP,WHEAT CROP","0,0,0,0","20,20,20,20","10,10,10,10","20,20,20,20","20,20,20,20","20,20,20,20","0,0,0,0","20,20,20,20","10,10,10,10","20,20,20,20","20,20,20,20","20,20,20,20","1,1,1,0","2441,1308,11383,1739","41.2620170748174,23.590911775378274,-27.434750250455664,33.9581632591195","6.956350321043255,14.758258605722782,51.9873110859204,14.826606654106376","0","0"
"2382","86","text","0","26","455980","0-0","","","","","","","","","","","","","","","","","","","","","","","","","","","","","","","","","","","","",""
"15851","86","text","0","27","472979","0-0","","","","","","","","","","","","","","","","","","","","","","","","","","","","","","","","","","","","",""
"","","plant-game","0","28","510836","0-0","","200","160","4","WHEAT CROP","Right","200","120","8","THISTLE WEED","experimental","1","1,2,3,4,5,6,7,8","120,149.73168003439488,161.14177321809635,137.14588988809757,171.83500463331703,152.93098176189173,174.52747686315226,167.59839492603894","8,7,6,5,4,3,2,1","THISTLE WEED,THISTLE WEED,THISTLE WEED,THISTLE WEED,THISTLE WEED,THISTLE WEED,THISTLE WEED,THISTLE WEED","160,225.8521413488547,210.0973610756809,206.24318537343362,160,180.67069505419786,212.62608238525672,213.73967755775612","4,3,2,1,4,3,2,1","WHEAT CROP,WHEAT CROP,WHEAT CROP,WHEAT CROP,CORN CROP,CORN CROP,CORN CROP,CORN CROP","0,0,0,0,0,0,0,0","20,20,20,20,20,20,20,20","10,10,10,10,10,10,10,10","20,20,20,20,20,20,20,20","20,20,20,20,20,20,20,20","20,20,20,20,20,20,20,20","0,0,0,0,0,0,0,0","20,20,20,20,20,20,20,20","10,10,10,10,10,10,10,10","20,20,20,20,20,20,20,20","20,20,20,20,20,20,20,20","20,20,20,20,20,20,20,20","1,0,0,1,1,1,0,1","8839,2308,1859,2232,8476,1144,2359,2876","29.731680034394877,11.410093183701457,-23.995883329998765,34.689114745219456,-18.904022871425298,21.59649510126052,-6.929081937113325,48.7841187286029","65.8521413488547,-15.754780273173786,-3.8541757022473,15.20522834794495,20.670695054197854,31.95538733105885,1.1135951724993955,10.871409583193909","0","0"
"656","86","text","0","29","511645","0-0","","","","","","","","","","","","","","","","","","","","","","","","","","","","","","","","","","","","",""
"","","plant-game","0","30","538696","0-0","","200","190","4","CORN CROP","Left","200","120","2","THISTLE WEED","experimental","2","1,2,3,4","190,215.81992965395156,177.54197356535477,171.75550191996763","4,3,2,1","CORN CROP,CORN CROP,CORN CROP,CORN CROP","120,177.46454969085693,180,211.46997398884824","2,1,2,1","THISTLE WEED,THISTLE WEED,NETTLE WEED,NETTLE WEED","20,20,20,20","20,20,20,20","10,10,10,10","20,20,20,20","0,0,0,0","20,20,20,20","20,20,20,20","20,20,20,20","10,10,10,10","20,20,20,20","0,0,0,0","20,20,20,20","0,1,0,0","8534,3415,4035,3683","25.819929653951554,-38.2779560885968,-5.786471645387131,-9.342109983807582","57.46454969085691,-16.814476904419692,31.469973988848245,20.350466424183022","0","0"
"463","86","text","0","31","539299","0-0","","","","","","","","","","","","","","","","","","","","","","","","","","","","","","","","","","","","",""
"","","plant-game","0","32","561025","0-0","","200","190","4","WHEAT CROP","Right","200","190","4","NETTLE WEED","experimental","3","1,2,3,4","190,233.85804921392244,247.31258746603092,278.5979466811835","4,3,2,1","NETTLE WEED,NETTLE WEED,NETTLE WEED,NETTLE WEED","190,204.2086454663221,274.10593638419124,293.18611421046603","4,3,2,1","WHEAT CROP,WHEAT CROP,WHEAT CROP,WHEAT CROP","0,0,0,0","20,20,20,20","10,10,10,10","20,20,20,20","20,20,20,20","20,20,20,20","0,0,0,0","20,20,20,20","10,10,10,10","20,20,20,20","20,20,20,20","20,20,20,20","1,1,1,0","10714,1321,2109,2074","43.85804921392244,13.454538252108467,31.285359215152553,7.79717533040202","14.2086454663221,69.89729091786913,19.080177826274802,-8.010815398871813","0","0"
"531","86","text","0","33","561696","0-0","","","","","","","","","","","","","","","","","","","","","","","","","","","","","","","","","","","","",""
"","","plant-game","0","34","586870","0-0","","200","180","2","CORN CROP","Left","200","180","2","NETTLE WEED","experimental","4","1,2","180,185.0292227267786","2,1","CORN CROP,CORN CROP","180,208.4553724189289","2,1","NETTLE WEED,NETTLE WEED","20,20","20,20","10,10","20,20","0,0","20,20","20,20","20,20","10,10","20,20","0,0","20,20","0,1","18276,1594","5.029222726778624,-10.493164580103508","28.455372418928917,-5.209878957376689","0","0"
"464","86","text","0","35","587474","0-0","","","","","","","","","","","","","","","","","","","","","","","","","","","","","","","","","","","","",""
"","","plant-game","0","36","611376","0-0","","200","120","2","WHEAT CROP","Right","200","160","2","THISTLE WEED","experimental","5","1,2","160,138.7747434483516","2,1","THISTLE WEED,THISTLE WEED","120,119.76287355610471","2,1","WHEAT CROP,WHEAT CROP","0,0","20,20","10,10","20,20","20,20","20,20","0,0","20,20","10,10","20,20","20,20","20,20","0,1","17808,1539","-21.22525655164841,-27.27973272381064","-0.23712644389529716,30.652231104527885","0","0"
"432","86","text","0","37","611933","0-0","","","","","","","","","","","","","","","","","","","","","","","","","","","","","","","","","","","","",""
"","","plant-game","0","38","628973","0-0","","200","160","1","WHEAT CROP","Left","200","120","2","THISTLE WEED","experimental","6","1,2","160,190","1,1","WHEAT CROP,CORN CROP","120,172.58410745342067","2,1","THISTLE WEED,THISTLE WEED","20,20","20,20","10,10","20,20","0,0","20,20","20,20","20,20","10,10","20,20","0,0","20,20","0,0","5683,4742","0.5639190226700137,30.473513375205847","52.58410745342068,-17.192825439241865","0","0"
"453","86","text","0","39","629537","0-0","","","","","","","","","","","","","","","","","","","","","","","","","","","","","","","","","","","","",""
"","","plant-game","0","40","646951","0-0","","200","160","4","WHEAT CROP","Left","200","120","2","NETTLE WEED","experimental","7","1,2,3,4","160,175.8438116272784,188.4044096631589,209.80406126966867","4,3,2,1","WHEAT CROP,WHEAT CROP,WHEAT CROP,WHEAT CROP","120,100.97455693414058,180,195.91006186916195","2,1,2,1","NETTLE WEED,NETTLE WEED,THISTLE WEED,THISTLE WEED","20,20,20,20","20,20,20,20","10,10,10,10","20,20,20,20","0,0,0,0","20,20,20,20","20,20,20,20","20,20,20,20","10,10,10,10","20,20,20,20","0,0,0,0","20,20,20,20","0,0,0,1","5466,931,3599,1320","15.843811627278399,12.560598035880489,21.39965160650977,2.0437144018036815","-19.02544306585942,32.1226876415428,15.910061869161964,-5.433856549078628","0","0"
"479","86","text","0","41","647520","0-0","","","","","","","","","","","","","","","","","","","","","","","","","","","","","","","","","","","","",""
"","","plant-game","0","42","671360","0-0","","200","190","4","CORN CROP","Right","200","190","2","THISTLE WEED","experimental","8","1,2,3,4","190,209.6234361622219,180,156.4782338831419","2,1,2,1","THISTLE WEED,THISTLE WEED,NETTLE WEED,NETTLE WEED","190,228.68456747443494,246.8453433832578,236.83890076091376","4,3,2,1","CORN CROP,CORN CROP,CORN CROP,CORN CROP","0,0,0,0","20,20,20,20","10,10,10,10","20,20,20,20","20,20,20,20","20,20,20,20","0,0,0,0","20,20,20,20","10,10,10,10","20,20,20,20","20,20,20,20","20,20,20,20","0,0,0,0","11722,769,3558,609","19.623436162221896,-6.7575845799701995,-23.521766116858092,-9.32453924647007","38.684567474434935,18.16077590882286,-10.00644262234405,-20.704377335838842","0","0"
"672","86","text","0","43","672162","0-0","","","","","","","","","","","","","","","","","","","","","","","","","","","","","","","","","","","","",""
"","","plant-game","0","44","688823","0-0","","200","180","4","WHEAT CROP","Right","200","180","4","THISTLE WEED","experimental","9","1,2,3,4","180,159.75896110212773,199.0704726002354,185.4199819577521","4,3,2,1","THISTLE WEED,THISTLE WEED,THISTLE WEED,THISTLE WEED","180,165.13330706731094,199.88478179709583,231.51622877110094","4,3,2,1","WHEAT CROP,WHEAT CROP,WHEAT CROP,WHEAT CROP","0,0,0,0","20,20,20,20","10,10,10,10","20,20,20,20","20,20,20,20","20,20,20,20","0,0,0,0","20,20,20,20","10,10,10,10","20,20,20,20","20,20,20,20","20,20,20,20","0,1,0,0","8760,989,1853,1115","-20.241038897872265,39.31151149810766,-13.650490642483291,-2.3862120762869776","-14.866692932689068,34.75147472978489,31.631446974005108,-4.750659778591875","0","0"
"700","86","text","0","45","689663","0-0","","","","","","","","","","","","","","","","","","","","","","","","","","","","","","","","","","","","",""
"","","plant-game","0","46","700223","0-0","","200","190","2","CORN CROP","Right","200","190","2","THISTLE WEED","experimental","10","1,2","190,185.2705875998699","2,1","THISTLE WEED,THISTLE WEED","190,197.35991561126372","2,1","CORN CROP,CORN CROP","0,0","20,20","10,10","20,20","20,20","20,20","0,0","20,20","10,10","20,20","20,20","20,20","0,1","4974,1464","-4.729412400130089,14.603272706358988","7.359915611263702,9.086885821989185","0","0"
"448","86","text","0","47","700809","0-0","","","","","","","","","","","","","","","","","","","","","","","","","","","","","","","","","","","","",""
"","","plant-game","0","48","728971","0-0","","200","120","8","WHEAT CROP","Right","200","160","4","THISTLE WEED","experimental","11","1,2,3,4,5,6,7,8","160,127.97815490453169,140.56325627935115,161.39056545096415,160,128.27172269147036,130.98271523603825,147.8708758706169","4,3,2,1,4,3,2,1","THISTLE WEED,THISTLE WEED,THISTLE WEED,THISTLE WEED,NETTLE WEED,NETTLE WEED,NETTLE WEED,NETTLE WEED","120,130.08203754729192,137.58113422639371,181.9511839168773,193.66767020793736,182.18649168175548,230.34956600773785,218.45546660859964","8,7,6,5,4,3,2,1","WHEAT CROP,WHEAT CROP,WHEAT CROP,WHEAT CROP,WHEAT CROP,WHEAT CROP,WHEAT CROP,WHEAT CROP","0,0,0,0,0,0,0,0","20,20,20,20,20,20,20,20","10,10,10,10,10,10,10,10","20,20,20,20,20,20,20,20","20,20,20,20,20,20,20,20","20,20,20,20,20,20,20,20","0,0,0,0,0,0,0,0","20,20,20,20,20,20,20,20","10,10,10,10,10,10,10,10","20,20,20,20,20,20,20,20","20,20,20,20,20,20,20,20","20,20,20,20,20,20,20,20","0,1,1,1,0,1,0,1","4848,1513,1259,3768,4026,1102,1956,2514","-32.0218450954683,12.585101374819445,20.827309171612995,37.24438633673621,-31.728277308529627,2.7109925445678797,16.888160634578675,2.269018158262945","10.082037547291913,7.499096679101783,44.370049690483604,11.716486291060049,-11.481178526181878,48.16307432598235,-11.89409939913821,30.737630784051408","0","0"
"394","86","text","0","49","729475","0-0","","","","","","","","","","","","","","","","","","","","","","","","","","","","","","","","","","","","",""
"","","plant-game","0","50","772176","0-0","","200","120","2","WHEAT CROP","Right","200","120","8","THISTLE WEED","experimental","12","1,2,3,4,5,6,7,8","120,147.19578102845728,122.61345062543484,179.9932325634821,192.68708898029067,181.36740402669687,202.8389585763727,202.15844166000906","8,7,6,5,4,3,2,1","THISTLE WEED,THISTLE WEED,THISTLE WEED,THISTLE WEED,THISTLE WEED,THISTLE WEED,THISTLE WEED,THISTLE WEED","120,128.0852873110927,140,117.60355095681476,102.27727345397899,118.63365306132066,119.49641780709028,151.61986141805804","2,1,6,5,4,3,2,1","WHEAT CROP,WHEAT CROP,CORN CROP,CORN CROP,CORN CROP,CORN CROP,CORN CROP,CORN CROP","0,0,0,0,0,0,0,0","20,20,20,20,20,20,20,20","10,10,10,10,10,10,10,10","20,20,20,20,20,20,20,20","20,20,20,20,20,20,20,20","20,20,20,20,20,20,20,20","0,0,0,0,0,0,0,0","20,20,20,20,20,20,20,20","10,10,10,10,10,10,10,10","20,20,20,20,20,20,20,20","20,20,20,20,20,20,20,20","20,20,20,20,20,20,20,20","1,0,1,0,0,0,0,0","6816,5232,5386,2924,10826,3000,645,1012","27.195781028457283,-24.582330403022446,57.37978193804728,12.693856416808561,-11.319684953593791,21.471554549675837,-0.6805169163636402,-4.508657228155659","8.085287311092726,10.78850025078686,-22.396449043185243,-15.326277502835762,16.35637960734167,0.8627647457696255,32.12344361096775,-12.030988131528058","0","0"
"527","86","text","0","51","772853","0-0","","","","","","","","","","","","","","","","","","","","","","","","","","","","","","","","","","","","",""
"","","plant-game","0","52","798682","0-0","","200","120","1","CORN CROP","Left","200","120","8","THISTLE WEED","experimental","13","1,2,3,4,5,6,7,8","120,130,124.20718948944894,107.40579616629036,101.81028221408734,133.42662965595565,147.64209659830362,150.65280785233097","1,7,6,5,4,3,2,1","CORN CROP,WHEAT CROP,WHEAT CROP,WHEAT CROP,WHEAT CROP,WHEAT CROP,WHEAT CROP,WHEAT CROP","120,124.36085322057184,171.622453249982,175.3847985117869,154.27057857110566,221.53805280196,205.68782193414492,213.83579902545253","8,7,6,5,4,3,2,1","THISTLE WEED,THISTLE WEED,THISTLE WEED,THISTLE WEED,THISTLE WEED,THISTLE WEED,THISTLE WEED,THISTLE WEED","20,20,20,20,20,20,20,20","20,20,20,20,20,20,20,20","10,10,10,10,10,10,10,10","20,20,20,20,20,20,20,20","0,0,0,0,0,0,0,0","20,20,20,20,20,20,20,20","20,20,20,20,20,20,20,20","20,20,20,20,20,20,20,20","10,10,10,10,10,10,10,10","20,20,20,20,20,20,20,20","0,0,0,0,0,0,0,0","20,20,20,20,20,20,20,20","1,0,1,1,0,1,1,1","7260,3602,3082,640,2173,689,732,576","-15.584598245399771,-5.792810510551067,-16.80139332315858,-5.595513952203016,31.616347441868307,14.215466942347966,3.0107112540273455,-8.94725102771903","4.360853220571842,47.261600029410154,3.762345261804905,-21.114219940681224,67.26747423085433,-15.850230867815062,8.147977091307613,-24.983190645239933","0","0"
"425","86","text","0","53","799237","0-0","","","","","","","","","","","","","","","","","","","","","","","","","","","","","","","","","","","","",""
"","","plant-game","0","54","822882","0-0","","200","160","1","CORN CROP","Right","200","190","4","NETTLE WEED","experimental","14","1,2,3,4","190,180.715174857843,184.2250259942487,179.86843408361943","4,3,2,1","NETTLE WEED,NETTLE WEED,NETTLE WEED,NETTLE WEED","160,170,188.31393274356824,172.9850303005188","1,3,2,1","CORN CROP,WHEAT CROP,WHEAT CROP,WHEAT CROP","0,0,0,0","20,20,20,20","10,10,10,10","20,20,20,20","20,20,20,20","20,20,20,20","0,0,0,0","20,20,20,20","10,10,10,10","20,20,20,20","20,20,20,20","20,20,20,20","0,1,0,1","10026,4453,2292,741","-9.284825142156985,3.509851136405711,-4.356591910629268,16.50526078494205","-12.750301115828977,18.313932743568245,-15.328902443049463,6.325359209583915","0","0"
"694","86","text","0","55","823732","0-0","","","","","","","","","","","","","","","","","","","","","","","","","","","","","","","","","","","","",""
"","","plant-game","0","56","841202","0-0","","200","180","2","WHEAT CROP","Left","200","160","1","THISTLE WEED","experimental","15","1,2","180,195.74797964041366","2,1","WHEAT CROP,WHEAT CROP","160,190","1,1","THISTLE WEED,NETTLE WEED","20,20","20,20","10,10","20,20","0,0","20,20","20,20","20,20","10,10","20,20","0,0","20,20","0,1","6916,4660","15.747979640413662,-13.398149941061643","-12.249476225653304,-20.770836869755577","0","0"
"642","86","text","0","57","841953","0-0","","","","","","","","","","","","","","","","","","","","","","","","","","","","","","","","","","","","",""
"","","plant-game","0","58","870168","0-0","","200","120","2","CORN CROP","Left","200","190","4","NETTLE WEED","experimental","16","1,2,3,4","120,135.48643510319954,180,180.16714090779476","2,1,2,1","CORN CROP,CORN CROP,WHEAT CROP,WHEAT CROP","190,206.87172968007104,201.60062688554922,210.93951261334337","4,3,2,1","NETTLE WEED,NETTLE WEED,NETTLE WEED,NETTLE WEED","20,20,20,20","20,20,20,20","10,10,10,10","20,20,20,20","0,0,0,0","20,20,20,20","20,20,20,20","20,20,20,20","10,10,10,10","20,20,20,20","0,0,0,0","20,20,20,20","1,1,1,0","12641,637,6927,1727","15.486435103199543,2.2355085945452,0.16714090779475946,13.43314263923875","16.87172968007105,-5.27110279452182,9.338885727794139,31.432130161452896","0","0"
"7069","86","text","0","59","877330","0-0","","","","","","","","","","","","","","","","","","","","","","","","","","","","","","","","","","","","",""
"","","plant-game","0","60","900824","0-0","","200","160","1","CORN CROP","Left","200","180","4","THISTLE WEED","experimental","17","1,2,3,4","160,170,176.34870792477983,241.09483786664572","1,3,2,1","CORN CROP,WHEAT CROP,WHEAT CROP,WHEAT CROP","180,187.98504305614895,211.7360005949493,219.02728416524457","4,3,2,1","THISTLE WEED,THISTLE WEED,THISTLE WEED,THISTLE WEED","20,20,20,20","20,20,20,20","10,10,10,10","20,20,20,20","0,0,0,0","20,20,20,20","20,20,20,20","20,20,20,20","10,10,10,10","20,20,20,20","0,0,0,0","20,20,20,20","1,0,0,1","5620,9388,1092,1014","-27.525651010920203,6.348707924779827,64.74612994186589,-0.16386139402471497","7.985043056148956,23.75095753880035,7.291283570295278,13.113014275141563","0","0"
"471","86","text","0","61","901406","0-0","","","","","","","","","","","","","","","","","","","","","","","","","","","","","","","","","","","","",""
"","","plant-game","0","62","915074","0-0","","200","120","4","WHEAT CROP","Right","200","120","4","NETTLE WEED","experimental","18","1,2,3,4","120,122.22527339101987,128.72257779801788,123.35199382198422","4,3,2,1","NETTLE WEED,NETTLE WEED,NETTLE WEED,NETTLE WEED","120,154.5697362506633,151.78395717540707,182.54453477710206","4,3,2,1","WHEAT CROP,WHEAT CROP,WHEAT CROP,WHEAT CROP","0,0,0,0","20,20,20,20","10,10,10,10","20,20,20,20","20,20,20,20","20,20,20,20","0,0,0,0","20,20,20,20","10,10,10,10","20,20,20,20","20,20,20,20","20,20,20,20","1,1,1,1","6735,585,715,1310","2.2252733910198685,6.497304406998023,-5.370583976033654,39.90445826586492","34.56973625066331,-2.7857790752562366,30.760577601694997,40.443074047484785","0","0"
"645","86","text","0","63","915855","0-0","","","","","","","","","","","","","","","","","","","","","","","","","","","","","","","","","","","","",""
"","","plant-game","0","64","944439","0-0","","200","120","4","WHEAT CROP","Left","200","190","4","NETTLE WEED","experimental","19","1,2,3,4","120,187.82198779727278,206.79774681719238,202.10026445522348","4,3,2,1","WHEAT CROP,WHEAT CROP,WHEAT CROP,WHEAT CROP","190,225.01269283640818,237.31073296136015,259.12150102711905","4,3,2,1","NETTLE WEED,NETTLE WEED,NETTLE WEED,NETTLE WEED","20,20,20,20","20,20,20,20","10,10,10,10","20,20,20,20","0,0,0,0","20,20,20,20","20,20,20,20","20,20,20,20","10,10,10,10","20,20,20,20","0,0,0,0","20,20,20,20","0,0,1,0","16308,4070,2410,1831","67.82198779727278,18.975759019919582,-4.697482361968895,18.631884425697315","35.01269283640816,12.29804012495196,21.810768065758918,25.09630626105598","0","0"
"1471","86","text","0","65","946040","0-0","","","","","","","","","","","","","","","","","","","","","","","","","","","","","","","","","","","","",""
"","","plant-game","0","66","964826","0-0","","200","160","4","WHEAT CROP","Right","200","180","4","NETTLE WEED","experimental","20","1,2,3,4","180,179.87818836980682,181.81203113059746,184.401272674932","4,3,2,1","NETTLE WEED,NETTLE WEED,NETTLE WEED,NETTLE WEED","160,137.05501195137904,156.3644653104383,157.11506919628127","4,3,2,1","WHEAT CROP,WHEAT CROP,WHEAT CROP,WHEAT CROP","0,0,0,0","20,20,20,20","10,10,10,10","20,20,20,20","20,20,20,20","20,20,20,20","0,0,0,0","20,20,20,20","10,10,10,10","20,20,20,20","20,20,20,20","20,20,20,20","0,0,0,0","9058,2124,1625,1785","-0.12181163019317928,1.9338427607906403,2.5892415443345356,-13.74288022015816","-22.944988048620957,19.30945335905925,0.7506038858429731,50.311063870202375","0","0"
"386","86","text","0","67","965381","0-0","","","","","","","","","","","","","","","","","","","","","","","","","","","","","","","","","","","","",""
"","","plant-game","0","68","986660","0-0","","200","120","4","WHEAT CROP","Right","200","180","4","NETTLE WEED","experimental","21","1,2,3,4","180,196.58874015894423,215.06441872081152,229.76419629219026","4,3,2,1","NETTLE WEED,NETTLE WEED,NETTLE WEED,NETTLE WEED","120,129.12532259503354,141.98860448285754,167.73295464799264","4,3,2,1","WHEAT CROP,WHEAT CROP,WHEAT CROP,WHEAT CROP","0,0,0,0","20,20,20,20","10,10,10,10","20,20,20,20","20,20,20,20","20,20,20,20","0,0,0,0","20,20,20,20","10,10,10,10","20,20,20,20","20,20,20,20","20,20,20,20","0,0,0,1","6517,2737,5123,2137","16.588740158944248,18.475678561867287,14.69977757137876,3.2755358665523353","9.125322595033523,12.863281887824012,25.744350165135103,4.232053420486485","0","0"
"534","86","text","0","69","987344","0-0","","","","","","","","","","","","","","","","","","","","","","","","","","","","","","","","","","","","",""
"","","plant-game","0","70","1012713","0-0","","200","190","1","CORN CROP","Left","200","160","4","THISTLE WEED","experimental","22","1,2,3,4","190,170,187.12176379956202,208.82222487698","1,3,2,1","CORN CROP,WHEAT CROP,WHEAT CROP,WHEAT CROP","160,199.7353790249896,224.75943978050654,238.45678987334253","4,3,2,1","THISTLE WEED,THISTLE WEED,THISTLE WEED,THISTLE WEED","20,20,20,20","20,20,20,20","10,10,10,10","20,20,20,20","0,0,0,0","20,20,20,20","20,20,20,20","20,20,20,20","10,10,10,10","20,20,20,20","0,0,0,0","20,20,20,20","0,0,0,0","8288,7996,699,2202","26.309331709655552,17.121763799562018,21.700461077417977,19.025387763855555","39.73537902498962,25.024060755516924,13.697350092835993,-3.2673629010100314","0","0"
"671","86","text","0","71","1013504","0-0","","","","","","","","","","","","","","","","","","","","","","","","","","","","","","","","","","","","",""
"","","plant-game","0","72","1045954","0-0","","200","180","1","WHEAT CROP","Right","200","180","8","NETTLE WEED","experimental","23","1,2,3,4,5,6,7,8","180,200.90531265965993,248.8335210896984,295.03790854375154,264.6230048729003,254.94601469651442,294.28779663544015,362.04238486021734","8,7,6,5,4,3,2,1","NETTLE WEED,NETTLE WEED,NETTLE WEED,NETTLE WEED,NETTLE WEED,NETTLE WEED,NETTLE WEED,NETTLE WEED","180,130,123.66019171422191,126.84926832064795,122.83526624025791,142.43699996606733,129.87718938659714,123.86936168517644","1,7,6,5,4,3,2,1","WHEAT CROP,CORN CROP,CORN CROP,CORN CROP,CORN CROP,CORN CROP,CORN CROP,CORN CROP","0,0,0,0,0,0,0,0","20,20,20,20,20,20,20,20","10,10,10,10,10,10,10,10","20,20,20,20,20,20,20,20","20,20,20,20,20,20,20,20","20,20,20,20,20,20,20,20","0,0,0,0,0,0,0,0","20,20,20,20,20,20,20,20","10,10,10,10,10,10,10,10","20,20,20,20,20,20,20,20","20,20,20,20,20,20,20,20","20,20,20,20,20,20,20,20","1,1,1,1,1,0,0,1","5003,5839,2325,2268,3110,1425,2367,865","20.905312659659916,47.92820843003847,46.204387454053126,-30.414903670851253,-9.676990176385885,39.34178193892572,67.75458822477718,9.719681032364807","10.709287809835914,-6.339808285778091,3.1890766064260383,-4.014002080390039,19.601733725809424,-12.55981057947021,-6.007827701420698,36.6546598579722","0","0"
"517","86","text","0","73","1046564","0-0","","","","","","","","","","","","","","","","","","","","","","","","","","","","","","","","","","","","",""
"","","plant-game","0","74","1074744","0-0","","200","120","1","CORN CROP","Left","200","160","8","THISTLE WEED","experimental","24","1,2,3,4,5,6,7,8","120,130,127.1110776400695,106.24780372764243,122.65888580354599,145.59862291748323,168.3116205504991,184.10292839015162","1,7,6,5,4,3,2,1","CORN CROP,WHEAT CROP,WHEAT CROP,WHEAT CROP,WHEAT CROP,WHEAT CROP,WHEAT CROP,WHEAT CROP","160,178.68233461793173,168.07583649928497,174.60456653585342,169.23544790076295,195.3109754682035,173.5535768057701,201.51855028691807","8,7,6,5,4,3,2,1","THISTLE WEED,THISTLE WEED,THISTLE WEED,THISTLE WEED,THISTLE WEED,THISTLE WEED,THISTLE WEED,THISTLE WEED","20,20,20,20,20,20,20,20","20,20,20,20,20,20,20,20","10,10,10,10,10,10,10,10","20,20,20,20,20,20,20,20","0,0,0,0,0,0,0,0","20,20,20,20,20,20,20,20","20,20,20,20,20,20,20,20","20,20,20,20,20,20,20,20","10,10,10,10,10,10,10,10","20,20,20,20,20,20,20,20","0,0,0,0,0,0,0,0","20,20,20,20,20,20,20,20","1,1,1,1,0,1,0,1","5386,8438,1622,914,1435,1019,2863,937","25.13316855309334,-2.8889223599305054,-20.86327391242707,16.411082075903558,22.939737113937234,22.712997633015863,15.791307839652529,-14.35079189813941","18.682334617931733,-10.606498118646744,6.528730036568442,-5.369118635090471,26.075527567440563,-21.757398662433406,27.964973481147968,-9.378589160707714","0","0"
"461","86","text","0","75","1075308","0-0","","","","","","","","","","","","","","","","","","","","","","","","","","","","","","","","","","","","",""
"","","plant-game","0","76","1085974","0-0","","200","160","1","CORN CROP","Right","200","120","1","THISTLE WEED","experimental","25","1","120","1","THISTLE WEED","160","1","CORN CROP","0","20","10","20","20","20","0","20","10","20","20","20","1","7223","-15.620405696333236","34.593480846127335","0","0"
"567","86","text","0","77","1086651","0-0","","","","","","","","","","","","","","","","","","","","","","","","","","","","","","","","","","","","",""
"","","plant-game","0","78","1115691","0-0","","200","180","2","WHEAT CROP","Left","200","190","8","NETTLE WEED","experimental","26","1,2,3,4,5,6,7,8","180,185.116659421266,140,155.95669486987046,172.83399951320348,174.38900379599252,186.12972895245235,236.64911157623777","2,1,6,5,4,3,2,1","WHEAT CROP,WHEAT CROP,CORN CROP,CORN CROP,CORN CROP,CORN CROP,CORN CROP,CORN CROP","190,211.49399234244706,242.01523697107504,248.82490732446277,253.59710590484937,291.57788453021004,269.36932576567585,319.25148497565124","8,7,6,5,4,3,2,1","NETTLE WEED,NETTLE WEED,NETTLE WEED,NETTLE WEED,NETTLE WEED,NETTLE WEED,NETTLE WEED,NETTLE WEED","20,20,20,20,20,20,20,20","20,20,20,20,20,20,20,20","10,10,10,10,10,10,10,10","20,20,20,20,20,20,20,20","0,0,0,0,0,0,0,0","20,20,20,20,20,20,20,20","20,20,20,20,20,20,20,20","20,20,20,20,20,20,20,20","10,10,10,10,10,10,10,10","20,20,20,20,20,20,20,20","0,0,0,0,0,0,0,0","20,20,20,20,20,20,20,20","0,0,1,1,0,0,0,1","8316,644,5732,2546,1699,913,656,1022","5.116659421266016,-11.766193011798425,15.956694869870464,16.877304643333023,1.5550042827890387,11.740725156459824,50.519382623785404,-12.584498751537526","21.49399234244706,30.521244628627976,6.809670353387721,4.772198580386602,37.98077862536067,-22.208558764534203,49.882159209975384,-17.409702487332158","0","0"
"601","86","text","0","79","1116449","0-0","","","","","","","","","","","","","","","","","","","","","","","","","","","","","","","","","","","","",""
"","","plant-game","0","80","1149012","0-0","","200","160","8","CORN CROP","Left","200","180","4","THISTLE WEED","experimental","27","1,2,3,4,5,6,7,8","160,171.76560611301122,189.8858233343331,185.0607340076135,159.69602591133216,201.4471711543783,258.1073604158983,244.38328948200083","8,7,6,5,4,3,2,1","CORN CROP,CORN CROP,CORN CROP,CORN CROP,CORN CROP,CORN CROP,CORN CROP,CORN CROP","180,198.72120360153284,220.69773964152245,233.4833484041033,160,157.22128923348438,131.04052192427088,157.42533581718843","4,3,2,1,4,3,2,1","THISTLE WEED,THISTLE WEED,THISTLE WEED,THISTLE WEED,NETTLE WEED,NETTLE WEED,NETTLE WEED,NETTLE WEED","20,20,20,20,20,20,20,20","20,20,20,20,20,20,20,20","10,10,10,10,10,10,10,10","20,20,20,20,20,20,20,20","0,0,0,0,0,0,0,0","20,20,20,20,20,20,20,20","20,20,20,20,20,20,20,20","20,20,20,20,20,20,20,20","10,10,10,10,10,10,10,10","20,20,20,20,20,20,20,20","0,0,0,0,0,0,0,0","20,20,20,20,20,20,20,20","1,1,1,1,0,0,1,1","11829,688,2630,691,3867,1350,2491,1627","11.765606113011213,18.120217221321887,-4.825089326719617,-25.36470809628134,41.75114524304615,56.66018926152002,-13.724070933897472,10.206650913658734","18.721203601532828,21.9765360399896,12.78560876258085,9.416010142666565,-2.7787107665156228,-26.180767309213493,26.384813892917553,-2.0238404536204593","0","0"
"440","86","text","0","81","1149582","0-0","","","","","","","","","","","","","","","","","","","","","","","","","","","","","","","","","","","","",""
"","","plant-game","0","82","1171524","0-0","","200","120","2","CORN CROP","Right","200","160","8","THISTLE WEED","experimental","28","1,2,3,4,5,6,7,8","160,156.48041329144766,155.29339638496836,172.33712398928742,187.90965517855076,209.69857312623438,220.1725341419522,181.8677850401383","8,7,6,5,4,3,2,1","THISTLE WEED,THISTLE WEED,THISTLE WEED,THISTLE WEED,THISTLE WEED,THISTLE WEED,THISTLE WEED,THISTLE WEED","120,115.59774491125535,140,172.43887205729416,167.53175648128774,157.70422499815234,154.62080450558307,189.0804800782288","2,1,6,5,4,3,2,1","CORN CROP,CORN CROP,WHEAT CROP,WHEAT CROP,WHEAT CROP,WHEAT CROP,WHEAT CROP,WHEAT CROP","0,0,0,0,0,0,0,0","20,20,20,20,20,20,20,20","10,10,10,10,10,10,10,10","20,20,20,20,20,20,20,20","20,20,20,20,20,20,20,20","20,20,20,20,20,20,20,20","0,0,0,0,0,0,0,0","20,20,20,20,20,20,20,20","10,10,10,10,10,10,10,10","20,20,20,20,20,20,20,20","20,20,20,20,20,20,20,20","20,20,20,20,20,20,20,20","0,0,1,1,1,1,0,0","6021,714,2759,619,982,1021,1013,3181","-3.519586708552332,-1.1870169064792926,17.043727604319074,15.572531189263355,21.788917947683622,10.473961015717828,-38.304749101813925,-3.9859056425276975","-4.402255088744658,-22.771630368144386,32.43887205729416,-4.907115576006433,-9.827531483135402,-3.0834204925692603,34.45967557264573,-36.95574095683139","0","0"
"478","86","text","0","83","1172112","0-0","","","","","","","","","","","","","","","","","","","","","","","","","","","","","","","","","","","","",""
"","","plant-game","0","84","1195943","0-0","","200","180","8","CORN CROP","Right","200","180","1","THISTLE WEED","experimental","29","1,2,3,4,5,6,7,8","180,130,120.13290489103689,144.84805538810076,171.83971787936855,162.30922545594908,173.65130789525668,155.5631617927598","1,7,6,5,4,3,2,1","THISTLE WEED,NETTLE WEED,NETTLE WEED,NETTLE WEED,NETTLE WEED,NETTLE WEED,NETTLE WEED,NETTLE WEED","180,174.3572973303761,208.38334893500178,249.88014952849406,272.3562326883051,290.2875736140354,244.05854584171783,250.35734479923156","8,7,6,5,4,3,2,1","CORN CROP,CORN CROP,CORN CROP,CORN CROP,CORN CROP,CORN CROP,CORN CROP,CORN CROP","0,0,0,0,0,0,0,0","20,20,20,20,20,20,20,20","10,10,10,10,10,10,10,10","20,20,20,20,20,20,20,20","20,20,20,20,20,20,20,20","20,20,20,20,20,20,20,20","0,0,0,0,0,0,0,0","20,20,20,20,20,20,20,20","10,10,10,10,10,10,10,10","20,20,20,20,20,20,20,20","20,20,20,20,20,20,20,20","20,20,20,20,20,20,20,20","0,1,1,1,0,0,0,0","6342,2719,2939,2599,905,640,1378,808","-15.616804920780794,-9.86709510896311,24.71515049706388,26.991662491267782,-9.53049242341948,11.342082439307594,-18.0881461024969,-31.317897358180893","-5.642702669623908,34.02605160462567,41.49680059349228,22.47608315981104,17.93134092573029,-46.22902777231758,6.298798957513714,28.598137688835482","0","0"
"594","86","text","0","85","1196677","0-0","","","","","","","","","","","","","","","","","","","","","","","","","","","","","","","","","","","","",""
"","","plant-game","0","86","1226955","0-0","","200","160","8","CORN CROP","Left","200","190","4","THISTLE WEED","experimental","30","1,2,3,4,5,6,7,8","160,159.25021857412406,166.21934610152047,155.7450080342974,173.58515946905385,226.68918412724508,261.61833252901044,257.7773804114831","8,7,6,5,4,3,2,1","CORN CROP,CORN CROP,CORN CROP,CORN CROP,CORN CROP,CORN CROP,CORN CROP,CORN CROP","190,210.9657809532989,223.2154137913041,218.6360727264135,160,175.7606573941224,188.10242601398738,187.26852432752077","4,3,2,1,4,3,2,1","THISTLE WEED,THISTLE WEED,THISTLE WEED,THISTLE WEED,NETTLE WEED,NETTLE WEED,NETTLE WEED,NETTLE WEED","20,20,20,20,20,20,20,20","20,20,20,20,20,20,20,20","10,10,10,10,10,10,10,10","20,20,20,20,20,20,20,20","0,0,0,0,0,0,0,0","20,20,20,20,20,20,20,20","20,20,20,20,20,20,20,20","20,20,20,20,20,20,20,20","10,10,10,10,10,10,10,10","20,20,20,20,20,20,20,20","0,0,0,0,0,0,0,0","20,20,20,20,20,20,20,20","1,1,1,0,0,1,1,1","11311,1592,1694,3834,2310,1695,1031,740","-0.7497814258759243,6.969127527396416,-10.47433806722308,17.84015143475644,53.10402465819123,34.92914840176537,-3.8409521175273555,-50.19569655377361","20.965780953298882,12.2496328380052,-4.579341064890587,4.32015917827699,15.760657394122395,12.34176861986499,-0.8339016864666225,-28.97206339697099","0","0"
"541","86","text","0","87","1227646","0-0","","","","","","","","","","","","","","","","","","","","","","","","","","","","","","","","","","","","",""
"","","plant-game","0","88","1244967","0-0","","200","190","4","CORN CROP","Left","200","190","1","THISTLE WEED","experimental","31","1,2,3,4","190,227.23544178749518,227.38126703040714,262.8253285900459","4,3,2,1","CORN CROP,CORN CROP,CORN CROP,CORN CROP","190,170,165.87054015084482,164.93060374976218","1,3,2,1","THISTLE WEED,NETTLE WEED,NETTLE WEED,NETTLE WEED","20,20,20,20","20,20,20,20","10,10,10,10","20,20,20,20","0,0,0,0","20,20,20,20","20,20,20,20","20,20,20,20","10,10,10,10","20,20,20,20","0,0,0,0","20,20,20,20","1,1,1,1","7988,2225,1037,826","37.235441787495176,0.1458252429119695,35.44406155963876,-13.110260286352409","26.68226106677063,-4.129459849155173,-0.9399364010826277,-9.32159129821112","0","0"
"444","86","text","0","89","1245521","0-0","","","","","","","","","","","","","","","","","","","","","","","","","","","","","","","","","","","","",""
"","","plant-game","0","90","1267159","0-0","","200","120","1","CORN CROP","Right","200","190","8","NETTLE WEED","experimental","32","1,2,3,4,5,6,7,8","190,148.13050388184433,144.76279545171877,142.42713533616526,153.93157742102113,149.36229298118147,141.88049194935968,192.07689246300515","8,7,6,5,4,3,2,1","NETTLE WEED,NETTLE WEED,NETTLE WEED,NETTLE WEED,NETTLE WEED,NETTLE WEED,NETTLE WEED,NETTLE WEED","120,130,127.37653590887558,149.84509408641915,196.40080669492036,209.6232843376323,230.02144503254425,247.24489499832467","1,7,6,5,4,3,2,1","CORN CROP,WHEAT CROP,WHEAT CROP,WHEAT CROP,WHEAT CROP,WHEAT CROP,WHEAT CROP,WHEAT CROP","0,0,0,0,0,0,0,0","20,20,20,20,20,20,20,20","10,10,10,10,10,10,10,10","20,20,20,20,20,20,20,20","20,20,20,20,20,20,20,20","20,20,20,20,20,20,20,20","0,0,0,0,0,0,0,0","20,20,20,20,20,20,20,20","10,10,10,10,10,10,10,10","20,20,20,20,20,20,20,20","20,20,20,20,20,20,20,20","20,20,20,20,20,20,20,20","0,0,1,1,0,0,0,0","5869,1040,2868,1203,1538,1087,760,1844","-41.86949611815568,-3.3677084301255578,-2.335660115553509,11.504442084855858,-4.569284439839657,-7.481801031821802,50.19640051364546,-17.16539211633902","-36.124623843264175,-2.6234640911244176,22.468558177543564,46.55571260850121,13.222477642711947,20.398160694911944,17.223449965780407,10.407990137064825","0","0"
"4804","86","text","0","91","1272083","0-0","","","","","","","","","","","","","","","","","","","","","","","","","","","","","","","","","","","","",""
"","","plant-game","0","92","1284483","0-0","","200","120","4","CORN CROP","Left","200","190","2","NETTLE WEED","experimental","33","1,2,3,4","120,70.9887593078609,92.63737035767043,76.56881528976781","4,3,2,1","CORN CROP,CORN CROP,CORN CROP,CORN CROP","190,188.3179468102552,180,149.6531814024568","2,1,2,1","NETTLE WEED,NETTLE WEED,THISTLE WEED,THISTLE WEED","20,20,20,20","20,20,20,20","10,10,10,10","20,20,20,20","0,0,0,0","20,20,20,20","20,20,20,20","20,20,20,20","10,10,10,10","20,20,20,20","0,0,0,0","20,20,20,20","1,1,1,1","4607,409,1978,471","-49.011240692139104,21.648611049809535,-16.068555067902622,-36.65267218462518","-1.6820531897448021,14.950574745659559,-30.346818597543198,-7.1960570389666785","0","0"
"471","86","text","0","93","1285054","0-0","","","","","","","","","","","","","","","","","","","","","","","","","","","","","","","","","","","","",""
"","","plant-game","0","94","1316518","0-0","","200","160","2","WHEAT CROP","Right","200","190","8","THISTLE WEED","experimental","34","1,2,3,4,5,6,7,8","190,232.48619390177163,220.1547677527848,235.81917486331085,250.3258744162577,272.39793347371176,258.3931690943657,254.52005351576528","8,7,6,5,4,3,2,1","THISTLE WEED,THISTLE WEED,THISTLE WEED,THISTLE WEED,THISTLE WEED,THISTLE WEED,THISTLE WEED,THISTLE WEED","160,196.58609824767353,140,158.3962828090057,197.76310312778418,184.5930033963061,193.5653291423425,218.29495122757035","2,1,6,5,4,3,2,1","WHEAT CROP,WHEAT CROP,CORN CROP,CORN CROP,CORN CROP,CORN CROP,CORN CROP,CORN CROP","0,0,0,0,0,0,0,0","20,20,20,20,20,20,20,20","10,10,10,10,10,10,10,10","20,20,20,20,20,20,20,20","20,20,20,20,20,20,20,20","20,20,20,20,20,20,20,20","0,0,0,0,0,0,0,0","20,20,20,20,20,20,20,20","10,10,10,10,10,10,10,10","20,20,20,20,20,20,20,20","20,20,20,20,20,20,20,20","20,20,20,20,20,20,20,20","1,1,1,1,0,0,0,1","8393,569,9525,447,1255,533,1589,4285","42.48619390177164,-12.331426148986829,15.664407110526042,14.506699552946852,22.072059057454037,-14.004764379346073,-3.873115578600419,28.963973641255954","36.58609824767355,28.580165899510998,18.396282809005708,39.366820318778494,-13.170099731478084,8.972325746036415,24.729622085227856,29.490973911723334","0","0"
"681","86","text","0","95","1317319","0-0","","","","","","","","","","","","","","","","","","","","","","","","","","","","","","","","","","","","",""
"","","plant-game","0","96","1339758","0-0","","200","180","8","CORN CROP","Right","200","120","8","NETTLE WEED","experimental","35","1,2,3,4,5,6,7,8","120,135.16564461245005,121.72874634712193,139.9807963671625,168.5589081912906,191.27707310568482,214.77634093306153,193.63059355881913","8,7,6,5,4,3,2,1","NETTLE WEED,NETTLE WEED,NETTLE WEED,NETTLE WEED,NETTLE WEED,NETTLE WEED,NETTLE WEED,NETTLE WEED","180,167.54540071630774,131.3692344943022,123.04896249893052,101.60876896387195,109.32262844431393,107.56725215544292,96.01745710963189","8,7,6,5,4,3,2,1","CORN CROP,CORN CROP,CORN CROP,CORN CROP,CORN CROP,CORN CROP,CORN CROP,CORN CROP","0,0,0,0,0,0,0,0","20,20,20,20,20,20,20,20","10,10,10,10,10,10,10,10","20,20,20,20,20,20,20,20","20,20,20,20,20,20,20,20","20,20,20,20,20,20,20,20","0,0,0,0,0,0,0,0","20,20,20,20,20,20,20,20","10,10,10,10,10,10,10,10","20,20,20,20,20,20,20,20","20,20,20,20,20,20,20,20","20,20,20,20,20,20,20,20","0,0,0,1,0,0,0,0","9240,818,1703,1520,1446,663,1889,1203","15.165644612450063,-13.436898265328118,18.25205002004058,28.578111824128122,22.718164914394205,23.499267827376727,-21.14574737424241,-9.008048368859285","-12.45459928369227,-36.17616622200555,-8.320271995371675,-21.44019353505857,7.713859480441983,-1.7553762888710143,-11.549795045811031,11.989188229884395","0","0"
"660","86","text","0","97","1340578","0-0","","","","","","","","","","","","","","","","","","","","","","","","","","","","","","","","","","","","",""
"","","plant-game","0","98","1349290","0-0","","200","160","2","WHEAT CROP","Left","200","120","2","THISTLE WEED","experimental","36","1,2","160,172.3991265894733","2,1","WHEAT CROP,WHEAT CROP","120,169.13877543317165","2,1","THISTLE WEED,THISTLE WEED","20,20","20,20","10,10","20,20","0,0","20,20","20,20","20,20","10,10","20,20","0,0","20,20","0,0","4930,372","12.399126589473298,59.554863251841","49.13877543317163,19.197905829367095","0","0"
"600","86","text","0","99","1350010","0-0","","","","","","","","","","","","","","","","","","","","","","","","","","","","","","","","","","","","",""
"","","plant-game","0","100","1370584","0-0","","200","190","4","CORN CROP","Right","200","160","8","NETTLE WEED","experimental","37","1,2,3,4,5,6,7,8","160,196.25024999505717,145.01327963769535,120.19799449031855,165.22077987458897,235.82362922560145,262.03789483694595,239.25036639999576","8,7,6,5,4,3,2,1","NETTLE WEED,NETTLE WEED,NETTLE WEED,NETTLE WEED,NETTLE WEED,NETTLE WEED,NETTLE WEED,NETTLE WEED","190,204.51970047164326,211.77850557388328,199.50510825938028,160,190.5888317043098,212.61016706356082,233.72109160218753","4,3,2,1,4,3,2,1","CORN CROP,CORN CROP,CORN CROP,CORN CROP,WHEAT CROP,WHEAT CROP,WHEAT CROP,WHEAT CROP","0,0,0,0,0,0,0,0","20,20,20,20,20,20,20,20","10,10,10,10,10,10,10,10","20,20,20,20,20,20,20,20","20,20,20,20,20,20,20,20","20,20,20,20,20,20,20,20","0,0,0,0,0,0,0,0","20,20,20,20,20,20,20,20","10,10,10,10,10,10,10,10","20,20,20,20,20,20,20,20","20,20,20,20,20,20,20,20","20,20,20,20,20,20,20,20","1,0,0,1,1,1,0,0","3981,2126,736,1478,2418,1411,1401,1871","36.25024999505717,-51.23697035736182,-24.815285147376795,45.022785384270435,70.60284935101247,26.214265611344523,-22.787528436950204,10.090437814647505","14.519700471643262,7.258805102240009,-12.273397314503011,-1.3177971647599378,30.588831704309793,22.02133535925102,21.110924538626715,17.44676783645597","0","0"
"327","86","text","0","101","1371081","0-0","","","","","","","","","","","","","","","","","","","","","","","","","","","","","","","","","","","","",""
"","","plant-game","0","102","1387243","0-0","","200","190","2","WHEAT CROP","Right","200","180","4","THISTLE WEED","experimental","38","1,2,3,4","180,192.39423894913392,241.11477682511324,292.8153204978701","4,3,2,1","THISTLE WEED,THISTLE WEED,THISTLE WEED,THISTLE WEED","190,198.72751431721125,180,191.0955643630581","2,1,2,1","WHEAT CROP,WHEAT CROP,CORN CROP,CORN CROP","0,0,0,0","20,20,20,20","10,10,10,10","20,20,20,20","20,20,20,20","20,20,20,20","0,0,0,0","20,20,20,20","10,10,10,10","20,20,20,20","20,20,20,20","20,20,20,20","1,0,1,1","6485,1418,2807,621","12.394238949133921,48.72053787597931,51.70054367275689,46.67438980168758","8.727514317211249,-8.152789784063081,11.0955643630581,8.538280280484091","0","0"
"520","86","text","0","103","1387903","0-0","","","","","","","","","","","","","","","","","","","","","","","","","","","","","","","","","","","","",""
"","","plant-game","0","104","1404767","0-0","","200","180","4","WHEAT CROP","Left","200","190","2","NETTLE WEED","experimental","39","1,2,3,4","180,170.42837040433483,140.64908944151597,167.6573034125674","4,3,2,1","WHEAT CROP,WHEAT CROP,WHEAT CROP,WHEAT CROP","190,188.3380336860258,180,225.7822402347497","2,1,2,1","NETTLE WEED,NETTLE WEED,THISTLE WEED,THISTLE WEED","20,20,20,20","20,20,20,20","10,10,10,10","20,20,20,20","0,0,0,0","20,20,20,20","20,20,20,20","20,20,20,20","10,10,10,10","20,20,20,20","0,0,0,0","20,20,20,20","1,1,1,0","6531,494,3305,1446","-9.57162959566517,-29.779280962818856,27.00821397105143,21.015150872497088","-1.6619663139741967,32.357404915033655,45.7822402347497,55.11773829977325","0","0"
"457","86","text","0","105","1405392","0-0","","","","","","","","","","","","","","","","","","","","","","","","","","","","","","","","","","","","",""
"","","plant-game","0","106","1423256","0-0","","200","160","8","WHEAT CROP","Left","200","180","2","NETTLE WEED","experimental","40","1,2,3,4,5,6,7,8","160,148.6322932317306,137.67320763072593,159.39927241200516,213.92289781213233,199.13696249130436,220.28352941815305,235.67904673714068","8,7,6,5,4,3,2,1","WHEAT CROP,WHEAT CROP,WHEAT CROP,WHEAT CROP,WHEAT CROP,WHEAT CROP,WHEAT CROP,WHEAT CROP","180,166.4840482044618,140,152.01124379390998,149.233990472698,206.04717841256976,229.06405465179145,235.3716563961739","2,1,6,5,4,3,2,1","NETTLE WEED,NETTLE WEED,THISTLE WEED,THISTLE WEED,THISTLE WEED,THISTLE WEED,THISTLE WEED,THISTLE WEED","20,20,20,20,20,20,20,20","20,20,20,20,20,20,20,20","10,10,10,10,10,10,10,10","20,20,20,20,20,20,20,20","0,0,0,0,0,0,0,0","20,20,20,20,20,20,20,20","20,20,20,20,20,20,20,20","20,20,20,20,20,20,20,20","10,10,10,10,10,10,10,10","20,20,20,20,20,20,20,20","0,0,0,0,0,0,0,0","20,20,20,20,20,20,20,20","1,1,0,0,0,0,0,1","4320,462,1016,588,1226,1196,2541,1354","-11.36770676826939,-10.959085601004697,21.726064781279245,54.523625400127166,-14.785935320827974,21.146566926848703,15.395517318987626,-10.1345671720067","-13.515951795538202,-2.890996500251783,12.01124379390999,-2.7772533212119974,56.81318793987176,23.016876239221677,6.307601744382463,-4.494235528998926","0","0"
"443","86","text","0","107","1423809","0-0","","","","","","","","","","","","","","","","","","","","","","","","","","","","","","","","","","","","",""
"","","plant-game","0","108","1447921","0-0","","200","190","8","CORN CROP","Right","200","120","1","THISTLE WEED","experimental","41","1,2,3,4,5,6,7,8","120,130,168.3932250242272,149.68485464013997,167.84823490803242,170.95597495329852,179.5969595924152,179.19859758699104","1,7,6,5,4,3,2,1","THISTLE WEED,NETTLE WEED,NETTLE WEED,NETTLE WEED,NETTLE WEED,NETTLE WEED,NETTLE WEED,NETTLE WEED","190,198.8538256683744,217.88362652891342,227.55340514968395,246.85473418189088,253.13394328277573,243.79980092509945,225.25860641924493","8,7,6,5,4,3,2,1","CORN CROP,CORN CROP,CORN CROP,CORN CROP,CORN CROP,CORN CROP,CORN CROP,CORN CROP","0,0,0,0,0,0,0,0","20,20,20,20,20,20,20,20","10,10,10,10,10,10,10,10","20,20,20,20,20,20,20,20","20,20,20,20,20,20,20,20","20,20,20,20,20,20,20,20","0,0,0,0,0,0,0,0","20,20,20,20,20,20,20,20","10,10,10,10,10,10,10,10","20,20,20,20,20,20,20,20","20,20,20,20,20,20,20,20","20,20,20,20,20,20,20,20","1,1,0,0,0,0,0,0","7918,4217,1921,544,533,612,558,1566","10.26121855051159,38.393225024227206,-18.708370384087225,18.16338026789246,3.1077400452660853,8.64098463911668,-0.3983620054241669,31.467872971308495","8.853825668374407,19.029800860539023,9.66977862077053,19.301329032206933,6.279209100884854,-9.334142357676287,-18.54119450585451,-32.35182084669375","0","0"
"503","86","text","0","109","1448544","0-0","","","","","","","","","","","","","","","","","","","","","","","","","","","","","","","","","","","","",""
"","","plant-game","0","110","1465856","0-0","","200","190","2","WHEAT CROP","Right","200","120","4","THISTLE WEED","experimental","42","1,2,3,4","120,138.4388651721835,140.10566011199495,165.26772540392682","4,3,2,1","THISTLE WEED,THISTLE WEED,THISTLE WEED,THISTLE WEED","190,185.4142590488618,180,218.92934752678025","2,1,2,1","WHEAT CROP,WHEAT CROP,CORN CROP,CORN CROP","0,0,0,0","20,20,20,20","10,10,10,10","20,20,20,20","20,20,20,20","20,20,20,20","0,0,0,0","20,20,20,20","10,10,10,10","20,20,20,20","20,20,20,20","20,20,20,20","1,1,1,1","7411,1142,1404,2984","18.43886517218352,1.6667949398114281,25.162065291931853,29.508547159412387","-4.585740951138213,45.493238846071364,38.92934752678025,30.935114514695996","0","0"
"430","86","text","0","111","1466406","0-0","","","","","","","","","","","","","","","","","","","","","","","","","","","","","","","","","","","","",""
"","","plant-game","0","112","1482785","0-0","","200","190","8","WHEAT CROP","Left","200","120","2","NETTLE WEED","experimental","43","1,2,3,4,5,6,7,8","190,202.95351558487238,233.66191276342596,279.10925831528795,301.15631939355484,295.21835712244683,323.79871536590065,353.535919079804","8,7,6,5,4,3,2,1","WHEAT CROP,WHEAT CROP,WHEAT CROP,WHEAT CROP,WHEAT CROP,WHEAT CROP,WHEAT CROP,WHEAT CROP","120,154.01549565674836,140,169.68933538990237,170.35935756371398,166.71883036649342,165.1380010324584,156.20506647221657","2,1,6,5,4,3,2,1","NETTLE WEED,NETTLE WEED,THISTLE WEED,THISTLE WEED,THISTLE WEED,THISTLE WEED,THISTLE WEED,THISTLE WEED","20,20,20,20,20,20,20,20","20,20,20,20,20,20,20,20","10,10,10,10,10,10,10,10","20,20,20,20,20,20,20,20","0,0,0,0,0,0,0,0","20,20,20,20,20,20,20,20","20,20,20,20,20,20,20,20","20,20,20,20,20,20,20,20","10,10,10,10,10,10,10,10","20,20,20,20,20,20,20,20","0,0,0,0,0,0,0,0","20,20,20,20,20,20,20,20","0,0,0,1,1,1,1,1","4417,840,3212,804,432,535,459,445","12.953515584872392,30.708397178553597,45.447345551862,22.047061078266893,-5.937962271108005,28.580358243453805,29.73720371390335,12.358963187263868","34.01549565674835,32.060077490859584,29.689335389902357,0.6700221738116308,-3.6405271972205497,-1.5808293340350237,-8.93293456024183,-12.164916948400062","0","0"
"486","86","text","0","113","1483401","0-0","","","","","","","","","","","","","","","","","","","","","","","","","","","","","","","","","","","","",""
"","","plant-game","0","114","1496458","0-0","","200","190","1","CORN CROP","Right","200","190","2","NETTLE WEED","experimental","44","1,2","190,178.56322158557845","2,1","NETTLE WEED,NETTLE WEED","190,190","1,1","CORN CROP,WHEAT CROP","0,0","20,20","10,10","20,20","20,20","20,20","0,0","20,20","10,10","20,20","20,20","20,20","1,1","4899,3743","-11.436778414421568,40.83535848956099","23.867555162431692,24.13112966089288","0","0"
"794","86","text","0","115","1497392","0-0","","","","","","","","","","","","","","","","","","","","","","","","","","","","","","","","","","","","",""
"","","plant-game","0","116","1523646","0-0","","200","160","2","WHEAT CROP","Left","200","160","8","NETTLE WEED","experimental","45","1,2,3,4,5,6,7,8","160,165.2211570332781,140,153.9246773989404,148.28912007168486,165.18631151902156,194.0586176914763,222.97981222713017","2,1,6,5,4,3,2,1","WHEAT CROP,WHEAT CROP,CORN CROP,CORN CROP,CORN CROP,CORN CROP,CORN CROP,CORN CROP","160,201.05438407476862,196.7883652867045,221.3604965204279,237.93282410771684,262.5198956834531,265.5555259783124,273.0587085490133","8,7,6,5,4,3,2,1","NETTLE WEED,NETTLE WEED,NETTLE WEED,NETTLE WEED,NETTLE WEED,NETTLE WEED,NETTLE WEED,NETTLE WEED","20,20,20,20,20,20,20,20","20,20,20,20,20,20,20,20","10,10,10,10,10,10,10,10","20,20,20,20,20,20,20,20","0,0,0,0,0,0,0,0","20,20,20,20,20,20,20,20","20,20,20,20,20,20,20,20","20,20,20,20,20,20,20,20","10,10,10,10,10,10,10,10","20,20,20,20,20,20,20,20","0,0,0,0,0,0,0,0","20,20,20,20,20,20,20,20","0,1,0,0,0,0,0,1","7058,3023,6523,435,588,556,1125,1821","5.221157033278093,-38.8319912806064,13.924677398940398,-5.635557327255523,16.897191447336688,28.872306172454742,28.92119453565388,0.4653791740299759","41.05438407476863,-4.26601878806413,24.57213123372339,16.572327587288957,24.58707157573625,3.0356302948593097,7.5031825707009325,22.589098094668785","0","0"
"399","86","text","0","117","1524152","0-0","","","","","","","","","","","","","","","","","","","","","","","","","","","","","","","","","","","","",""
"","","plant-game","0","118","1535636","0-0","","200","180","1","CORN CROP","Right","200","120","2","NETTLE WEED","experimental","46","1,2","120,122.44063903849731","2,1","NETTLE WEED,NETTLE WEED","180,190","1,1","CORN CROP,WHEAT CROP","0,0","20,20","10,10","20,20","20,20","20,20","0,0","20,20","10,10","20,20","20,20","20,20","1,1","3811,3102","2.440639038497306,11.412323449814185","25.642097786486826,-3.2877828954685313","0","0"
"418","86","text","0","119","1536214","0-0","","","","","","","","","","","","","","","","","","","","","","","","","","","","","","","","","","","","",""
"","","plant-game","0","120","1546063","0-0","","200","190","2","CORN CROP","Right","200","190","1","THISTLE WEED","experimental","47","1,2","190,190","1,1","THISTLE WEED,NETTLE WEED","190,178.78280941670647","2,1","CORN CROP,CORN CROP","0,0","20,20","10,10","20,20","20,20","20,20","0,0","20,20","10,10","20,20","20,20","20,20","0,1","3714,1159","-12.707037517926992,1.1889816032661642","-11.217190583293519,16.022892069594004","0","0"
"626","86","text","0","121","1546830","0-0","","","","","","","","","","","","","","","","","","","","","","","","","","","","","","","","","","","","",""
"","","plant-game","0","122","1572140","0-0","","200","180","8","WHEAT CROP","Left","200","190","4","THISTLE WEED","experimental","48","1,2,3,4,5,6,7,8","180,173.6551285035867,204.7064426637052,213.78311493700764,227.43133626154415,234.26069049178028,235.0370516947662,244.2119514135278","8,7,6,5,4,3,2,1","WHEAT CROP,WHEAT CROP,WHEAT CROP,WHEAT CROP,WHEAT CROP,WHEAT CROP,WHEAT CROP,WHEAT CROP","190,185.19529818589493,167.36972723098714,167.29800178066336,160,178.0187354883848,139.60484434119397,148.35503206432728","4,3,2,1,4,3,2,1","THISTLE WEED,THISTLE WEED,THISTLE WEED,THISTLE WEED,NETTLE WEED,NETTLE WEED,NETTLE WEED,NETTLE WEED","20,20,20,20,20,20,20,20","20,20,20,20,20,20,20,20","10,10,10,10,10,10,10,10","20,20,20,20,20,20,20,20","0,0,0,0,0,0,0,0","20,20,20,20,20,20,20,20","20,20,20,20,20,20,20,20","20,20,20,20,20,20,20,20","10,10,10,10,10,10,10,10","20,20,20,20,20,20,20,20","0,0,0,0,0,0,0,0","20,20,20,20,20,20,20,20","1,1,1,1,1,1,1,1","5222,1086,1930,2476,7145,636,928,709","-6.3448714964132975,31.0513141601185,9.076672273302451,13.648221324536498,6.82935423023612,0.7763612029859299,9.174899718761605,29.150037283276376","-4.804701814105084,-17.8255709549078,-0.0717254503237863,-33.608737019215134,18.018735488384806,-38.41389114719084,8.750187723133315,8.882025952183156","0","0"
"2914","86","text","0","123","1575195","0-0","","","","","","","","","","","","","","","","","","","","","","","","","","","","","","","","","","","","",""
"","","plant-game","0","124","1596175","0-0","","200","190","8","CORN CROP","Left","200","160","8","THISTLE WEED","experimental","49","1,2,3,4,5,6,7,8","190,194.34123007587067,198.98094618071846,185.70338691736123,187.22871213281465,195.7864655132993,214.74520581231093,244.40467350798022","8,7,6,5,4,3,2,1","CORN CROP,CORN CROP,CORN CROP,CORN CROP,CORN CROP,CORN CROP,CORN CROP,CORN CROP","160,176.19311817670464,135.37796629269863,185.34199705190198,180.11627474873384,159.07825012205254,158.75915615917455,164.14375915203848","8,7,6,5,4,3,2,1","THISTLE WEED,THISTLE WEED,THISTLE WEED,THISTLE WEED,THISTLE WEED,THISTLE WEED,THISTLE WEED,THISTLE WEED","20,20,20,20,20,20,20,20","20,20,20,20,20,20,20,20","10,10,10,10,10,10,10,10","20,20,20,20,20,20,20,20","0,0,0,0,0,0,0,0","20,20,20,20,20,20,20,20","20,20,20,20,20,20,20,20","20,20,20,20,20,20,20,20","10,10,10,10,10,10,10,10","20,20,20,20,20,20,20,20","0,0,0,0,0,0,0,0","20,20,20,20,20,20,20,20","0,1,0,1,1,0,1,1","5815,2916,901,1801,2158,1104,1493,961","4.341230075870659,4.639716104847781,-13.277559263357226,1.5253252154534336,8.557753380484668,18.958740299011616,29.6594676956693,-0.13792369886728204","16.19311817670464,-40.81515188400602,49.964030759203354,-5.2257223031681495,-21.03802462668131,-0.31909396287797875,5.38460299286394,25.269999816578128","0","0"
"520","86","text","0","125","1596815","0-0","","","","","","","","","","","","","","","","","","","","","","","","","","","","","","","","","","","","",""
"","","plant-game","0","126","1610683","0-0","","200","160","1","WHEAT CROP","Right","200","180","2","NETTLE WEED","experimental","50","1,2","180,192.012009584309","2,1","NETTLE WEED,NETTLE WEED","160,190","1,1","WHEAT CROP,CORN CROP","0,0","20,20","10,10","20,20","20,20","20,20","0,0","20,20","10,10","20,20","20,20","20,20","0,0","5101,3065","12.012009584308991,5.841983315355121","1.1679312340568497,10.854093461873903","0","0"
"598","86","text","0","127","1611388","0-0","","","","","","","","","","","","","","","","","","","","","","","","","","","","","","","","","","","","",""
"","","plant-game","0","128","1627780","0-0","","200","120","2","WHEAT CROP","Right","200","120","4","THISTLE WEED","experimental","51","1,2,3,4","120,112.53208625208215,105.0032173717232,115.0609155070855","4,3,2,1","THISTLE WEED,THISTLE WEED,THISTLE WEED,THISTLE WEED","120,111.215358750524,180,165.20944457622457","2,1,2,1","WHEAT CROP,WHEAT CROP,CORN CROP,CORN CROP","0,0,0,0","20,20,20,20","10,10,10,10","20,20,20,20","20,20,20,20","20,20,20,20","0,0,0,0","20,20,20,20","10,10,10,10","20,20,20,20","20,20,20,20","20,20,20,20","0,0,1,1","7377,438,1787,531","-7.467913747917844,-7.528868880358951,10.057698135362307,15.547162839755387","-8.784641249476001,27.76159626718897,-14.79055542377543,-3.1233390990411607","0","0"
"478","86","text","0","129","1628367","0-0","","","","","","","","","","","","","","","","","","","","","","","","","","","","","","","","","","","","",""
"","","plant-game","0","130","1646955","0-0","","200","120","8","CORN CROP","Right","200","120","2","THISTLE WEED","experimental","52","1,2,3,4,5,6,7,8","120,137.25423288579668,140,153.32230395830388,161.57601317630218,163.53039613591287,177.93622276298143,158.47257870265082","2,1,6,5,4,3,2,1","THISTLE WEED,THISTLE WEED,NETTLE WEED,NETTLE WEED,NETTLE WEED,NETTLE WEED,NETTLE WEED,NETTLE WEED","120,128.2229710976887,133.23237153782378,166.62757235112628,248.17389999587994,222.16097174594074,223.68430224768838,246.62854243091562","8,7,6,5,4,3,2,1","CORN CROP,CORN CROP,CORN CROP,CORN CROP,CORN CROP,CORN CROP,CORN CROP,CORN CROP","0,0,0,0,0,0,0,0","20,20,20,20,20,20,20,20","10,10,10,10,10,10,10,10","20,20,20,20,20,20,20,20","20,20,20,20,20,20,20,20","20,20,20,20,20,20,20,20","0,0,0,0,0,0,0,0","20,20,20,20,20,20,20,20","10,10,10,10,10,10,10,10","20,20,20,20,20,20,20,20","20,20,20,20,20,20,20,20","20,20,20,20,20,20,20,20","1,1,1,1,0,1,0,0","5045,536,2182,651,2310,960,997,860","17.25423288579669,22.050424000291525,13.322303958303879,8.253709217998304,1.9543829596106854,14.405826627068556,-19.46364406033062,30.411545847398195","8.222971097688722,5.009400440135078,33.3952008133025,81.54632764475365,-26.012928249939197,1.5233305017476226,22.944240183227244,-28.76529896788697","0","0"
"554","86","text","0","131","1647619","0-0","","","","","","","","","","","","","","","","","","","","","","","","","","","","","","","","","","","","",""
"","","plant-game","0","132","1668941","0-0","","200","160","4","WHEAT CROP","Right","200","180","2","THISTLE WEED","experimental","53","1,2,3,4","180,156.63865199669195,180,221.4296073293021","2,1,2,1","THISTLE WEED,THISTLE WEED,NETTLE WEED,NETTLE WEED","160,135.9305432838631,178.86909531846564,204.3591246195487","4,3,2,1","WHEAT CROP,WHEAT CROP,WHEAT CROP,WHEAT CROP","0,0,0,0","20,20,20,20","10,10,10,10","20,20,20,20","20,20,20,20","20,20,20,20","0,0,0,0","20,20,20,20","10,10,10,10","20,20,20,20","20,20,20,20","20,20,20,20","0,1,0,1","7790,963,4249,3360","-23.361348003308056,24.662272365441662,41.4296073293021,48.761574060919244","-24.06945671613691,42.93855203460254,25.49002930108307,27.505607890115954","0","0"
"471","86","text","0","133","1669552","0-0","","","","","","","","","","","","","","","","","","","","","","","","","","","","","","","","","","","","",""
"","","plant-game","0","134","1684851","0-0","","200","160","2","WHEAT CROP","Left","200","160","1","THISTLE WEED","experimental","54","1,2","160,169.90002951008375","2,1","WHEAT CROP,WHEAT CROP","160,190","1,1","THISTLE WEED,NETTLE WEED","20,20","20,20","10,10","20,20","0,0","20,20","20,20","20,20","10,10","20,20","0,0","20,20","0,1","3864,5824","9.900029510083765,-52.158132888481944","33.987106438708075,17.786338153327502","0","0"
"594","86","text","0","135","1685595","0-0","","","","","","","","","","","","","","","","","","","","","","","","","","","","","","","","","","","","",""
"","","plant-game","0","136","1706126","0-0","","200","120","2","CORN CROP","Right","200","160","1","THISTLE WEED","experimental","55","1,2","160,190","1,1","THISTLE WEED,NETTLE WEED","120,90.77833861574221","2,1","CORN CROP,CORN CROP","0,0","20,20","10,10","20,20","20,20","20,20","0,0","20,20","10,10","20,20","20,20","20,20","1,0","13403,2682","36.82025053713292,3.9257541314358595","-29.221661384257786,31.242477676471616","0","0"
"542","86","text","0","137","1706840","0-0","","","","","","","","","","","","","","","","","","","","","","","","","","","","","","","","","","","","",""
"","","plant-game","0","138","1729427","0-0","","200","190","8","CORN CROP","Left","200","190","2","THISTLE WEED","experimental","56","1,2,3,4,5,6,7,8","190,188.1254143503277,203.54604428225042,263.39933047745274,227.82501371436737,217.98201863477288,255.04691797717584,256.6822744874959","8,7,6,5,4,3,2,1","CORN CROP,CORN CROP,CORN CROP,CORN CROP,CORN CROP,CORN CROP,CORN CROP,CORN CROP","190,217.6228990862183,140,167.42419460533915,146.53077794689597,131.13333441888773,137.16404589442186,146.17931180964473","2,1,6,5,4,3,2,1","THISTLE WEED,THISTLE WEED,NETTLE WEED,NETTLE WEED,NETTLE WEED,NETTLE WEED,NETTLE WEED,NETTLE WEED","20,20,20,20,20,20,20,20","20,20,20,20,20,20,20,20","10,10,10,10,10,10,10,10","20,20,20,20,20,20,20,20","0,0,0,0,0,0,0,0","20,20,20,20,20,20,20,20","20,20,20,20,20,20,20,20","20,20,20,20,20,20,20,20","10,10,10,10,10,10,10,10","20,20,20,20,20,20,20,20","0,0,0,0,0,0,0,0","20,20,20,20,20,20,20,20","1,1,0,1,1,0,1,1","9799,1597,2383,808,572,682,600,741","-1.8745856496722937,15.42062993192273,59.85328619520229,-35.57431676308536,-9.842995079594477,37.06489934240294,1.6353565103200227,-10.417974304419918","27.62289908621831,2.3397786979167314,27.42419460533915,-20.89341665844319,-15.397443528008237,6.030711475534144,9.01526591522286,-20.147813139748713","0","0"
"475","86","text","0","139","1730042","0-0","","","","","","","","","","","","","","","","","","","","","","","","","","","","","","","","","","","","",""
"","","plant-game","0","140","1754359","0-0","","200","120","2","WHEAT CROP","Right","200","190","8","THISTLE WEED","experimental","57","1,2,3,4,5,6,7,8","190,165.7314430024289,139.4053219956889,142.29023011138852,192.50722971794457,257.1535261542385,291.6569324606883,324.65240898456454","8,7,6,5,4,3,2,1","THISTLE WEED,THISTLE WEED,THISTLE WEED,THISTLE WEED,THISTLE WEED,THISTLE WEED,THISTLE WEED,THISTLE WEED","120,118.05775615181045,140,162.92995174953936,184.0442385867953,182.80649899913467,201.61585302344176,229.08764265770387","2,1,6,5,4,3,2,1","WHEAT CROP,WHEAT CROP,CORN CROP,CORN CROP,CORN CROP,CORN CROP,CORN CROP,CORN CROP","0,0,0,0,0,0,0,0","20,20,20,20,20,20,20,20","10,10,10,10,10,10,10,10","20,20,20,20,20,20,20,20","20,20,20,20,20,20,20,20","20,20,20,20,20,20,20,20","0,0,0,0,0,0,0,0","20,20,20,20,20,20,20,20","10,10,10,10,10,10,10,10","20,20,20,20,20,20,20,20","20,20,20,20,20,20,20,20","20,20,20,20,20,20,20,20","0,0,1,1,1,1,1,0","4452,886,5680,442,1263,2967,1998,1095","-24.268556997571086,-26.32612100674002,2.8849081156996235,50.21699960655605,64.64629643629391,34.50340630644984,32.99547652387625,5.8726987709079035","-1.94224384818955,-5.6100712935662305,22.92995174953935,21.114286837255953,-1.23773958766062,18.809354024307073,27.471789634262116,-9.546576956090881","0","0"
"504","86","text","0","141","1755083","0-0","","","","","","","","","","","","","","","","","","","","","","","","","","","","","","","","","","","","",""
"","","plant-game","0","142","1784059","0-0","","200","180","4","WHEAT CROP","Right","200","120","2","NETTLE WEED","experimental","58","1,2,3,4","120,136.38618382117681,180,168.8610966665191","2,1,2,1","NETTLE WEED,NETTLE WEED,THISTLE WEED,THISTLE WEED","180,223.7248819712619,238.23027038888,251.12737114225584","4,3,2,1","WHEAT CROP,WHEAT CROP,WHEAT CROP,WHEAT CROP","0,0,0,0","20,20,20,20","10,10,10,10","20,20,20,20","20,20,20,20","20,20,20,20","0,0,0,0","20,20,20,20","10,10,10,10","20,20,20,20","20,20,20,20","20,20,20,20","1,1,0,0","5545,2606,14520,1286","16.38618382117682,23.398083624979765,-11.13890333348089,1.887584869006739","43.72488197126191,14.505388417618096,12.897100753375826,-34.66322424080901","0","0"
"518","86","text","0","143","1784733","0-0","","","","","","","","","","","","","","","","","","","","","","","","","","","","","","","","","","","","",""
"","","plant-game","0","144","1806269","0-0","","200","160","8","WHEAT CROP","Right","200","160","4","THISTLE WEED","experimental","59","1,2,3,4,5,6,7,8","160,186.99117990666457,175.15424625099007,232.77968339702124,160,193.92117703885853,183.40792784890039,184.20066359506606","4,3,2,1,4,3,2,1","THISTLE WEED,THISTLE WEED,THISTLE WEED,THISTLE WEED,NETTLE WEED,NETTLE WEED,NETTLE WEED,NETTLE WEED","160,192.60444327595778,192.10741341206258,234.40901412435628,248.042301700875,256.1142711400887,298.2628848862612,294.46585828776415","8,7,6,5,4,3,2,1","WHEAT CROP,WHEAT CROP,WHEAT CROP,WHEAT CROP,WHEAT CROP,WHEAT CROP,WHEAT CROP,WHEAT CROP","0,0,0,0,0,0,0,0","20,20,20,20,20,20,20,20","10,10,10,10,10,10,10,10","20,20,20,20,20,20,20,20","20,20,20,20,20,20,20,20","20,20,20,20,20,20,20,20","0,0,0,0,0,0,0,0","20,20,20,20,20,20,20,20","10,10,10,10,10,10,10,10","20,20,20,20,20,20,20,20","20,20,20,20,20,20,20,20","20,20,20,20,20,20,20,20","1,0,1,0,0,0,0,0","5874,2690,1032,730,3203,946,466,551","26.991179906664573,-11.836933655674489,57.62543714603117,-17.769387094308083,33.921177038858524,-10.513249189958154,0.7927357461656819,0.2626363075015919","32.604443275957784,-0.49702986389518367,42.301600712293684,13.63328757651872,8.07196943921374,42.148613746172465,-3.797026598497029,-14.433511565551193","0","0"
"691","86","text","0","145","1807150","0-0","","","","","","","","","","","","","","","","","","","","","","","","","","","","","","","","","","","","",""
"","","plant-game","0","146","1823563","0-0","","200","160","8","WHEAT CROP","Left","200","190","1","THISTLE WEED","experimental","60","1,2,3,4,5,6,7,8","160,210.36006273300472,203.18576432647194,195.7830728402214,217.6852166634448,241.4769913348897,265.5783792821852,264.9943636893989","8,7,6,5,4,3,2,1","WHEAT CROP,WHEAT CROP,WHEAT CROP,WHEAT CROP,WHEAT CROP,WHEAT CROP,WHEAT CROP,WHEAT CROP","190,130,107.40037043624653,93.06981177906414,80.91138102513378,92.35000867833794,113.40431505771906,150.04310962287323","1,7,6,5,4,3,2,1","THISTLE WEED,NETTLE WEED,NETTLE WEED,NETTLE WEED,NETTLE WEED,NETTLE WEED,NETTLE WEED,NETTLE WEED","20,20,20,20,20,20,20,20","20,20,20,20,20,20,20,20","10,10,10,10,10,10,10,10","20,20,20,20,20,20,20,20","0,0,0,0,0,0,0,0","20,20,20,20,20,20,20,20","20,20,20,20,20,20,20,20","20,20,20,20,20,20,20,20","10,10,10,10,10,10,10,10","20,20,20,20,20,20,20,20","0,0,0,0,0,0,0,0","20,20,20,20,20,20,20,20","0,1,1,0,0,1,1,1","2292,2453,1058,448,1653,846,765,638","50.360062733004725,-7.174298406532795,-7.40269148625056,21.902143823223415,23.791774671444895,24.10138794729552,-0.5840155927863147,8.387294202891058","22.295369259396985,-22.59962956375347,-14.330558657182397,-12.15843075393036,11.438627653204165,21.054306379381124,36.63879456515418,-1.5949564074723135","0","0"
"529","86","text","0","147","1824262","0-0","","","","","","","","","","","","","","","","","","","","","","","","","","","","","","","","","","","","",""
"","","plant-game","0","148","1836838","0-0","","200","160","1","WHEAT CROP","Left","200","160","2","THISTLE WEED","experimental","61","1,2","160,190","1,1","WHEAT CROP,CORN CROP","160,170.00948754569956","2,1","THISTLE WEED,THISTLE WEED","20,20","20,20","10,10","20,20","0,0","20,20","20,20","20,20","10,10","20,20","0,0","20,20","1,0","5075,2323","-10.198313061676181,-27.078772045273936","10.009487545699551,10.46966667369064","0","0"
"471","86","text","0","149","1837528","0-0","","","","","","","","","","","","","","","","","","","","","","","","","","","","","","","","","","","","",""
"","","plant-game","0","150","1853918","0-0","","200","190","8","WHEAT CROP","Right","200","120","8","THISTLE WEED","experimental","62","1,2,3,4,5,6,7,8","120,169.29612887500716,194.32162694193698,201.84444204713475,239.10524271473787,249.8442454610309,287.17448652375003,308.1775800535336","8,7,6,5,4,3,2,1","THISTLE WEED,THISTLE WEED,THISTLE WEED,THISTLE WEED,THISTLE WEED,THISTLE WEED,THISTLE WEED,THISTLE WEED","190,166.13569799019155,145.1217470670175,191.11866839085855,193.5605405456523,161.506686520306,176.9031444133306,209.65120955734753","8,7,6,5,4,3,2,1","WHEAT CROP,WHEAT CROP,WHEAT CROP,WHEAT CROP,WHEAT CROP,WHEAT CROP,WHEAT CROP,WHEAT CROP","0,0,0,0,0,0,0,0","20,20,20,20,20,20,20,20","10,10,10,10,10,10,10,10","20,20,20,20,20,20,20,20","20,20,20,20,20,20,20,20","20,20,20,20,20,20,20,20","0,0,0,0,0,0,0,0","20,20,20,20,20,20,20,20","10,10,10,10,10,10,10,10","20,20,20,20,20,20,20,20","20,20,20,20,20,20,20,20","20,20,20,20,20,20,20,20","1,1,0,0,0,1,1,1","4173,1055,1120,585,3096,706,803,1012","49.29612887500715,25.025498066929835,7.522815105197765,37.260800667603135,10.739002746293027,37.3302410627191,21.00309352978353,25.996699014362125","-23.86430200980847,-21.013950923174043,45.996921323841036,2.441872154793736,-32.05385402534629,15.396457893024593,32.74806514401691,-4.559634044852643","0","0"
"543","86","text","0","151","1854659","0-0","","","","","","","","","","","","","","","","","","","","","","","","","","","","","","","","","","","","",""
"","","plant-game","0","152","1879497","0-0","","200","160","8","CORN CROP","Left","200","180","1","THISTLE WEED","experimental","63","1,2,3,4,5,6,7,8","160,130.25758486607396,198.95105421109807,231.226683892799,245.5781323004834,281.4575480360709,295.8914357829986,297.3520251970179","8,7,6,5,4,3,2,1","CORN CROP,CORN CROP,CORN CROP,CORN CROP,CORN CROP,CORN CROP,CORN CROP,CORN CROP","180,130,128.49511449522953,158.8231091649426,149.46943297315173,142.40721665277502,165.42945518081308,166.8527999135394","1,7,6,5,4,3,2,1","THISTLE WEED,NETTLE WEED,NETTLE WEED,NETTLE WEED,NETTLE WEED,NETTLE WEED,NETTLE WEED,NETTLE WEED","20,20,20,20,20,20,20,20","20,20,20,20,20,20,20,20","10,10,10,10,10,10,10,10","20,20,20,20,20,20,20,20","0,0,0,0,0,0,0,0","20,20,20,20,20,20,20,20","20,20,20,20,20,20,20,20","20,20,20,20,20,20,20,20","10,10,10,10,10,10,10,10","20,20,20,20,20,20,20,20","0,0,0,0,0,0,0,0","20,20,20,20,20,20,20,20","1,0,0,1,1,1,1,1","11855,1507,819,1366,923,724,784,546","-29.74241513392603,68.69346934502411,32.27562968170094,14.351448407684392,35.8794157355875,14.433887746927725,1.4605894140192928,-0.6305313070711718","30.11865916078402,-1.504885504770467,30.327994669713057,-9.35367619179086,-7.062216320376718,23.02223852803806,1.423344732726325,-17.70820054141774","0","0"
"618","86","text","0","153","1880335","0-0","","","","","","","","","","","","","","","","","","","","","","","","","","","","","","","","","","","","",""
"","","plant-game","0","154","1896287","0-0","","200","160","8","CORN CROP","Right","200","160","8","NETTLE WEED","experimental","64","1,2,3,4,5,6,7,8","160,172.08146529901026,191.67616478384167,180.883429380277,190.79095350734065,217.50389523024745,212.5884346747862,219.7623559418816","8,7,6,5,4,3,2,1","NETTLE WEED,NETTLE WEED,NETTLE WEED,NETTLE WEED,NETTLE WEED,NETTLE WEED,NETTLE WEED,NETTLE WEED","160,184.5079448358519,209.47867016494328,252.2976986712622,224.26717454452594,218.61342280699404,203.80411788121654,230.07997469471894","8,7,6,5,4,3,2,1","CORN CROP,CORN CROP,CORN CROP,CORN CROP,CORN CROP,CORN CROP,CORN CROP,CORN CROP","0,0,0,0,0,0,0,0","20,20,20,20,20,20,20,20","10,10,10,10,10,10,10,10","20,20,20,20,20,20,20,20","20,20,20,20,20,20,20,20","20,20,20,20,20,20,20,20","0,0,0,0,0,0,0,0","20,20,20,20,20,20,20,20","10,10,10,10,10,10,10,10","20,20,20,20,20,20,20,20","20,20,20,20,20,20,20,20","20,20,20,20,20,20,20,20","1,1,0,0,0,0,0,0","4590,545,1327,676,1177,1592,1129,1210","12.081465299010258,19.59469948483142,-10.792735403564677,9.907524127063638,26.712941722906812,-4.915460555461234,7.173921267095366,15.944879518283736","24.507944835851912,24.970725329091373,42.81902850631893,-28.030524126736257,-5.65375173753192,-14.809304925777509,26.275856813502404,12.33163089101943","0","0"
"3211","86","text","0","155","1899658","0-0","","","","","","","","","","","","","","","","","","","","","","","","","","","","","","","","","","","","",""
"","","plant-game","0","156","1917567","0-0","","200","180","4","CORN CROP","Right","200","160","4","THISTLE WEED","experimental","65","1,2,3,4","160,176.57172958757576,173.2503029047665,161.6125660882158","4,3,2,1","THISTLE WEED,THISTLE WEED,THISTLE WEED,THISTLE WEED","180,178.67235457875657,205.9680950179969,190.34765922190405","4,3,2,1","CORN CROP,CORN CROP,CORN CROP,CORN CROP","0,0,0,0","20,20,20,20","10,10,10,10","20,20,20,20","20,20,20,20","20,20,20,20","0,0,0,0","20,20,20,20","10,10,10,10","20,20,20,20","20,20,20,20","20,20,20,20","1,1,1,1","10309,621,2259,1150","16.571729587575746,-3.3214266828092676,-11.63773681655071,33.44798451833775","-1.3276454212434388,27.29574043924032,-15.62043579609282,1.261617737726766","0","0"
"553","86","text","0","157","1918260","0-0","","","","","","","","","","","","","","","","","","","","","","","","","","","","","","","","","","","","",""
"","","plant-game","0","158","1941840","0-0","","200","120","2","CORN CROP","Left","200","180","8","NETTLE WEED","experimental","66","1,2,3,4,5,6,7,8","120,90.10651258950868,140,141.6637831640107,135.1785852234652,184.95267219588436,207.01553636544162,180.06736877907284","2,1,6,5,4,3,2,1","CORN CROP,CORN CROP,WHEAT CROP,WHEAT CROP,WHEAT CROP,WHEAT CROP,WHEAT CROP,WHEAT CROP","180,168.09003795807632,201.11596363966163,178.51621168022157,150.55742272707678,161.38525148217963,193.93482776411136,205.9145900562173","8,7,6,5,4,3,2,1","NETTLE WEED,NETTLE WEED,NETTLE WEED,NETTLE WEED,NETTLE WEED,NETTLE WEED,NETTLE WEED,NETTLE WEED","20,20,20,20,20,20,20,20","20,20,20,20,20,20,20,20","10,10,10,10,10,10,10,10","20,20,20,20,20,20,20,20","0,0,0,0,0,0,0,0","20,20,20,20,20,20,20,20","20,20,20,20,20,20,20,20","20,20,20,20,20,20,20,20","10,10,10,10,10,10,10,10","20,20,20,20,20,20,20,20","0,0,0,0,0,0,0,0","20,20,20,20,20,20,20,20","1,1,1,1,0,0,1,1","4802,402,2783,892,1642,1390,943,4680","-29.893487410491318,24.050910315621195,1.6637831640107235,-6.485197940545517,49.77408697241917,22.06286416955726,-26.948167586368783,9.087583971772856","-11.909962041923679,33.02592568158532,-22.599751959440066,-27.958788953144783,10.827828755102837,32.54957628193174,11.979762292105942,-2.4396526083936614","0","0"
"505","86","text","0","159","1942506","0-0","","","","","","","","","","","","","","","","","","","","","","","","","","","","","","","","","","","","",""
"","","plant-game","0","160","1961104","0-0","","200","120","8","WHEAT CROP","Right","200","160","1","NETTLE WEED","experimental","67","1,2,3,4,5,6,7,8","160,130,121.45592882889686,112.8904290609634,164.99618616296877,186.054367762906,166.52540970444443,205.1894927535991","1,7,6,5,4,3,2,1","NETTLE WEED,THISTLE WEED,THISTLE WEED,THISTLE WEED,THISTLE WEED,THISTLE WEED,THISTLE WEED,THISTLE WEED","120,182.2995266573507,177.7588734402168,177.40649430191806,203.32410958230827,205.29851789299164,181.02411690989103,201.93343555978794","8,7,6,5,4,3,2,1","WHEAT CROP,WHEAT CROP,WHEAT CROP,WHEAT CROP,WHEAT CROP,WHEAT CROP,WHEAT CROP,WHEAT CROP","0,0,0,0,0,0,0,0","20,20,20,20,20,20,20,20","10,10,10,10,10,10,10,10","20,20,20,20,20,20,20,20","20,20,20,20,20,20,20,20","20,20,20,20,20,20,20,20","0,0,0,0,0,0,0,0","20,20,20,20,20,20,20,20","10,10,10,10,10,10,10,10","20,20,20,20,20,20,20,20","20,20,20,20,20,20,20,20","20,20,20,20,20,20,20,20","1,1,1,1,1,0,1,0","3547,2975,619,924,951,1495,710,1044","25.838821203968017,-8.544071171103145,-8.565499767933463,52.10575710200538,21.058181599937235,-19.528958058461566,38.66408304915467,-6.537126884687354","62.29952665735069,-4.540653217133901,-0.35237913829874756,25.9176152803902,1.974408310683387,-24.274400983100612,20.909318649896903,-7.787011229663072","0","0"
"533","86","text","0","161","1961837","0-0","","","","","","","","","","","","","","","","","","","","","","","","","","","","","","","","","","","","",""
"","","plant-game","0","162","1974629","0-0","","200","160","2","WHEAT CROP","Right","200","160","2","THISTLE WEED","experimental","68","1,2","160,165.4703108976575","2,1","THISTLE WEED,THISTLE WEED","160,145.41833948129135","2,1","WHEAT CROP,WHEAT CROP","0,0","20,20","10,10","20,20","20,20","20,20","0,0","20,20","10,10","20,20","20,20","20,20","1,0","5370,4239","5.4703108976575106,-2.262452234188645","-14.58166051870866,4.201976849390816","0","0"
"518","86","text","0","163","1975366","0-0","","","","","","","","","","","","","","","","","","","","","","","","","","","","","","","","","","","","",""
"","","plant-game","0","164","1991972","0-0","","200","120","1","WHEAT CROP","Right","200","160","4","THISTLE WEED","experimental","69","1,2,3,4","160,143.96031226397355,134.87889669062855,141.63548893834852","4,3,2,1","THISTLE WEED,THISTLE WEED,THISTLE WEED,THISTLE WEED","120,170,209.90984203250275,210.45706636553277","1,3,2,1","WHEAT CROP,CORN CROP,CORN CROP,CORN CROP","0,0,0,0","20,20,20,20","10,10,10,10","20,20,20,20","20,20,20,20","20,20,20,20","0,0,0,0","20,20,20,20","10,10,10,10","20,20,20,20","20,20,20,20","20,20,20,20","0,1,1,1","3999,5492,1100,1175","-16.03968773602645,-9.081415573345012,6.75659224771996,-17.150250758522922","17.1203719003501,39.90984203250274,0.5472243330300195,15.337527394130277","0","0"
"500","86","text","0","165","1992642","0-0","","","","","","","","","","","","","","","","","","","","","","","","","","","","","","","","","","","","",""
"","","plant-game","0","166","2018613","0-0","","200","190","4","CORN CROP","Right","200","120","8","NETTLE WEED","experimental","70","1,2,3,4,5,6,7,8","120,135.74734467899953,123.04865344901873,173.79810967720044,173.05761944690875,209.69211162392094,195.65861499980963,260.7588088182437","8,7,6,5,4,3,2,1","NETTLE WEED,NETTLE WEED,NETTLE WEED,NETTLE WEED,NETTLE WEED,NETTLE WEED,NETTLE WEED,NETTLE WEED","190,204.03948682392746,246.956738619771,297.2509504888572,160,175.00212357986,160.34621477690797,203.13132499474034","4,3,2,1,4,3,2,1","CORN CROP,CORN CROP,CORN CROP,CORN CROP,WHEAT CROP,WHEAT CROP,WHEAT CROP,WHEAT CROP","0,0,0,0,0,0,0,0","20,20,20,20,20,20,20,20","10,10,10,10,10,10,10,10","20,20,20,20,20,20,20,20","20,20,20,20,20,20,20,20","20,20,20,20,20,20,20,20","0,0,0,0,0,0,0,0","20,20,20,20,20,20,20,20","10,10,10,10,10,10,10,10","20,20,20,20,20,20,20,20","20,20,20,20,20,20,20,20","20,20,20,20,20,20,20,20","1,1,1,0,1,1,1,1","9521,2115,637,797,1942,2701,441,2537","15.74734467899951,-12.698691229980803,50.7494562281817,-0.74049023029171,36.634492177012206,-14.033496624111294,65.1001938184341,-10.620039873432738","14.039486823927456,42.91725179584352,50.29421186908621,-6.021591462838244,15.002123579860013,-14.655908802952055,42.785110217832376,10.570581065074679","0","0"
"445","86","text","0","167","2019198","0-0","","","","","","","","","","","","","","","","","","","","","","","","","","","","","","","","","","","","",""
"","","plant-game","0","168","2042216","0-0","","200","160","4","WHEAT CROP","Left","200","160","8","NETTLE WEED","experimental","71","1,2,3,4,5,6,7,8","160,211.47617518193582,186.93456349334798,205.4385045689199,160,217.8262252977654,238.9785914732849,246.50862693313334","4,3,2,1,4,3,2,1","WHEAT CROP,WHEAT CROP,WHEAT CROP,WHEAT CROP,CORN CROP,CORN CROP,CORN CROP,CORN CROP","160,157.26928629491704,140.93965576877673,189.27881621941475,205.58600422364538,229.2766314868491,186.19455054974875,194.91516998012204","8,7,6,5,4,3,2,1","NETTLE WEED,NETTLE WEED,NETTLE WEED,NETTLE WEED,NETTLE WEED,NETTLE WEED,NETTLE WEED,NETTLE WEED","20,20,20,20,20,20,20,20","20,20,20,20,20,20,20,20","10,10,10,10,10,10,10,10","20,20,20,20,20,20,20,20","0,0,0,0,0,0,0,0","20,20,20,20,20,20,20,20","20,20,20,20,20,20,20,20","20,20,20,20,20,20,20,20","10,10,10,10,10,10,10,10","20,20,20,20,20,20,20,20","0,0,0,0,0,0,0,0","20,20,20,20,20,20,20,20","0,1,0,0,0,1,1,1","5489,2129,636,1135,4272,1433,1279,1566","51.476175181935815,-24.541611688587825,18.503941075571923,5.9649588769791215,57.8262252977654,21.152366175519496,7.530035459848449,-22.89533946419372","-2.7307137050829766,-16.329630526140317,48.33916045063803,16.30718800423061,23.69062726320373,-43.08208093710035,8.720619430373281,15.299726171110441","0","0"
"509","86","text","0","169","2042825","0-0","","","","","","","","","","","","","","","","","","","","","","","","","","","","","","","","","","","","",""
"","","plant-game","0","170","2058095","0-0","","200","190","1","WHEAT CROP","Left","200","190","4","NETTLE WEED","experimental","72","1,2,3,4","190,170,200.90725307150353,193.90582778654812","1,3,2,1","WHEAT CROP,CORN CROP,CORN CROP,CORN CROP","190,229.38418621930003,265.2808876982728,294.83520767512846","4,3,2,1","NETTLE WEED,NETTLE WEED,NETTLE WEED,NETTLE WEED","20,20,20,20","20,20,20,20","10,10,10,10","20,20,20,20","0,0,0,0","20,20,20,20","20,20,20,20","20,20,20,20","10,10,10,10","20,20,20,20","0,0,0,0","20,20,20,20","0,0,1,0","3611,4384,2319,426","31.978244196157153,30.90725307150354,-7.001425284955411,26.213802973810754","39.38418621930004,35.89670147897276,29.554319976855634,27.44527577399606","0","0"
"482","86","text","0","171","2058677","0-0","","","","","","","","","","","","","","","","","","","","","","","","","","","","","","","","","","","","",""
"","","plant-game","0","172","2073457","0-0","","200","190","1","WHEAT CROP","Right","200","120","4","THISTLE WEED","experimental","73","1,2,3,4","120,179.02237973872107,220.63232296326228,238.19368871030474","4,3,2,1","THISTLE WEED,THISTLE WEED,THISTLE WEED,THISTLE WEED","190,170,202.4866452199276,202.2347930523405","1,3,2,1","WHEAT CROP,CORN CROP,CORN CROP,CORN CROP","0,0,0,0","20,20,20,20","10,10,10,10","20,20,20,20","20,20,20,20","20,20,20,20","0,0,0,0","20,20,20,20","10,10,10,10","20,20,20,20","20,20,20,20","20,20,20,20","1,1,0,1","4440,2000,2013,1447","59.02237973872107,41.609943224541205,17.561365747042455,-2.902439841058957","9.824368895707895,32.48664521992758,-0.25185216758709766,30.96619521942643","0","0"
"536","86","text","0","173","2074133","0-0","","","","","","","","","","","","","","","","","","","","","","","","","","","","","","","","","","","","",""
"","","plant-game","0","174","2093184","0-0","","200","190","8","WHEAT CROP","Left","200","180","1","NETTLE WEED","experimental","74","1,2,3,4,5,6,7,8","190,188.8836806005434,230.60461671539377,288.17708750380723,315.99702258210186,317.97387310570826,333.02317557104385,369.36200395347333","8,7,6,5,4,3,2,1","WHEAT CROP,WHEAT CROP,WHEAT CROP,WHEAT CROP,WHEAT CROP,WHEAT CROP,WHEAT CROP,WHEAT CROP","180,130,126.3992831263745,139.06551336476588,130.1590551564537,147.480631148352,123.05214080139295,111.70084678561831","1,7,6,5,4,3,2,1","NETTLE WEED,THISTLE WEED,THISTLE WEED,THISTLE WEED,THISTLE WEED,THISTLE WEED,THISTLE WEED,THISTLE WEED","20,20,20,20,20,20,20,20","20,20,20,20,20,20,20,20","10,10,10,10,10,10,10,10","20,20,20,20,20,20,20,20","0,0,0,0,0,0,0,0","20,20,20,20,20,20,20,20","20,20,20,20,20,20,20,20","20,20,20,20,20,20,20,20","10,10,10,10,10,10,10,10","20,20,20,20,20,20,20,20","0,0,0,0,0,0,0,0","20,20,20,20,20,20,20,20","1,0,0,1,1,1,1,1","7065,2755,947,956,719,439,503,486","-1.1163193994565956,41.72093611485035,57.57247078841344,27.819935078294606,1.976850523606384,15.049302465335604,36.33882838242947,11.541207459863363","-40.43039593934013,-3.600716873625501,12.666230238391364,-8.9064582083122,17.32157599189829,-24.428490346959038,-11.35129401577464,-19.305004282843502","0","0"
"527","86","text","0","175","2093851","0-0","","","","","","","","","","","","","","","","","","","","","","","","","","","","","","","","","","","","",""
"","","plant-game","0","176","2107421","0-0","","200","190","4","CORN CROP","Left","200","120","1","NETTLE WEED","experimental","75","1,2,3,4","190,192.7129537616852,176.4745325999794,187.7626757142424","4,3,2,1","CORN CROP,CORN CROP,CORN CROP,CORN CROP","120,170,194.65812070438952,199.96352280872796","1,3,2,1","NETTLE WEED,THISTLE WEED,THISTLE WEED,THISTLE WEED","20,20,20,20","20,20,20,20","10,10,10,10","20,20,20,20","0,0,0,0","20,20,20,20","20,20,20,20","20,20,20,20","10,10,10,10","20,20,20,20","0,0,0,0","20,20,20,20","0,0,1,0","3506,1526,1302,2114","2.712953761685206,-16.23842116170583,11.288143114263002,39.198547030938116","37.10861740098629,24.65812070438952,5.305402104338447,26.57443471218454","0","0"
"676","86","text","0","177","2108207","0-0","","","","","","","","","","","","","","","","","","","","","","","","","","","","","","","","","","","","",""
"","","plant-game","0","178","2121000","0-0","","200","180","2","CORN CROP","Left","200","190","4","THISTLE WEED","experimental","76","1,2,3,4","180,198.15437969570226,180,175.37800006809852","2,1,2,1","CORN CROP,CORN CROP,WHEAT CROP,WHEAT CROP","190,235.80362260019334,265.2222595402246,265.15549597737413","4,3,2,1","THISTLE WEED,THISTLE WEED,THISTLE WEED,THISTLE WEED","20,20,20,20","20,20,20,20","10,10,10,10","20,20,20,20","0,0,0,0","20,20,20,20","20,20,20,20","20,20,20,20","10,10,10,10","20,20,20,20","0,0,0,0","20,20,20,20","0,0,0,0","4112,764,1718,930","18.154379695702254,1.7745796468629322,-4.621999931901485,21.641043837033898","45.80362260019334,29.418636940031316,-0.06676356285048257,35.774271093778005","0","0"
"511","86","text","0","179","2121621","0-0","","","","","","","","","","","","","","","","","","","","","","","","","","","","","","","","","","","","",""
"","","plant-game","0","180","2155145","0-0","","200","160","8","CORN CROP","Right","200","190","8","NETTLE WEED","experimental","77","1,2,3,4,5,6,7,8","190,191.86078564175534,198.60160332133614,187.96861290143715,189.09687608514125,209.55509436159,239.68197993231985,243.20275789765273","8,7,6,5,4,3,2,1","NETTLE WEED,NETTLE WEED,NETTLE WEED,NETTLE WEED,NETTLE WEED,NETTLE WEED,NETTLE WEED,NETTLE WEED","160,176.61075565280223,184.06294904879294,169.22759180495828,153.74446447276947,153.459939625145,115.02876881273184,148.115405172998","8,7,6,5,4,3,2,1","CORN CROP,CORN CROP,CORN CROP,CORN CROP,CORN CROP,CORN CROP,CORN CROP,CORN CROP","0,0,0,0,0,0,0,0","20,20,20,20,20,20,20,20","10,10,10,10,10,10,10,10","20,20,20,20,20,20,20,20","20,20,20,20,20,20,20,20","20,20,20,20,20,20,20,20","0,0,0,0,0,0,0,0","20,20,20,20,20,20,20,20","10,10,10,10,10,10,10,10","20,20,20,20,20,20,20,20","20,20,20,20,20,20,20,20","20,20,20,20,20,20,20,20","0,0,0,0,0,0,0,0","21490,970,1111,662,695,1010,3177,409","1.8607856417553417,6.740817679580804,-10.632990419898999,1.1282631837040822,20.458218276448758,30.12688557072987,3.520777965332875,12.294834832458628","16.610755652802215,7.452193395990724,-14.835357243834672,-15.483127332188802,-0.28452484762444097,-38.43117081241317,33.086636360266176,-8.977488773229181","0","0"
"450","86","text","0","181","2155735","0-0","","","","","","","","","","","","","","","","","","","","","","","","","","","","","","","","","","","","",""
"","","plant-game","0","182","2176267","0-0","","200","160","8","WHEAT CROP","Left","200","120","1","THISTLE WEED","experimental","78","1,2,3,4,5,6,7,8","160,182.56717116827986,173.0355495606504,192.1800222503923,233.98029415817382,239.23250838512516,202.190522541508,237.66402275158092","8,7,6,5,4,3,2,1","WHEAT CROP,WHEAT CROP,WHEAT CROP,WHEAT CROP,WHEAT CROP,WHEAT CROP,WHEAT CROP,WHEAT CROP","120,130,149.476548917064,188.13837570176725,247.7694085959124,260.9403450931754,273.96193924426944,259.7699946076905","1,7,6,5,4,3,2,1","THISTLE WEED,NETTLE WEED,NETTLE WEED,NETTLE WEED,NETTLE WEED,NETTLE WEED,NETTLE WEED,NETTLE WEED","20,20,20,20,20,20,20,20","20,20,20,20,20,20,20,20","10,10,10,10,10,10,10,10","20,20,20,20,20,20,20,20","0,0,0,0,0,0,0,0","20,20,20,20,20,20,20,20","20,20,20,20,20,20,20,20","20,20,20,20,20,20,20,20","10,10,10,10,10,10,10,10","20,20,20,20,20,20,20,20","0,0,0,0,0,0,0,0","20,20,20,20,20,20,20,20","0,0,0,0,1,1,0,0","6851,3293,437,426,1135,962,909,1517","22.56717116827984,-9.531621607629454,19.14447268974192,41.800271907781514,5.252214226951337,-37.04198584361716,35.473500210072935,10.464436164037323","24.879054466239847,19.47654891706401,38.66182678470322,59.631032894145164,13.170936497262957,13.021594151094053,-14.191944636578974,52.76576481645875","0","0"
"580","86","text","0","183","2177017","0-0","","","","","","","","","","","","","","","","","","","","","","","","","","","","","","","","","","","","",""
"","","plant-game","0","184","2184730","0-0","","200","190","1","WHEAT CROP","Right","200","190","1","NETTLE WEED","experimental","79","1","190","1","NETTLE WEED","190","1","WHEAT CROP","0","20","10","20","20","20","0","20","10","20","20","20","0","4846","-0.5910928706424722","16.553105155419377","0","0"
"532","86","text","0","185","2185382","0-0","","","","","","","","","","","","","","","","","","","","","","","","","","","","","","","","","","","","",""
