"rt","key_press","trial_type","trial_index","trial_index_global","time_elapsed","internal_chunk_id","responses","experimental_goal_height","experimental_start_height","experimental_weeks_total","experimental_crop_type","experimental_crop_side","fixed_goal_height","fixed_start_height","fixed_weeks_total","fixed_crop_type","trial_kind","trial_number","stage","left_current_height","left_weeks_remaining","left_crop_type","right_current_height","right_weeks_remaining","right_crop_type","mean_left_growth_given_left","sd_left_growth_given_left","mean_left_growth_given_middle","sd_left_growth_given_middle","mean_left_growth_given_right","sd_left_growth_given_right","mean_right_growth_given_left","sd_right_growth_given_left","mean_right_growth_given_middle","sd_right_growth_given_middle","mean_right_growth_given_right","sd_right_growth_given_right","response","response_time","left_growth","right_growth","other_key_pressed","mouse_clicked"
"6031604","77","text","0","0","6031684","0-0","","","","","","","","","","","","","","","","","","","","","","","","","","","","","","","","","","","","",""
"4543","","survey-text","0","1","6037242","0-0","{""Q0"":""21""}","","","","","","","","","","","","","","","","","","","","","","","","","","","","","","","","","","","",""
"6021","86","text","0","2","6115","0-0","","","","","","","","","","","","","","","","","","","","","","","","","","","","","","","","","","","","",""
"","","plant-game","0","3","108229","0-0","","200","120","8","WHEAT CROP","Left","200","120","8","THISTLE WEED","practice","1","1,2,3,4,5,6,7,8","120,149.61726730283183,111.50420438828354,124.95656481520344,111.97721376313496,113.17621983371032,102.00704152181046,123.29490619677489","8,7,6,5,4,3,2,1","WHEAT CROP,WHEAT CROP,WHEAT CROP,WHEAT CROP,WHEAT CROP,WHEAT CROP,WHEAT CROP,WHEAT CROP","120,163.79155606251607,181.72705460503727,187.8939696970804,200.5158346058886,219.79456158424773,264.06854504964826,307.4236994011069","8,7,6,5,4,3,2,1","THISTLE WEED,THISTLE WEED,THISTLE WEED,THISTLE WEED,THISTLE WEED,THISTLE WEED,THISTLE WEED,THISTLE WEED","20,20,20,20,20,20,20,20","20,20,20,20,20,20,20,20","10,10,10,10,10,10,10,10","20,20,20,20,20,20,20,20","0,0,0,0,0,0,0,0","20,20,20,20,20,20,20,20","20,20,20,20,20,20,20,20","20,20,20,20,20,20,20,20","10,10,10,10,10,10,10,10","20,20,20,20,20,20,20,20","0,0,0,0,0,0,0,0","20,20,20,20,20,20,20,20","0,1,1,0,0,0,0,0","11626,13865,8073,4833,5905,2636,2720,1400","29.617267302831824,-38.1130629145483,13.452360426919896,-12.979351052068488,1.1990060705753685,-11.169178311899863,21.287864674964418,26.724918427953238","43.79155606251608,17.935498542521195,6.16691509204313,12.62186490880822,19.27872697835913,44.273983465400526,43.35515435145864,3.256395381256418","0","0"
"1738","86","text","0","4","110061","0-0","","","","","","","","","","","","","","","","","","","","","","","","","","","","","","","","","","","","",""
"","","plant-game","0","5","141294","0-0","","200","160","4","WHEAT CROP","Left","200","160","4","THISTLE WEED","practice","2","1,2,3,4","160,162.85532053942288,164.5260314785665,192.3733953586174","4,3,2,1","WHEAT CROP,WHEAT CROP,WHEAT CROP,WHEAT CROP","160,169.08053369033968,126.20204593752268,105.46205452913028","4,3,2,1","THISTLE WEED,THISTLE WEED,THISTLE WEED,THISTLE WEED","20,20,20,20","20,20,20,20","10,10,10,10","20,20,20,20","0,0,0,0","20,20,20,20","20,20,20,20","20,20,20,20","10,10,10,10","20,20,20,20","0,0,0,0","20,20,20,20","0,1,1,1","7876,2859,1336,922","2.8553205394228662,1.6707109391436046,27.84736388005088,24.26395084329276","9.080533690339674,-42.87848775281699,-20.739991408392395,-3.943172884450324","0","0"
"665","86","text","0","6","142089","0-0","","","","","","","","","","","","","","","","","","","","","","","","","","","","","","","","","","","","",""
"","","plant-game","0","7","159146","0-0","","200","180","2","CORN CROP","Left","200","180","2","THISTLE WEED","practice","3","1,2","180,165.8717345884445","2,1","CORN CROP,CORN CROP","180,173.75382453366478","2,1","THISTLE WEED,THISTLE WEED","20,20","20,20","10,10","20,20","0,0","20,20","20,20","20,20","10,10","20,20","0,0","20,20","1,0","973,3364","-14.128265411555518,47.8248939942809","-6.246175466335231,-13.642820015791827","0","0"
"691","86","text","0","8","159947","0-0","","","","","","","","","","","","","","","","","","","","","","","","","","","","","","","","","","","","",""
"","","plant-game","0","9","175979","0-0","","200","190","1","WHEAT CROP","Left","200","190","1","NETTLE WEED","practice","4","1","190","1","WHEAT CROP","190","1","NETTLE WEED","20","20","10","20","0","20","20","20","10","20","0","20","0","5888","17.712456041773894","43.08947973920958","0","0"
"611","86","text","0","10","176761","0-0","","","","","","","","","","","","","","","","","","","","","","","","","","","","","","","","","","","","",""
"","","plant-game","0","11","200866","0-0","","200","120","8","WHEAT CROP","Right","200","160","8","THISTLE WEED","practice","5","1,2,3,4,5,6,7,8","160,168.48321417160295,199.53947106340024,249.537207738949,253.2386259653553,265.7198023919674,241.86162308508284,211.64784812346693","8,7,6,5,4,3,2,1","THISTLE WEED,THISTLE WEED,THISTLE WEED,THISTLE WEED,THISTLE WEED,THISTLE WEED,THISTLE WEED,THISTLE WEED","120,162.47492906490078,181.88958425698542,205.0027976752295,213.77633921187572,227.17857555011082,251.1336495805907,245.95310885947055","8,7,6,5,4,3,2,1","WHEAT CROP,WHEAT CROP,WHEAT CROP,WHEAT CROP,WHEAT CROP,WHEAT CROP,WHEAT CROP,WHEAT CROP","0,0,0,0,0,0,0,0","20,20,20,20,20,20,20,20","10,10,10,10,10,10,10,10","20,20,20,20,20,20,20,20","20,20,20,20,20,20,20,20","20,20,20,20,20,20,20,20","0,0,0,0,0,0,0,0","20,20,20,20,20,20,20,20","10,10,10,10,10,10,10,10","20,20,20,20,20,20,20,20","20,20,20,20,20,20,20,20","20,20,20,20,20,20,20,20","1,1,0,0,1,0,0,0","3868,2591,1495,2468,1452,1489,908,1081","8.483214171602956,31.056256891797286,49.99773667554878,3.7014182264063127,12.481176426612059,-23.85817930688456,-30.213774961615925,31.12592107901408","42.47492906490078,19.41465519208464,23.11321341824408,8.773541536646245,13.4022363382351,23.9550740304799,-5.1805407211201775,25.031054842296932","0","0"
"554","86","text","0","12","201520","0-0","","","","","","","","","","","","","","","","","","","","","","","","","","","","","","","","","","","","",""
"","","plant-game","0","13","216208","0-0","","200","180","4","CORN CROP","Left","200","160","4","NETTLE WEED","practice","6","1,2,3,4","180,220.38174261998375,246.2354011390269,232.28566290097814","4,3,2,1","CORN CROP,CORN CROP,CORN CROP,CORN CROP","160,182.05748782419408,185.93852745686223,238.32779687263144","4,3,2,1","NETTLE WEED,NETTLE WEED,NETTLE WEED,NETTLE WEED","20,20,20,20","20,20,20,20","10,10,10,10","20,20,20,20","0,0,0,0","20,20,20,20","20,20,20,20","20,20,20,20","10,10,10,10","20,20,20,20","0,0,0,0","20,20,20,20","0,1,1,0","1464,2997,1248,1467","40.38174261998374,25.85365851904314,-13.949738238048761,18.36540030044461","22.057487824194077,3.881039632668139,52.3892694157692,38.148621663508706","0","0"
"704","86","text","0","14","217042","0-0","","","","","","","","","","","","","","","","","","","","","","","","","","","","","","","","","","","","",""
"","","plant-game","0","15","230453","0-0","","200","180","2","CORN CROP","Right","200","190","2","THISTLE WEED","practice","7","1,2","190,154.3964506433192","2,1","THISTLE WEED,THISTLE WEED","180,156.4560994317966","2,1","CORN CROP,CORN CROP","0,0","20,20","10,10","20,20","20,20","20,20","0,0","20,20","10,10","20,20","20,20","20,20","0,1","3613,2848","-35.603549356680794,32.35062515523431","-23.543900568203412,17.365700743982078","0","0"
"416","86","text","0","16","230994","0-0","","","","","","","","","","","","","","","","","","","","","","","","","","","","","","","","","","","","",""
"","","plant-game","0","17","269950","0-0","","200","120","4","CORN CROP","Left","200","120","8","NETTLE WEED","practice","8","1,2,3,4,5,6,7,8","120,131.1075434490122,119.82320166593954,109.51742804555488,160,162.11399254275597,152.53703470271645,142.0147921364486","4,3,2,1,4,3,2,1","CORN CROP,CORN CROP,CORN CROP,CORN CROP,WHEAT CROP,WHEAT CROP,WHEAT CROP,WHEAT CROP","120,145.98411538781846,139.43676165645275,177.56868834758637,171.0763862929177,190.83898558564624,176.58772696285408,161.47343670665907","8,7,6,5,4,3,2,1","NETTLE WEED,NETTLE WEED,NETTLE WEED,NETTLE WEED,NETTLE WEED,NETTLE WEED,NETTLE WEED,NETTLE WEED","20,20,20,20,20,20,20,20","20,20,20,20,20,20,20,20","10,10,10,10,10,10,10,10","20,20,20,20,20,20,20,20","0,0,0,0,0,0,0,0","20,20,20,20,20,20,20,20","20,20,20,20,20,20,20,20","20,20,20,20,20,20,20,20","10,10,10,10,10,10,10,10","20,20,20,20,20,20,20,20","0,0,0,0,0,0,0,0","20,20,20,20,20,20,20,20","0,1,0,1,0,1,1,0","1912,5144,5418,1968,5829,2603,2534,1067","11.107543449012208,-11.284341783072678,-10.305773620384656,-27.70866988307233,2.113992542755959,-9.576957840039505,-10.522242566267872,31.49648763296979","25.984115387818456,-6.547353731365729,38.13192669113362,-6.49230205466867,19.762599292728538,-14.251258622792154,-15.11429025619502,-0.2930458643028402","0","0"
"618","86","text","0","18","270708","0-0","","","","","","","","","","","","","","","","","","","","","","","","","","","","","","","","","","","","",""
"","","plant-game","0","19","322879","0-0","","200","160","4","WHEAT CROP","Left","200","160","2","THISTLE WEED","practice","9","1,2,3,4","160,167.24042872968135,165.6270814203794,213.0019901407714","4,3,2,1","WHEAT CROP,WHEAT CROP,WHEAT CROP,WHEAT CROP","160,182.83681641289203,180,178.17166624634012","2,1,2,1","THISTLE WEED,THISTLE WEED,NETTLE WEED,NETTLE WEED","20,20,20,20","20,20,20,20","10,10,10,10","20,20,20,20","0,0,0,0","20,20,20,20","20,20,20,20","20,20,20,20","10,10,10,10","20,20,20,20","0,0,0,0","20,20,20,20","1,1,0,1","23520,5649,6186,2700","7.240428729681353,-1.6133473093019493,47.37490872039199,-25.327159835114696","22.836816412892027,-16.700522491189034,-1.828333753659873,11.81709278126862","0","0"
"467","86","text","0","20","323466","0-0","","","","","","","","","","","","","","","","","","","","","","","","","","","","","","","","","","","","",""
"","","plant-game","0","21","350128","0-0","","200","180","2","CORN CROP","Right","200","180","1","NETTLE WEED","practice","10","1,2","180,190","1,1","NETTLE WEED,THISTLE WEED","180,174.69472383773993","2,1","CORN CROP,CORN CROP","0,0","20,20","10,10","20,20","20,20","20,20","0,0","20,20","10,10","20,20","20,20","20,20","0,1","8804,5472","-45.31204836968773,14.90098336733718","-5.305276162260075,2.3661683163298477","0","0"
"551","86","text","0","22","350813","0-0","","","","","","","","","","","","","","","","","","","","","","","","","","","","","","","","","","","","",""
"","","plant-game","0","23","395617","0-0","","200","120","8","WHEAT CROP","Right","200","160","4","THISTLE WEED","practice","11","1,2,3,4,5,6,7,8","160,150.76389415470473,167.79625439672228,151.6780267661055,160,170.19374161882055,182.19843508606294,188.91009768624332","4,3,2,1,4,3,2,1","THISTLE WEED,THISTLE WEED,THISTLE WEED,THISTLE WEED,NETTLE WEED,NETTLE WEED,NETTLE WEED,NETTLE WEED","120,111.17360816589134,113.94895381898841,95.20779861328533,97.14900908594193,112.51374119459885,140.97822636588705,152.54845882290866","8,7,6,5,4,3,2,1","WHEAT CROP,WHEAT CROP,WHEAT CROP,WHEAT CROP,WHEAT CROP,WHEAT CROP,WHEAT CROP,WHEAT CROP","0,0,0,0,0,0,0,0","20,20,20,20,20,20,20,20","10,10,10,10,10,10,10,10","20,20,20,20,20,20,20,20","20,20,20,20,20,20,20,20","20,20,20,20,20,20,20,20","0,0,0,0,0,0,0,0","20,20,20,20,20,20,20,20","10,10,10,10,10,10,10,10","20,20,20,20,20,20,20,20","20,20,20,20,20,20,20,20","20,20,20,20,20,20,20,20","0,0,0,0,1,1,1,1","8318,501,855,801,6687,8599,1207,1091","-9.236105845295269,17.032360242017536,-16.118227630616783,28.704188004763797,10.193741618820553,12.004693467242383,6.711662600180372,2.4301115504808095","-8.826391834108664,2.775345653097079,-18.74115520570308,1.9412104726565964,15.364732108656916,28.464485171288196,11.5702324570216,22.530206202631398","0","0"
"1168","86","text","0","24","396894","0-0","","","","","","","","","","","","","","","","","","","","","","","","","","","","","","","","","","","","",""
"","","plant-game","0","25","427531","0-0","","200","180","2","WHEAT CROP","Right","200","160","4","NETTLE WEED","practice","12","1,2,3,4","160,146.71933665685248,152.46069078607,141.17216180231287","4,3,2,1","NETTLE WEED,NETTLE WEED,NETTLE WEED,NETTLE WEED","180,175.31781260992153,180,169.67106946710993","2,1,2,1","WHEAT CROP,WHEAT CROP,CORN CROP,CORN CROP","0,0,0,0","20,20,20,20","10,10,10,10","20,20,20,20","20,20,20,20","20,20,20,20","0,0,0,0","20,20,20,20","10,10,10,10","20,20,20,20","20,20,20,20","20,20,20,20","0,1,0,1","12543,2660,1692,2725","-13.280663343147536,5.74135412921752,-11.288528983757129,21.972213476390916","-4.682187390078464,17.986621679374032,-10.328930532890059,-28.76546491421542","1","0"
"555","86","text","0","26","428211","0-0","","","","","","","","","","","","","","","","","","","","","","","","","","","","","","","","","","","","",""
"15233","86","text","0","27","444582","0-0","","","","","","","","","","","","","","","","","","","","","","","","","","","","","","","","","","","","",""
"","","plant-game","0","28","466307","0-0","","200","180","4","CORN CROP","Right","200","160","1","NETTLE WEED","experimental","1","1,2,3,4","160,170,166.40433680745733,163.53466893818944","1,3,2,1","NETTLE WEED,THISTLE WEED,THISTLE WEED,THISTLE WEED","180,182.63487231907476,190.3543213521429,181.55510098782423","4,3,2,1","CORN CROP,CORN CROP,CORN CROP,CORN CROP","0,0,0,0","20,20,20,20","10,10,10,10","20,20,20,20","20,20,20,20","20,20,20,20","0,0,0,0","20,20,20,20","10,10,10,10","20,20,20,20","20,20,20,20","20,20,20,20","0,1,1,1","7867,4176,982,1008","-7.437973317736912,-3.5956631925426734,-2.8696678692678717,29.127043235262743","2.6348723190747676,7.719449033068134,-8.799220364318671,15.667656330804999","1","0"
"656","86","text","0","29","467072","0-0","","","","","","","","","","","","","","","","","","","","","","","","","","","","","","","","","","","","",""
"","","plant-game","0","30","487848","0-0","","200","120","2","CORN CROP","Left","200","160","4","NETTLE WEED","experimental","2","1,2,3,4","120,119.79697282569364,180,186.2969123357911","2,1,2,1","CORN CROP,CORN CROP,WHEAT CROP,WHEAT CROP","160,165.3095693494583,181.7451208913203,167.26475225068467","4,3,2,1","NETTLE WEED,NETTLE WEED,NETTLE WEED,NETTLE WEED","20,20,20,20","20,20,20,20","10,10,10,10","20,20,20,20","0,0,0,0","20,20,20,20","20,20,20,20","20,20,20,20","10,10,10,10","20,20,20,20","0,0,0,0","20,20,20,20","1,1,1,1","5525,2896,4750,833","-0.20302717430635261,-16.108297961886752,6.296912335791106,2.638616856809941","5.309569349458291,16.43555154186203,-14.480368640635637,-8.481404907894879","0","0"
"682","86","text","0","31","488577","0-0","","","","","","","","","","","","","","","","","","","","","","","","","","","","","","","","","","","","",""
"","","plant-game","0","32","507380","0-0","","200","190","4","WHEAT CROP","Right","200","180","4","NETTLE WEED","experimental","3","1,2,3,4","180,158.93100054997657,190.26204692923116,151.9907086262499","4,3,2,1","NETTLE WEED,NETTLE WEED,NETTLE WEED,NETTLE WEED","190,216.18235642874686,227.4496236082528,220.03912759488637","4,3,2,1","WHEAT CROP,WHEAT CROP,WHEAT CROP,WHEAT CROP","0,0,0,0","20,20,20,20","10,10,10,10","20,20,20,20","20,20,20,20","20,20,20,20","0,0,0,0","20,20,20,20","10,10,10,10","20,20,20,20","20,20,20,20","20,20,20,20","1,1,0,1","8083,3384,1964,1309","-21.068999450023433,31.331046379254587,-38.27133830298125,26.93049932820209","26.182356428746864,11.267267179505945,-7.410496013366447,25.367968948701034","0","0"
"517","86","text","0","33","508037","0-0","","","","","","","","","","","","","","","","","","","","","","","","","","","","","","","","","","","","",""
"","","plant-game","0","34","531241","0-0","","200","190","8","WHEAT CROP","Right","200","180","1","NETTLE WEED","experimental","4","1,2,3,4,5,6,7,8","180,130,143.65847801839848,163.73167601027848,195.2809788175691,201.8655452896135,253.46141860728386,264.3470222218973","1,7,6,5,4,3,2,1","NETTLE WEED,THISTLE WEED,THISTLE WEED,THISTLE WEED,THISTLE WEED,THISTLE WEED,THISTLE WEED,THISTLE WEED","190,188.0366276365045,193.95391898471757,198.05567795977197,150.79281654482594,132.7172065553355,188.09915095169004,211.02608078029368","8,7,6,5,4,3,2,1","WHEAT CROP,WHEAT CROP,WHEAT CROP,WHEAT CROP,WHEAT CROP,WHEAT CROP,WHEAT CROP,WHEAT CROP","0,0,0,0,0,0,0,0","20,20,20,20,20,20,20,20","10,10,10,10,10,10,10,10","20,20,20,20,20,20,20,20","20,20,20,20,20,20,20,20","20,20,20,20,20,20,20,20","0,0,0,0,0,0,0,0","20,20,20,20,20,20,20,20","10,10,10,10,10,10,10,10","20,20,20,20,20,20,20,20","20,20,20,20,20,20,20,20","20,20,20,20,20,20,20,20","0,1,1,1,1,1,1,1","5377,2490,860,1113,2874,1127,1294,1497","-2.6025085712522165,13.658478018398492,20.073197991879987,31.549302807290605,6.584566472044408,51.59587331767037,10.885603614613418,19.45951905576298","-1.9633723634954983,5.917291348213077,4.101758975054393,-47.262861414946016,-18.075609989490424,55.38194439635452,22.926929828603633,9.341366108641873","0","0"
"770","86","text","0","35","532121","0-0","","","","","","","","","","","","","","","","","","","","","","","","","","","","","","","","","","","","",""
"","","plant-game","0","36","544848","0-0","","200","160","4","WHEAT CROP","Right","200","180","4","NETTLE WEED","experimental","5","1,2,3,4","180,213.79447308005214,260.12965290304624,315.1433617409723","4,3,2,1","NETTLE WEED,NETTLE WEED,NETTLE WEED,NETTLE WEED","160,164.58558705801107,179.48250893517502,208.99843000263758","4,3,2,1","WHEAT CROP,WHEAT CROP,WHEAT CROP,WHEAT CROP","0,0,0,0","20,20,20,20","10,10,10,10","20,20,20,20","20,20,20,20","20,20,20,20","0,0,0,0","20,20,20,20","10,10,10,10","20,20,20,20","20,20,20,20","20,20,20,20","0,1,1,1","5713,1937,705,640","33.794473080052136,46.33517982299411,55.013708837926075,37.903010450292285","4.585587058011073,14.896921877163953,29.515921067462568,14.117095479026265","0","0"
"114","86","text","0","37","545072","0-0","","","","","","","","","","","","","","","","","","","","","","","","","","","","","","","","","","","","",""
"","","plant-game","0","38","564391","0-0","","200","190","2","WHEAT CROP","Left","200","120","1","THISTLE WEED","experimental","6","1,2","190,211.2261529167626","2,1","WHEAT CROP,WHEAT CROP","120,190","1,1","THISTLE WEED,NETTLE WEED","20,20","20,20","10,10","20,20","0,0","20,20","20,20","20,20","10,10","20,20","0,0","20,20","0,0","4834,8757","21.2261529167626,38.82026657653706","21.999108108662263,19.786700903485016","0","0"
"639","86","text","0","39","565140","0-0","","","","","","","","","","","","","","","","","","","","","","","","","","","","","","","","","","","","",""
"","","plant-game","0","40","591362","0-0","","200","160","8","CORN CROP","Left","200","160","1","THISTLE WEED","experimental","7","1,2,3,4,5,6,7,8","160,150.527611017344,131.15903665750764,114.52720997665443,136.86709849188188,155.30285235784424,100.69457097037763,87.2941364862762","8,7,6,5,4,3,2,1","CORN CROP,CORN CROP,CORN CROP,CORN CROP,CORN CROP,CORN CROP,CORN CROP,CORN CROP","160,130,141.38996091748936,162.06026024790523,170.33340145566657,194.84249804013524,213.65288646546395,203.35430677616444","1,7,6,5,4,3,2,1","THISTLE WEED,NETTLE WEED,NETTLE WEED,NETTLE WEED,NETTLE WEED,NETTLE WEED,NETTLE WEED,NETTLE WEED","20,20,20,20,20,20,20,20","20,20,20,20,20,20,20,20","10,10,10,10,10,10,10,10","20,20,20,20,20,20,20,20","0,0,0,0,0,0,0,0","20,20,20,20,20,20,20,20","20,20,20,20,20,20,20,20","20,20,20,20,20,20,20,20","10,10,10,10,10,10,10,10","20,20,20,20,20,20,20,20","0,0,0,0,0,0,0,0","20,20,20,20,20,20,20,20","0,1,1,1,0,1,1,1","4419,3370,1047,1374,2227,2461,3632,1372","-9.47238898265601,-19.368574359836344,-16.6318266808532,22.33988851522744,18.435753865962358,-54.60828138746662,-13.400434484101428,0.30203472920229746","15.333036785267694,11.389960917489361,20.670299330415865,8.27314120776133,24.509096584468672,18.81038842532871,-10.29857968929952,5.752287023588668","0","0"
"180","86","text","0","41","591672","0-0","","","","","","","","","","","","","","","","","","","","","","","","","","","","","","","","","","","","",""
"","","plant-game","0","42","606054","0-0","","200","160","1","CORN CROP","Left","200","190","2","NETTLE WEED","experimental","8","1,2","160,190","1,1","CORN CROP,WHEAT CROP","190,188.15055632106765","2,1","NETTLE WEED,NETTLE WEED","20,20","20,20","10,10","20,20","0,0","20,20","20,20","20,20","10,10","20,20","0,0","20,20","1,0","4368,4121","-21.088800591559437,-12.380901886775028","-1.8494436789323343,47.192278227807364","0","0"
"664","86","text","0","43","606808","0-0","","","","","","","","","","","","","","","","","","","","","","","","","","","","","","","","","","","","",""
"","","plant-game","0","44","632962","0-0","","200","190","4","CORN CROP","Right","200","180","2","NETTLE WEED","experimental","9","1,2,3,4","180,158.67013848088737,180,200.3064885496337","2,1,2,1","NETTLE WEED,NETTLE WEED,THISTLE WEED,THISTLE WEED","190,171.62591353403442,158.06548740772,211.47481871913507","4,3,2,1","CORN CROP,CORN CROP,CORN CROP,CORN CROP","0,0,0,0","20,20,20,20","10,10,10,10","20,20,20,20","20,20,20,20","20,20,20,20","0,0,0,0","20,20,20,20","10,10,10,10","20,20,20,20","20,20,20,20","20,20,20,20","0,0,1,1","9267,1717,7065,2110","-21.32986151911264,-1.202660930594958,20.306488549633706,-17.365368911060997","-18.374086465965576,-13.560426126314411,53.409331311415066,15.116142273166705","0","0"
"797","86","text","0","45","633809","0-0","","","","","","","","","","","","","","","","","","","","","","","","","","","","","","","","","","","","",""
"","","plant-game","0","46","660495","0-0","","200","180","4","CORN CROP","Left","200","120","8","NETTLE WEED","experimental","10","1,2,3,4,5,6,7,8","180,164.95896731656438,182.3208487059802,205.323336967681,160,182.4971679718109,187.78340909839136,212.08994353493665","4,3,2,1,4,3,2,1","CORN CROP,CORN CROP,CORN CROP,CORN CROP,WHEAT CROP,WHEAT CROP,WHEAT CROP,WHEAT CROP","120,137.8429450574237,158.8657741359563,185.56481272435653,172.64317346036356,207.15268710714366,229.61512476556052,259.0010368907942","8,7,6,5,4,3,2,1","NETTLE WEED,NETTLE WEED,NETTLE WEED,NETTLE WEED,NETTLE WEED,NETTLE WEED,NETTLE WEED,NETTLE WEED","20,20,20,20,20,20,20,20","20,20,20,20,20,20,20,20","10,10,10,10,10,10,10,10","20,20,20,20,20,20,20,20","0,0,0,0,0,0,0,0","20,20,20,20,20,20,20,20","20,20,20,20,20,20,20,20","20,20,20,20,20,20,20,20","10,10,10,10,10,10,10,10","20,20,20,20,20,20,20,20","0,0,0,0,0,0,0,0","20,20,20,20,20,20,20,20","0,0,0,1,0,0,0,0","6329,1071,944,2845,3801,1173,2125,1165","-15.04103268343561,17.36188138941584,23.002488261700794,28.915916085616583,22.497167971810903,5.286241126580464,24.306534436545306,8.524450332704198","17.842945057423687,21.022829078532585,26.699038588400235,-12.921639263992983,34.50951364678012,22.462437658416864,29.385912125233673,38.9277544936536","1","0"
"104","86","text","0","47","660719","0-0","","","","","","","","","","","","","","","","","","","","","","","","","","","","","","","","","","","","",""
"","","plant-game","0","48","679681","0-0","","200","190","1","CORN CROP","Right","200","180","8","THISTLE WEED","experimental","11","1,2,3,4,5,6,7,8","180,170.47431830632036,148.85265689501782,141.74193485067343,134.62400074374142,120.9312374393765,117.1816362319824,95.31106775798561","8,7,6,5,4,3,2,1","THISTLE WEED,THISTLE WEED,THISTLE WEED,THISTLE WEED,THISTLE WEED,THISTLE WEED,THISTLE WEED,THISTLE WEED","190,130,118.36210398986478,149.77913131982183,189.52983841808978,185.13943030561288,184.7161892796406,183.74785501792832","1,7,6,5,4,3,2,1","CORN CROP,WHEAT CROP,WHEAT CROP,WHEAT CROP,WHEAT CROP,WHEAT CROP,WHEAT CROP,WHEAT CROP","0,0,0,0,0,0,0,0","20,20,20,20,20,20,20,20","10,10,10,10,10,10,10,10","20,20,20,20,20,20,20,20","20,20,20,20,20,20,20,20","20,20,20,20,20,20,20,20","0,0,0,0,0,0,0,0","20,20,20,20,20,20,20,20","10,10,10,10,10,10,10,10","20,20,20,20,20,20,20,20","20,20,20,20,20,20,20,20","20,20,20,20,20,20,20,20","0,0,0,0,0,0,1,1","4697,1732,582,544,504,1002,823,1434","-9.525681693679644,-21.62166141130255,-7.110722044344396,-7.117934106932019,-13.69276330436492,-3.749601207394102,-21.870568473996784,24.019369638842996","-12.621638164852547,-11.637896010135222,31.417027329957055,39.750707098267945,-4.390408112476912,-0.423241025972284,-0.9683342617122683,20.828127348139848","0","0"
"495","86","text","0","49","680329","0-0","","","","","","","","","","","","","","","","","","","","","","","","","","","","","","","","","","","","",""
"","","plant-game","0","50","695473","0-0","","200","180","1","WHEAT CROP","Left","200","160","2","THISTLE WEED","experimental","12","1,2","180,190","1,1","WHEAT CROP,CORN CROP","160,185.41605385471865","2,1","THISTLE WEED,THISTLE WEED","20,20","20,20","10,10","20,20","0,0","20,20","20,20","20,20","10,10","20,20","0,0","20,20","0,0","6283,1874","-3.9016736728229695,25.321418964106336","25.416053854718644,24.759671173697882","0","0"
"716","86","text","0","51","696304","0-0","","","","","","","","","","","","","","","","","","","","","","","","","","","","","","","","","","","","",""
"","","plant-game","0","52","719877","0-0","","200","160","8","CORN CROP","Right","200","180","4","THISTLE WEED","experimental","13","1,2,3,4,5,6,7,8","180,193.97384745103093,177.632301351206,170.44128804391764,160,164.6667297606722,148.38189457935496,141.32552584532255","4,3,2,1,4,3,2,1","THISTLE WEED,THISTLE WEED,THISTLE WEED,THISTLE WEED,NETTLE WEED,NETTLE WEED,NETTLE WEED,NETTLE WEED","160,175.32614287520607,160.35703007838126,149.76127738985207,157.1607823425737,197.34817887841763,220.0953090375163,231.07934523934247","8,7,6,5,4,3,2,1","CORN CROP,CORN CROP,CORN CROP,CORN CROP,CORN CROP,CORN CROP,CORN CROP,CORN CROP","0,0,0,0,0,0,0,0","20,20,20,20,20,20,20,20","10,10,10,10,10,10,10,10","20,20,20,20,20,20,20,20","20,20,20,20,20,20,20,20","20,20,20,20,20,20,20,20","0,0,0,0,0,0,0,0","20,20,20,20,20,20,20,20","10,10,10,10,10,10,10,10","20,20,20,20,20,20,20,20","20,20,20,20,20,20,20,20","20,20,20,20,20,20,20,20","0,0,0,0,1,1,1,0","7287,1506,919,844,3492,878,851,1277","13.973847451030931,-16.341546099824946,-7.191013307288367,31.81557797972762,4.666729760672212,-16.28483518131725,-7.056368734032414,-5.745022510070187","15.326142875206063,-14.96911279682481,-10.595752688529188,7.399504952721626,40.187396535843924,22.74713015909867,10.984036201826168,39.58638556554364","0","0"
"180","86","text","0","53","720157","0-0","","","","","","","","","","","","","","","","","","","","","","","","","","","","","","","","","","","","",""
"","","plant-game","0","54","737829","0-0","","200","120","8","CORN CROP","Left","200","120","4","THISTLE WEED","experimental","14","1,2,3,4,5,6,7,8","120,126.43928378791504,133.01686339303973,122.38303189873751,108.4671361109044,108.48288419026673,97.75935758300487,94.92495533260085","8,7,6,5,4,3,2,1","CORN CROP,CORN CROP,CORN CROP,CORN CROP,CORN CROP,CORN CROP,CORN CROP,CORN CROP","120,139.7045240614729,147.4409857621036,133.8291754041754,160,168.0299989183221,163.33406358587757,124.13824095345788","4,3,2,1,4,3,2,1","THISTLE WEED,THISTLE WEED,THISTLE WEED,THISTLE WEED,NETTLE WEED,NETTLE WEED,NETTLE WEED,NETTLE WEED","20,20,20,20,20,20,20,20","20,20,20,20,20,20,20,20","10,10,10,10,10,10,10,10","20,20,20,20,20,20,20,20","0,0,0,0,0,0,0,0","20,20,20,20,20,20,20,20","20,20,20,20,20,20,20,20","20,20,20,20,20,20,20,20","10,10,10,10,10,10,10,10","20,20,20,20,20,20,20,20","0,0,0,0,0,0,0,0","20,20,20,20,20,20,20,20","0,1,1,1,0,1,1,1","2736,899,1591,645,3021,1963,387,317","6.439283787915045,6.577579605124678,-10.63383149430221,-13.91589578783311,0.01574807936232503,-10.723526607261856,-2.834402250404024,-38.55409450559429","19.70452406147291,7.7364617006306755,-13.61181035792818,-14.38911900061637,8.02999891832209,-4.6959353324445345,-39.19582263241969,-18.80428680760366","0","0"
"765","86","text","0","55","738719","0-0","","","","","","","","","","","","","","","","","","","","","","","","","","","","","","","","","","","","",""
"","","plant-game","0","56","749500","0-0","","200","180","1","WHEAT CROP","Left","200","120","2","THISTLE WEED","experimental","15","1,2","180,190","1,1","WHEAT CROP,CORN CROP","120,162.39006629353923","2,1","THISTLE WEED,THISTLE WEED","20,20","20,20","10,10","20,20","0,0","20,20","20,20","20,20","10,10","20,20","0,0","20,20","0,0","2469,2955","29.245420321368144,43.06981364140094","42.39006629353922,17.18017136694374","0","0"
"623","86","text","0","57","750213","0-0","","","","","","","","","","","","","","","","","","","","","","","","","","","","","","","","","","","","",""
"","","plant-game","0","58","760069","0-0","","200","180","2","WHEAT CROP","Left","200","120","1","THISTLE WEED","experimental","16","1,2","180,184.01573129698383","2,1","WHEAT CROP,WHEAT CROP","120,190","1,1","THISTLE WEED,NETTLE WEED","20,20","20,20","10,10","20,20","0,0","20,20","20,20","20,20","10,10","20,20","0,0","20,20","1,0","4043,944","4.015731296983841,48.00511973023893","18.244566343106396,5.792816281343182","0","0"
"6489","86","text","0","59","766708","0-0","","","","","","","","","","","","","","","","","","","","","","","","","","","","","","","","","","","","",""
"","","plant-game","0","60","788515","0-0","","200","120","4","CORN CROP","Left","200","180","4","NETTLE WEED","experimental","17","1,2,3,4","120,145.5507425370396,126.2423571107899,103.44435801398022","4,3,2,1","CORN CROP,CORN CROP,CORN CROP,CORN CROP","180,187.82459029953696,161.19379888692254,166.6823966504762","4,3,2,1","NETTLE WEED,NETTLE WEED,NETTLE WEED,NETTLE WEED","20,20,20,20","20,20,20,20","10,10,10,10","20,20,20,20","0,0,0,0","20,20,20,20","20,20,20,20","20,20,20,20","10,10,10,10","20,20,20,20","0,0,0,0","20,20,20,20","1,1,1,1","15665,1011,1357,634","25.550742537039618,-19.308385426249714,-22.797999096809672,-13.483615517097448","7.8245902995369505,-26.630791412614442,5.488597763553663,-4.685139946242315","0","0"
"498","86","text","0","61","789122","0-0","","","","","","","","","","","","","","","","","","","","","","","","","","","","","","","","","","","","",""
"","","plant-game","0","62","812036","0-0","","200","190","8","WHEAT CROP","Right","200","120","4","THISTLE WEED","experimental","18","1,2,3,4,5,6,7,8","120,82.5025702221466,100.4793918936538,92.39412686767814,160,168.99886153985307,150.03485676571415,188.5659212539812","4,3,2,1,4,3,2,1","THISTLE WEED,THISTLE WEED,THISTLE WEED,THISTLE WEED,NETTLE WEED,NETTLE WEED,NETTLE WEED,NETTLE WEED","190,149.9112589047352,154.72379654659525,171.9659084430037,228.89157177814943,219.12830249934555,217.60920971668492,215.2903889189647","8,7,6,5,4,3,2,1","WHEAT CROP,WHEAT CROP,WHEAT CROP,WHEAT CROP,WHEAT CROP,WHEAT CROP,WHEAT CROP,WHEAT CROP","0,0,0,0,0,0,0,0","20,20,20,20,20,20,20,20","10,10,10,10,10,10,10,10","20,20,20,20,20,20,20,20","20,20,20,20,20,20,20,20","20,20,20,20,20,20,20,20","0,0,0,0,0,0,0,0","20,20,20,20,20,20,20,20","10,10,10,10,10,10,10,10","20,20,20,20,20,20,20,20","20,20,20,20,20,20,20,20","20,20,20,20,20,20,20,20","0,1,1,1,0,0,1,0","4515,908,630,473,2997,1297,1066,1985","-37.49742977785339,17.976821671507196,-8.085265025975655,10.174576790244865,8.998861539853072,-18.96400477413892,38.531064488267056,8.518115926087033","-40.0887410952648,4.812537641860054,17.24211189640845,56.92566333514572,-9.763269278803875,-1.5190927826606448,-2.3188207977202033,-2.3092965747842094","0","0"
"150","86","text","0","63","812306","0-0","","","","","","","","","","","","","","","","","","","","","","","","","","","","","","","","","","","","",""
"","","plant-game","0","64","829289","0-0","","200","120","2","WHEAT CROP","Left","200","160","2","NETTLE WEED","experimental","19","1,2","120,138.73694725386986","2,1","WHEAT CROP,WHEAT CROP","160,169.6055176309362","2,1","NETTLE WEED,NETTLE WEED","20,20","20,20","10,10","20,20","0,0","20,20","20,20","20,20","10,10","20,20","0,0","20,20","0,1","11146,2904","18.73694725386986,-1.3222854919753033","9.605517630936195,-19.765815826819583","0","0"
"476","86","text","0","65","829905","0-0","","","","","","","","","","","","","","","","","","","","","","","","","","","","","","","","","","","","",""
"","","plant-game","0","66","838100","0-0","","200","190","2","CORN CROP","Left","200","120","2","THISTLE WEED","experimental","20","1,2","190,174.63518321597476","2,1","CORN CROP,CORN CROP","120,147.67300899020762","2,1","THISTLE WEED,THISTLE WEED","20,20","20,20","10,10","20,20","0,0","20,20","20,20","20,20","10,10","20,20","0,0","20,20","1,0","3905,1033","-15.364816784025228,57.33672511620362","27.673008990207624,38.97752690668851","0","0"
"511","86","text","0","67","838731","0-0","","","","","","","","","","","","","","","","","","","","","","","","","","","","","","","","","","","","",""
"","","plant-game","0","68","855468","0-0","","200","190","4","CORN CROP","Right","200","120","2","THISTLE WEED","experimental","21","1,2,3,4","120,137.34318594782653,180,176.03700709531583","2,1,2,1","THISTLE WEED,THISTLE WEED,NETTLE WEED,NETTLE WEED","190,182.98889689562102,191.43226750420604,191.24155856900828","4,3,2,1","CORN CROP,CORN CROP,CORN CROP,CORN CROP","0,0,0,0","20,20,20,20","10,10,10,10","20,20,20,20","20,20,20,20","20,20,20,20","0,0,0,0","20,20,20,20","10,10,10,10","20,20,20,20","20,20,20,20","20,20,20,20","0,0,0,1","4181,311,5280,1033","17.343185947826537,23.02581008943056,-3.9629929046841643,4.902521286862731","-7.011103104378963,8.44337060858501,-0.1907089351977528,2.211477560752183","0","0"
"485","86","text","0","69","856140","0-0","","","","","","","","","","","","","","","","","","","","","","","","","","","","","","","","","","","","",""
"","","plant-game","0","70","875272","0-0","","200","190","2","CORN CROP","Left","200","160","8","THISTLE WEED","experimental","22","1,2,3,4,5,6,7,8","190,212.57690721714977,140,149.57409972461608,174.95009797848002,189.02987778448676,189.26206716710016,194.51454628743326","2,1,6,5,4,3,2,1","CORN CROP,CORN CROP,WHEAT CROP,WHEAT CROP,WHEAT CROP,WHEAT CROP,WHEAT CROP,WHEAT CROP","160,174.98081549140244,158.76091692113823,174.98707040354535,229.47689800792972,237.32826498583165,248.7863690733793,259.67027496800574","8,7,6,5,4,3,2,1","THISTLE WEED,THISTLE WEED,THISTLE WEED,THISTLE WEED,THISTLE WEED,THISTLE WEED,THISTLE WEED,THISTLE WEED","20,20,20,20,20,20,20,20","20,20,20,20,20,20,20,20","10,10,10,10,10,10,10,10","20,20,20,20,20,20,20,20","0,0,0,0,0,0,0,0","20,20,20,20,20,20,20,20","20,20,20,20,20,20,20,20","20,20,20,20,20,20,20,20","10,10,10,10,10,10,10,10","20,20,20,20,20,20,20,20","0,0,0,0,0,0,0,0","20,20,20,20,20,20,20,20","0,1,0,0,0,0,0,0","4374,1118,3168,1026,1068,604,757,448","22.576907217149763,-16.394204321344898,9.57409972461609,25.375998253863926,14.079779806006751,0.2321893826133845,5.252479120333115,20.75398162293363","14.980815491402428,-16.219898570264213,16.226153482407117,54.489827604384374,7.851366977901929,11.458104087547635,10.88390589462646,45.81396280106057","0","0"
"734","86","text","0","71","876156","0-0","","","","","","","","","","","","","","","","","","","","","","","","","","","","","","","","","","","","",""
"","","plant-game","0","72","897604","0-0","","200","190","8","CORN CROP","Left","200","120","8","THISTLE WEED","experimental","23","1,2,3,4,5,6,7,8","190,212.3791360658963,233.81365401190652,258.2982515069974,295.5686445348995,322.8550384103657,341.35189219384034,350.8283822647882","8,7,6,5,4,3,2,1","CORN CROP,CORN CROP,CORN CROP,CORN CROP,CORN CROP,CORN CROP,CORN CROP,CORN CROP","120,157.13980051877348,150.59210805192944,175.08248663876319,204.05006856760858,234.34406705481345,258.5387978926777,286.6653395406461","8,7,6,5,4,3,2,1","THISTLE WEED,THISTLE WEED,THISTLE WEED,THISTLE WEED,THISTLE WEED,THISTLE WEED,THISTLE WEED,THISTLE WEED","20,20,20,20,20,20,20,20","20,20,20,20,20,20,20,20","10,10,10,10,10,10,10,10","20,20,20,20,20,20,20,20","0,0,0,0,0,0,0,0","20,20,20,20,20,20,20,20","20,20,20,20,20,20,20,20","20,20,20,20,20,20,20,20","10,10,10,10,10,10,10,10","20,20,20,20,20,20,20,20","0,0,0,0,0,0,0,0","20,20,20,20,20,20,20,20","0,0,1,0,0,1,0,1","6911,952,1021,2771,2120,646,1435,1184","22.379136065896297,21.434517946010246,24.484597495090917,37.270393027902074,27.286393875466196,18.49685378347463,9.47649007094788,9.084256465334198","37.13980051877347,-6.54769246684403,24.49037858683375,28.967581928845384,30.293998487204863,24.194730837864252,28.126541647968377,39.93116085129824","0","0"
"188","86","text","0","73","897942","0-0","","","","","","","","","","","","","","","","","","","","","","","","","","","","","","","","","","","","",""
"","","plant-game","0","74","910705","0-0","","200","190","2","WHEAT CROP","Left","200","190","1","THISTLE WEED","experimental","24","1,2","190,210.70135626547963","2,1","WHEAT CROP,WHEAT CROP","190,190","1,1","THISTLE WEED,NETTLE WEED","20,20","20,20","10,10","20,20","0,0","20,20","20,20","20,20","10,10","20,20","0,0","20,20","1,1","4439,2085","20.701356265479625,-17.053469912136855","-0.2834679508965884,38.77528287151365","0","0"
"564","86","text","0","75","911389","0-0","","","","","","","","","","","","","","","","","","","","","","","","","","","","","","","","","","","","",""
"","","plant-game","0","76","926283","0-0","","200","120","4","CORN CROP","Left","200","190","2","THISTLE WEED","experimental","25","1,2,3,4","120,78.63598980807686,79.83400355350203,83.3573992772621","4,3,2,1","CORN CROP,CORN CROP,CORN CROP,CORN CROP","190,186.30542117377686,180,191.99006251750103","2,1,2,1","THISTLE WEED,THISTLE WEED,NETTLE WEED,NETTLE WEED","20,20,20,20","20,20,20,20","10,10,10,10","20,20,20,20","0,0,0,0","20,20,20,20","20,20,20,20","20,20,20,20","10,10,10,10","20,20,20,20","0,0,0,0","20,20,20,20","1,1,1,1","4786,737,3147,1085","-41.36401019192314,1.1980137454251705,3.5233957237600806,11.719991739507654","-3.6945788262231356,-10.440593966376499,11.990062517501038,10.248997608642892","0","0"
"1414","86","text","0","77","927807","0-0","","","","","","","","","","","","","","","","","","","","","","","","","","","","","","","","","","","","",""
"","","plant-game","0","78","942044","0-0","","200","160","4","WHEAT CROP","Left","200","160","1","THISTLE WEED","experimental","26","1,2,3,4","160,160.2953866840571,164.98372874360436,165.89526292852418","4,3,2,1","WHEAT CROP,WHEAT CROP,WHEAT CROP,WHEAT CROP","160,170,215.22250372866523,246.1905232022842","1,3,2,1","THISTLE WEED,NETTLE WEED,NETTLE WEED,NETTLE WEED","20,20,20,20","20,20,20,20","10,10,10,10","20,20,20,20","0,0,0,0","20,20,20,20","20,20,20,20","20,20,20,20","10,10,10,10","20,20,20,20","0,0,0,0","20,20,20,20","1,0,0,0","4345,3093,821,1217","0.2953866840570957,4.6883420595472565,0.9115341849198266,-3.9597569825642083","2.449008544874745,45.22250372866523,30.96801947361896,26.77447937586923","0","0"
"634","86","text","0","79","942748","0-0","","","","","","","","","","","","","","","","","","","","","","","","","","","","","","","","","","","","",""
"","","plant-game","0","80","955446","0-0","","200","120","1","CORN CROP","Left","200","160","2","NETTLE WEED","experimental","27","1,2","120,190","1,1","CORN CROP,WHEAT CROP","160,164.9220386086593","2,1","NETTLE WEED,NETTLE WEED","20,20","20,20","10,10","20,20","0,0","20,20","20,20","20,20","10,10","20,20","0,0","20,20","1,0","2859,4523","-25.40912105879094,24.629423638960294","4.9220386086592995,19.747957573230263","0","0"
"529","86","text","0","81","956105","0-0","","","","","","","","","","","","","","","","","","","","","","","","","","","","","","","","","","","","",""
"","","plant-game","0","82","973071","0-0","","200","120","8","CORN CROP","Right","200","160","4","NETTLE WEED","experimental","28","1,2,3,4,5,6,7,8","160,152.50743452555747,142.76190681057292,171.83203381696885,160,192.7036944215735,208.45756113525184,206.38323897749262","4,3,2,1,4,3,2,1","NETTLE WEED,NETTLE WEED,NETTLE WEED,NETTLE WEED,THISTLE WEED,THISTLE WEED,THISTLE WEED,THISTLE WEED","120,124.81955673357851,132.63782563439227,84.12709265612312,74.59638768373793,111.92847948424878,135.83952755467922,142.86581072188437","8,7,6,5,4,3,2,1","CORN CROP,CORN CROP,CORN CROP,CORN CROP,CORN CROP,CORN CROP,CORN CROP,CORN CROP","0,0,0,0,0,0,0,0","20,20,20,20,20,20,20,20","10,10,10,10,10,10,10,10","20,20,20,20,20,20,20,20","20,20,20,20,20,20,20,20","20,20,20,20,20,20,20,20","0,0,0,0,0,0,0,0","20,20,20,20,20,20,20,20","10,10,10,10,10,10,10,10","20,20,20,20,20,20,20,20","20,20,20,20,20,20,20,20","20,20,20,20,20,20,20,20","0,0,0,0,1,1,1,1","4727,421,358,1137,1501,1637,604,467","-7.492565474442539,-9.745527714984554,29.070127006395925,-7.617865204369726,32.70369442157348,15.753866713678342,-2.0743221577592053,17.30979649380192","4.8195567335785094,7.818268900813762,-48.51073297826914,-9.530704972385193,37.33209180051086,23.911048070430432,7.026283167205163,3.3967047722635115","0","0"
"154","86","text","0","83","973377","0-0","","","","","","","","","","","","","","","","","","","","","","","","","","","","","","","","","","","","",""
"","","plant-game","0","84","990019","0-0","","200","190","8","CORN CROP","Right","200","120","2","THISTLE WEED","experimental","29","1,2,3,4,5,6,7,8","120,140.90914062472066,140,157.33326328272292,171.76578187376376,201.38374569186252,253.63095594719186,282.5786957025456","2,1,6,5,4,3,2,1","THISTLE WEED,THISTLE WEED,NETTLE WEED,NETTLE WEED,NETTLE WEED,NETTLE WEED,NETTLE WEED,NETTLE WEED","190,180.2619989377286,197.97011428392398,195.97210049523903,168.88660821075058,183.14543125579183,203.1824303583462,233.09353162022688","8,7,6,5,4,3,2,1","CORN CROP,CORN CROP,CORN CROP,CORN CROP,CORN CROP,CORN CROP,CORN CROP,CORN CROP","0,0,0,0,0,0,0,0","20,20,20,20,20,20,20,20","10,10,10,10,10,10,10,10","20,20,20,20,20,20,20,20","20,20,20,20,20,20,20,20","20,20,20,20,20,20,20,20","0,0,0,0,0,0,0,0","20,20,20,20,20,20,20,20","10,10,10,10,10,10,10,10","20,20,20,20,20,20,20,20","20,20,20,20,20,20,20,20","20,20,20,20,20,20,20,20","0,0,0,0,1,1,1,1","2932,367,2839,1167,1475,788,774,550","20.909140624720667,27.52772668917427,17.333263282722932,14.432518591040832,29.617963818098765,52.24721025532934,28.94773975535374,9.703094741168814","-9.738001062271405,17.708115346195374,-1.998013788684937,-27.08549228448846,14.25882304504124,20.03699910255437,29.911101261880688,21.095846541531255","0","0"
"830","86","text","0","85","990960","0-0","","","","","","","","","","","","","","","","","","","","","","","","","","","","","","","","","","","","",""
"","","plant-game","0","86","1001520","0-0","","200","120","2","CORN CROP","Right","200","160","1","NETTLE WEED","experimental","30","1,2","160,190","1,1","NETTLE WEED,THISTLE WEED","120,111.08789753749934","2,1","CORN CROP,CORN CROP","0,0","20,20","10,10","20,20","20,20","20,20","0,0","20,20","10,10","20,20","20,20","20,20","0,0","4353,1969","-27.393745652824762,29.31199695785537","-8.912102462500656,-19.519994709117718","0","0"
"549","86","text","0","87","1002219","0-0","","","","","","","","","","","","","","","","","","","","","","","","","","","","","","","","","","","","",""
"","","plant-game","0","88","1014637","0-0","","200","190","8","CORN CROP","Left","200","190","8","NETTLE WEED","experimental","31","1,2,3,4,5,6,7,8","190,233.0442001005404,239.9935532403217,285.0450628701102,301.12310436694196,329.0551908658233,347.0294556759704,327.61080242920826","8,7,6,5,4,3,2,1","CORN CROP,CORN CROP,CORN CROP,CORN CROP,CORN CROP,CORN CROP,CORN CROP,CORN CROP","190,183.4722347246203,224.8873997187055,228.45190495147153,250.1816445598124,268.62514430731125,238.13567963912533,206.165848337881","8,7,6,5,4,3,2,1","NETTLE WEED,NETTLE WEED,NETTLE WEED,NETTLE WEED,NETTLE WEED,NETTLE WEED,NETTLE WEED,NETTLE WEED","20,20,20,20,20,20,20,20","20,20,20,20,20,20,20,20","10,10,10,10,10,10,10,10","20,20,20,20,20,20,20,20","0,0,0,0,0,0,0,0","20,20,20,20,20,20,20,20","20,20,20,20,20,20,20,20","20,20,20,20,20,20,20,20","10,10,10,10,10,10,10,10","20,20,20,20,20,20,20,20","0,0,0,0,0,0,0,0","20,20,20,20,20,20,20,20","0,0,0,0,0,1,1,1","4043,642,752,505,297,652,341,451","43.04420010054039,6.949353139781298,45.05150962978854,16.078041496831784,27.932086498881333,17.974264810147055,-19.418653246762112,-1.3462208533332267","-6.527765275379693,41.415164994085195,3.5645052327660522,21.729739608340875,18.44349974749886,-30.48946466818593,-31.96983130124435,-9.382240192967856","0","0"
"520","86","text","0","89","1015297","0-0","","","","","","","","","","","","","","","","","","","","","","","","","","","","","","","","","","","","",""
"","","plant-game","0","90","1029312","0-0","","200","120","4","CORN CROP","Right","200","180","8","NETTLE WEED","experimental","32","1,2,3,4,5,6,7,8","180,179.8446771102363,197.62562033500075,196.14043080195705,227.19266386169113,267.4421108988318,269.45935543220855,293.6683706523306","8,7,6,5,4,3,2,1","NETTLE WEED,NETTLE WEED,NETTLE WEED,NETTLE WEED,NETTLE WEED,NETTLE WEED,NETTLE WEED,NETTLE WEED","120,123.73023456629566,126.59117149957711,156.5860446024759,160,177.18932185260834,199.16424009681515,233.78624080630843","4,3,2,1,4,3,2,1","CORN CROP,CORN CROP,CORN CROP,CORN CROP,WHEAT CROP,WHEAT CROP,WHEAT CROP,WHEAT CROP","0,0,0,0,0,0,0,0","20,20,20,20,20,20,20,20","10,10,10,10,10,10,10,10","20,20,20,20,20,20,20,20","20,20,20,20,20,20,20,20","20,20,20,20,20,20,20,20","0,0,0,0,0,0,0,0","20,20,20,20,20,20,20,20","10,10,10,10,10,10,10,10","20,20,20,20,20,20,20,20","20,20,20,20,20,20,20,20","20,20,20,20,20,20,20,20","1,1,1,1,1,0,0,0","3785,168,143,253,1706,700,477,818","-0.15532288976369912,17.780943224764446,-1.4851895330436946,31.05223305973408,40.24944703714069,2.0172445333767604,24.20901522012204,17.627403381665687","3.7302345662956675,2.860936933281451,29.9948731028988,-18.127028457617712,17.189321852608344,21.97491824420681,34.62200070949327,-12.317992502182545","0","0"
"238","86","text","0","91","1029650","0-0","","","","","","","","","","","","","","","","","","","","","","","","","","","","","","","","","","","","",""
"","","plant-game","0","92","1047242","0-0","","200","160","2","WHEAT CROP","Left","200","190","4","NETTLE WEED","experimental","33","1,2,3,4","160,154.81450722352417,180,194.87508610478602","2,1,2,1","WHEAT CROP,WHEAT CROP,CORN CROP,CORN CROP","190,225.86481127633778,237.6039124969367,267.8621549463644","4,3,2,1","NETTLE WEED,NETTLE WEED,NETTLE WEED,NETTLE WEED","20,20,20,20","20,20,20,20","10,10,10,10","20,20,20,20","0,0,0,0","20,20,20,20","20,20,20,20","20,20,20,20","10,10,10,10","20,20,20,20","0,0,0,0","20,20,20,20","0,1,0,1","7711,896,1957,1538","-5.1854927764758365,10.17061296781881,14.875086104786025,47.00165090596096","35.864811276337775,11.739101220598911,30.258242449427737,-18.071938561762224","0","0"
"485","86","text","0","93","1047860","0-0","","","","","","","","","","","","","","","","","","","","","","","","","","","","","","","","","","","","",""
"","","plant-game","0","94","1069905","0-0","","200","180","1","WHEAT CROP","Right","200","160","4","NETTLE WEED","experimental","34","1,2,3,4","160,186.3845770007059,188.1770952093412,194.3993556819872","4,3,2,1","NETTLE WEED,NETTLE WEED,NETTLE WEED,NETTLE WEED","180,170,168.3355487828766,184.5613510739392","1,3,2,1","WHEAT CROP,CORN CROP,CORN CROP,CORN CROP","0,0,0,0","20,20,20,20","10,10,10,10","20,20,20,20","20,20,20,20","20,20,20,20","0,0,0,0","20,20,20,20","10,10,10,10","20,20,20,20","20,20,20,20","20,20,20,20","1,1,0,0","3435,8261,1713,2265","26.38457700070589,1.792518208635304,6.222260472646006,-16.749781631217505","-39.38251198012456,-1.6644512171233963,16.22580229106259,-28.633800565082097","0","0"
"182","86","text","0","95","1070228","0-0","","","","","","","","","","","","","","","","","","","","","","","","","","","","","","","","","","","","",""
"","","plant-game","0","96","1091126","0-0","","200","180","4","CORN CROP","Left","200","160","8","THISTLE WEED","experimental","35","1,2,3,4,5,6,7,8","180,172.0300268615742,162.41481630176307,167.09793794453802,160,153.25786492955757,141.39975907686622,178.5624785662247","4,3,2,1,4,3,2,1","CORN CROP,CORN CROP,CORN CROP,CORN CROP,WHEAT CROP,WHEAT CROP,WHEAT CROP,WHEAT CROP","160,198.09598237832114,255.53921951170835,265.1341509024991,261.7501163808288,265.1491581093292,287.22080628926585,256.6853111504811","8,7,6,5,4,3,2,1","THISTLE WEED,THISTLE WEED,THISTLE WEED,THISTLE WEED,THISTLE WEED,THISTLE WEED,THISTLE WEED,THISTLE WEED","20,20,20,20,20,20,20,20","20,20,20,20,20,20,20,20","10,10,10,10,10,10,10,10","20,20,20,20,20,20,20,20","0,0,0,0,0,0,0,0","20,20,20,20,20,20,20,20","20,20,20,20,20,20,20,20","20,20,20,20,20,20,20,20","10,10,10,10,10,10,10,10","20,20,20,20,20,20,20,20","0,0,0,0,0,0,0,0","20,20,20,20,20,20,20,20","0,0,1,1,1,0,1,1","5552,2096,629,574,2014,1844,1686,1038","-7.969973138425786,-9.615210559811157,4.683121642774936,6.975846081028787,-6.742135070442422,-11.858105852691342,37.1627194893585,-3.387871044496937","38.09598237832113,57.44323713338721,9.594931390790716,-3.3840345216702965,3.399041728500448,22.071648179936634,-30.53549513878476,13.999904874855334","0","0"
"209","86","text","0","97","1091445","0-0","","","","","","","","","","","","","","","","","","","","","","","","","","","","","","","","","","","","",""
"","","plant-game","0","98","1110557","0-0","","200","190","2","WHEAT CROP","Left","200","180","4","NETTLE WEED","experimental","36","1,2,3,4","190,188.08855191363622,180,183.79961505133647","2,1,2,1","WHEAT CROP,WHEAT CROP,CORN CROP,CORN CROP","180,225.3377033139028,256.7026290128126,275.20918584295947","4,3,2,1","NETTLE WEED,NETTLE WEED,NETTLE WEED,NETTLE WEED","20,20,20,20","20,20,20,20","10,10,10,10","20,20,20,20","0,0,0,0","20,20,20,20","20,20,20,20","20,20,20,20","10,10,10,10","20,20,20,20","0,0,0,0","20,20,20,20","0,0,0,0","5050,2614,5462,1121","-1.9114480863637695,-11.892021884960783,3.799615051336481,38.2479188934373","45.33770331390281,31.364925698909836,18.50655683014687,-7.504317452175776","0","0"
"479","86","text","0","99","1111156","0-0","","","","","","","","","","","","","","","","","","","","","","","","","","","","","","","","","","","","",""
"","","plant-game","0","100","1127201","0-0","","200","180","4","CORN CROP","Right","200","190","2","NETTLE WEED","experimental","37","1,2,3,4","190,203.15792699921957,180,187.63621354750762","2,1,2,1","NETTLE WEED,NETTLE WEED,THISTLE WEED,THISTLE WEED","180,192.6661256271399,192.11235762135806,215.5227826698425","4,3,2,1","CORN CROP,CORN CROP,CORN CROP,CORN CROP","0,0,0,0","20,20,20,20","10,10,10,10","20,20,20,20","20,20,20,20","20,20,20,20","0,0,0,0","20,20,20,20","10,10,10,10","20,20,20,20","20,20,20,20","20,20,20,20","0,1,1,1","4513,1388,1622,2577","13.15792699921956,7.872700299021744,7.636213547507635,-1.3266005335296782","12.666125627139914,-0.5537680057818548,23.410425048484463,18.363795236789745","0","0"
"1082","86","text","0","101","1128383","0-0","","","","","","","","","","","","","","","","","","","","","","","","","","","","","","","","","","","","",""
"","","plant-game","0","102","1146612","0-0","","200","180","1","WHEAT CROP","Right","200","160","8","THISTLE WEED","experimental","38","1,2,3,4,5,6,7,8","160,218.7729761350761,255.35888519670877,244.479222999876,264.0793855574582,256.5266087227743,249.56538785580568,260.30555903199297","8,7,6,5,4,3,2,1","THISTLE WEED,THISTLE WEED,THISTLE WEED,THISTLE WEED,THISTLE WEED,THISTLE WEED,THISTLE WEED,THISTLE WEED","180,130,150.32873291550845,120.71623890781841,82.41804168583772,128.30506822111886,147.56861716829167,156.98493445021583","1,7,6,5,4,3,2,1","WHEAT CROP,CORN CROP,CORN CROP,CORN CROP,CORN CROP,CORN CROP,CORN CROP,CORN CROP","0,0,0,0,0,0,0,0","20,20,20,20,20,20,20,20","10,10,10,10,10,10,10,10","20,20,20,20,20,20,20,20","20,20,20,20,20,20,20,20","20,20,20,20,20,20,20,20","0,0,0,0,0,0,0,0","20,20,20,20,20,20,20,20","10,10,10,10,10,10,10,10","20,20,20,20,20,20,20,20","20,20,20,20,20,20,20,20","20,20,20,20,20,20,20,20","1,1,0,0,1,1,1,1","3173,3732,646,1228,1615,551,382,597","58.77297613507611,36.585909061632655,-10.87966219683278,19.600162557582202,-7.55277683468389,-6.961220866968642,10.7401711761873,-5.157889348446254","15.601290782786553,20.328732915508468,-29.612494007690046,-38.298197221980686,45.88702653528112,19.263548947172797,9.416317281924165,21.031704825904242","0","0"
"504","86","text","0","103","1147256","0-0","","","","","","","","","","","","","","","","","","","","","","","","","","","","","","","","","","","","",""
"","","plant-game","0","104","1168781","0-0","","200","190","8","WHEAT CROP","Right","200","180","4","NETTLE WEED","experimental","39","1,2,3,4,5,6,7,8","180,195.04041737927645,204.70049356338833,222.8611531416608,160,164.55899386868907,210.03399463915756,247.46733268749165","4,3,2,1,4,3,2,1","NETTLE WEED,NETTLE WEED,NETTLE WEED,NETTLE WEED,THISTLE WEED,THISTLE WEED,THISTLE WEED,THISTLE WEED","190,192.60492991660206,234.98364431722445,245.9245653465418,250.0043890583884,301.42196424989424,294.46977459732216,282.47775059936356","8,7,6,5,4,3,2,1","WHEAT CROP,WHEAT CROP,WHEAT CROP,WHEAT CROP,WHEAT CROP,WHEAT CROP,WHEAT CROP,WHEAT CROP","0,0,0,0,0,0,0,0","20,20,20,20,20,20,20,20","10,10,10,10,10,10,10,10","20,20,20,20,20,20,20,20","20,20,20,20,20,20,20,20","20,20,20,20,20,20,20,20","0,0,0,0,0,0,0,0","20,20,20,20,20,20,20,20","10,10,10,10,10,10,10,10","20,20,20,20,20,20,20,20","20,20,20,20,20,20,20,20","20,20,20,20,20,20,20,20","0,0,1,1,0,0,0,1","4491,1313,1925,1203,3949,735,1805,595","15.040417379276452,9.6600761841119,18.160659578272472,10.737150486153896,4.558993868689073,45.47500077046849,37.4333380483341,21.902664373142244","2.604929916602053,42.378714400622385,10.940921029317362,4.079823711846577,51.41757519150583,-6.95218965257209,-11.992023997958608,12.742348080402076","0","0"
"212","86","text","0","105","1169088","0-0","","","","","","","","","","","","","","","","","","","","","","","","","","","","","","","","","","","","",""
"","","plant-game","0","106","1176081","0-0","","200","120","1","CORN CROP","Left","200","120","1","NETTLE WEED","experimental","40","1","120","1","CORN CROP","120","1","NETTLE WEED","20","20","10","20","0","20","20","20","10","20","0","20","1","3220","-2.7825872057779018","15.822433481146234","2","0"
"598","86","text","0","107","1176799","0-0","","","","","","","","","","","","","","","","","","","","","","","","","","","","","","","","","","","","",""
"","","plant-game","0","108","1188881","0-0","","200","120","2","WHEAT CROP","Right","200","120","4","THISTLE WEED","experimental","41","1,2,3,4","120,149.77579444366188,181.69674105432335,183.07328275140313","4,3,2,1","THISTLE WEED,THISTLE WEED,THISTLE WEED,THISTLE WEED","120,137.22230438309967,180,186.80113461803145","2,1,2,1","WHEAT CROP,WHEAT CROP,CORN CROP,CORN CROP","0,0,0,0","20,20,20,20","10,10,10,10","20,20,20,20","20,20,20,20","20,20,20,20","0,0,0,0","20,20,20,20","10,10,10,10","20,20,20,20","20,20,20,20","20,20,20,20","1,1,0,0","2881,861,2069,710","29.775794443661884,31.92094661066149,1.3765416970797668,-0.9050859081455838","17.222304383099665,26.28378144503685,6.801134618031455,1.5415028849612589","0","0"
"805","86","text","0","109","1189811","0-0","","","","","","","","","","","","","","","","","","","","","","","","","","","","","","","","","","","","",""
"","","plant-game","0","110","1197687","0-0","","200","180","2","CORN CROP","Left","200","160","2","NETTLE WEED","experimental","42","1,2","180,159.37754972901652","2,1","CORN CROP,CORN CROP","160,130.12860441234292","2,1","NETTLE WEED,NETTLE WEED","20,20","20,20","10,10","20,20","0,0","20,20","20,20","20,20","10,10","20,20","0,0","20,20","1,1","3104,1826","-20.622450270983474,-48.31785388992428","-29.87139558765708,3.8752052492250098","0","0"
"1192","86","text","0","111","1198957","0-0","","","","","","","","","","","","","","","","","","","","","","","","","","","","","","","","","","","","",""
"","","plant-game","0","112","1217996","0-0","","200","180","4","WHEAT CROP","Right","200","190","4","NETTLE WEED","experimental","43","1,2,3,4","190,250.4722416118315,259.29131294046675,294.05803451616555","4,3,2,1","NETTLE WEED,NETTLE WEED,NETTLE WEED,NETTLE WEED","180,193.0799433097708,194.09200468939045,222.4992221831775","4,3,2,1","WHEAT CROP,WHEAT CROP,WHEAT CROP,WHEAT CROP","0,0,0,0","20,20,20,20","10,10,10,10","20,20,20,20","20,20,20,20","20,20,20,20","0,0,0,0","20,20,20,20","10,10,10,10","20,20,20,20","20,20,20,20","20,20,20,20","1,0,1,1","7886,5363,1841,990","60.472241611831485,8.819071328635243,34.76672157569878,24.856384502677283","13.079943309770815,1.0120613796196514,28.407217493787044,36.61317497824435","0","0"
"140","86","text","0","113","1218236","0-0","","","","","","","","","","","","","","","","","","","","","","","","","","","","","","","","","","","","",""
"","","plant-game","0","114","1223746","0-0","","200","160","1","CORN CROP","Right","200","160","1","NETTLE WEED","experimental","44","1","160","1","NETTLE WEED","160","1","CORN CROP","0","20","10","20","20","20","0","20","10","20","20","20","0","2482","27.909240215783665","26.15156013999127","0","0"
"201","86","text","0","115","1224047","0-0","","","","","","","","","","","","","","","","","","","","","","","","","","","","","","","","","","","","",""
"","","plant-game","0","116","1242489","0-0","","200","160","2","CORN CROP","Right","200","190","8","THISTLE WEED","experimental","45","1,2,3,4,5,6,7,8","190,198.09042320494265,220.75925571024274,253.1196819186991,236.67881424565036,220.06742180984645,221.2762052514991,216.2163662506661","8,7,6,5,4,3,2,1","THISTLE WEED,THISTLE WEED,THISTLE WEED,THISTLE WEED,THISTLE WEED,THISTLE WEED,THISTLE WEED,THISTLE WEED","160,191.79211616325165,140,141.9103820946872,135.16498631082928,179.6585237998563,204.47404184077595,204.32377588994743","2,1,6,5,4,3,2,1","CORN CROP,CORN CROP,WHEAT CROP,WHEAT CROP,WHEAT CROP,WHEAT CROP,WHEAT CROP,WHEAT CROP","0,0,0,0,0,0,0,0","20,20,20,20,20,20,20,20","10,10,10,10,10,10,10,10","20,20,20,20,20,20,20,20","20,20,20,20,20,20,20,20","20,20,20,20,20,20,20,20","0,0,0,0,0,0,0,0","20,20,20,20,20,20,20,20","10,10,10,10,10,10,10,10","20,20,20,20,20,20,20,20","20,20,20,20,20,20,20,20","20,20,20,20,20,20,20,20","1,1,0,0,0,0,0,0","4903,120,2416,1509,1245,380,1300,512","8.090423204942645,22.668832505300077,32.36042620845633,-16.440867673048714,-16.611392435803904,1.208783441652645,-5.059839000833005,-14.50831087498788","31.792116163251656,34.5097058823232,1.9103820946872059,-6.7453957838579335,44.49353748902703,24.81551804091965,-0.1502659508285402,30.88878842142072","0","0"
"481","86","text","0","117","1243130","0-0","","","","","","","","","","","","","","","","","","","","","","","","","","","","","","","","","","","","",""
"","","plant-game","0","118","1256307","0-0","","200","120","4","CORN CROP","Right","200","160","1","NETTLE WEED","experimental","46","1,2,3,4","160,170,194.04554398562766,180.45542513527752","1,3,2,1","NETTLE WEED,THISTLE WEED,THISTLE WEED,THISTLE WEED","120,108.0645958076043,116.85824972680214,86.93137230004977","4,3,2,1","CORN CROP,CORN CROP,CORN CROP,CORN CROP","0,0,0,0","20,20,20,20","10,10,10,10","20,20,20,20","20,20,20,20","20,20,20,20","0,0,0,0","20,20,20,20","10,10,10,10","20,20,20,20","20,20,20,20","20,20,20,20","0,1,0,0","1932,2412,3946,667","20.79214943529523,24.04554398562767,-13.59011885035014,3.1278080117682494","-11.935404192395698,8.793653919197837,-29.926877426752366,28.74686996238661","0","0"
"557","86","text","0","119","1257004","0-0","","","","","","","","","","","","","","","","","","","","","","","","","","","","","","","","","","","","",""
"","","plant-game","0","120","1271007","0-0","","200","120","4","CORN CROP","Right","200","120","8","NETTLE WEED","experimental","47","1,2,3,4,5,6,7,8","120,174.6158840881186,189.2427681258015,240.8146835245691,234.48955651975862,230.4561604021593,223.384732074982,183.392775321106","8,7,6,5,4,3,2,1","NETTLE WEED,NETTLE WEED,NETTLE WEED,NETTLE WEED,NETTLE WEED,NETTLE WEED,NETTLE WEED,NETTLE WEED","120,147.89565661940856,152.9228574493889,152.56251320589536,160,150.56726662963817,122.43062834055615,126.92038046779759","4,3,2,1,4,3,2,1","CORN CROP,CORN CROP,CORN CROP,CORN CROP,WHEAT CROP,WHEAT CROP,WHEAT CROP,WHEAT CROP","0,0,0,0,0,0,0,0","20,20,20,20,20,20,20,20","10,10,10,10,10,10,10,10","20,20,20,20,20,20,20,20","20,20,20,20,20,20,20,20","20,20,20,20,20,20,20,20","0,0,0,0,0,0,0,0","20,20,20,20,20,20,20,20","10,10,10,10,10,10,10,10","20,20,20,20,20,20,20,20","20,20,20,20,20,20,20,20","20,20,20,20,20,20,20,20","1,1,1,1,0,0,0,0","3811,409,1032,896,1260,644,439,543","54.61588408811861,14.62688403768288,51.571915398767615,-6.325127004810458,-4.033396117599331,-7.071428327177291,-39.99195675387601,-0.797148476198154","27.89565661940856,5.027200829980355,-0.3603442434935502,25.377526390703565,-9.432733370361833,-28.136638289082022,4.48975212724143,-41.574487352145965","0","0"
"732","86","text","0","121","1271839","0-0","","","","","","","","","","","","","","","","","","","","","","","","","","","","","","","","","","","","",""
"","","plant-game","0","122","1292780","0-0","","200","120","8","WHEAT CROP","Left","200","160","1","NETTLE WEED","experimental","48","1,2,3,4,5,6,7,8","120,122.20544351529777,137.9578048542355,152.48698724054293,146.69397251568427,139.37246552771495,140.02178206886072,182.2851799536434","8,7,6,5,4,3,2,1","WHEAT CROP,WHEAT CROP,WHEAT CROP,WHEAT CROP,WHEAT CROP,WHEAT CROP,WHEAT CROP,WHEAT CROP","160,130,104.79135768795558,150.82501083049925,193.04575544219927,183.78540857215208,202.16954590305633,178.0532010450632","1,7,6,5,4,3,2,1","NETTLE WEED,THISTLE WEED,THISTLE WEED,THISTLE WEED,THISTLE WEED,THISTLE WEED,THISTLE WEED,THISTLE WEED","20,20,20,20,20,20,20,20","20,20,20,20,20,20,20,20","10,10,10,10,10,10,10,10","20,20,20,20,20,20,20,20","0,0,0,0,0,0,0,0","20,20,20,20,20,20,20,20","20,20,20,20,20,20,20,20","20,20,20,20,20,20,20,20","10,10,10,10,10,10,10,10","20,20,20,20,20,20,20,20","0,0,0,0,0,0,0,0","20,20,20,20,20,20,20,20","1,0,0,0,1,1,0,0","2827,2269,451,1231,4796,629,1489,1248","2.205443515297771,15.752361338937714,14.529182386307449,-5.793014724858679,-7.3215069879693,0.6493165411457619,42.26339788478268,-12.848208596628112","-23.415602602181398,-25.208642312044418,46.033653142543685,42.220744611700006,-9.260346870047199,18.38413733090424,-24.11634485799314,26.1082953933154","0","0"
"1155","86","text","0","123","1294025","0-0","","","","","","","","","","","","","","","","","","","","","","","","","","","","","","","","","","","","",""
"","","plant-game","0","124","1308769","0-0","","200","160","8","CORN CROP","Left","200","190","1","THISTLE WEED","experimental","49","1,2,3,4,5,6,7,8","160,163.61482216251272,205.45660223481963,241.94376079874894,248.81973478119684,294.0246228658617,265.2987432294136,282.44034687113304","8,7,6,5,4,3,2,1","CORN CROP,CORN CROP,CORN CROP,CORN CROP,CORN CROP,CORN CROP,CORN CROP,CORN CROP","190,130,143.57387560838012,158.75192998829982,137.11467786110177,118.55158681030807,101.91122471993715,64.03194216746408","1,7,6,5,4,3,2,1","THISTLE WEED,NETTLE WEED,NETTLE WEED,NETTLE WEED,NETTLE WEED,NETTLE WEED,NETTLE WEED,NETTLE WEED","20,20,20,20,20,20,20,20","20,20,20,20,20,20,20,20","10,10,10,10,10,10,10,10","20,20,20,20,20,20,20,20","0,0,0,0,0,0,0,0","20,20,20,20,20,20,20,20","20,20,20,20,20,20,20,20","20,20,20,20,20,20,20,20","10,10,10,10,10,10,10,10","20,20,20,20,20,20,20,20","0,0,0,0,0,0,0,0","20,20,20,20,20,20,20,20","1,0,0,1,1,1,1,1","2183,2559,1134,1183,609,503,1078,716","3.6148221625127226,41.8417800723069,36.4871585639293,6.875973982447907,45.204888084664844,-28.725879636448127,17.141603641719414,-4.118805635530104","9.999123950903314,13.573875608380115,15.178054379919702,-21.637252127198046,-18.56309105079371,-16.640362090370914,-37.87928255247308,6.178587023676493","0","0"
"82","86","text","0","125","1308951","0-0","","","","","","","","","","","","","","","","","","","","","","","","","","","","","","","","","","","","",""
"","","plant-game","0","126","1322167","0-0","","200","190","1","CORN CROP","Left","200","120","4","NETTLE WEED","experimental","50","1,2,3,4","190,170,224.2359899300668,241.39455739852357","1,3,2,1","CORN CROP,WHEAT CROP,WHEAT CROP,WHEAT CROP","120,177.3170819838594,193.3208912179964,219.65714818557174","4,3,2,1","NETTLE WEED,NETTLE WEED,NETTLE WEED,NETTLE WEED","20,20,20,20","20,20,20,20","10,10,10,10","20,20,20,20","0,0,0,0","20,20,20,20","20,20,20,20","20,20,20,20","10,10,10,10","20,20,20,20","0,0,0,0","20,20,20,20","0,0,1,0","2396,3700,1472,1537","28.512827868004365,54.23598993006682,17.15856746845676,7.6662081227147265","57.31708198385938,16.00380923413702,26.336256967575345,51.03824590353608","0","0"
"570","86","text","0","127","1322850","0-0","","","","","","","","","","","","","","","","","","","","","","","","","","","","","","","","","","","","",""
"","","plant-game","0","128","1332590","0-0","","200","190","4","CORN CROP","Left","200","120","1","NETTLE WEED","experimental","51","1,2,3,4","190,183.77585487523453,228.03088087740792,242.8212385711089","4,3,2,1","CORN CROP,CORN CROP,CORN CROP,CORN CROP","120,170,228.99767887275544,243.65313108557197","1,3,2,1","NETTLE WEED,THISTLE WEED,THISTLE WEED,THISTLE WEED","20,20,20,20","20,20,20,20","10,10,10,10","20,20,20,20","0,0,0,0","20,20,20,20","20,20,20,20","20,20,20,20","10,10,10,10","20,20,20,20","0,0,0,0","20,20,20,20","1,0,0,0","1939,1830,1522,579","-6.224145124765483,44.255026002173395,14.790357693700964,3.006125149935116","-8.234233908888635,58.99767887275546,14.65545221281653,18.335807253891563","0","0"
"768","86","text","0","129","1333441","0-0","","","","","","","","","","","","","","","","","","","","","","","","","","","","","","","","","","","","",""
"","","plant-game","0","130","1342263","0-0","","200","160","4","WHEAT CROP","Right","200","160","4","THISTLE WEED","experimental","52","1,2,3,4","160,185.51971344969854,215.06919169165894,253.8907168583485","4,3,2,1","THISTLE WEED,THISTLE WEED,THISTLE WEED,THISTLE WEED","160,167.88875835804697,202.99259205945918,192.36717431278328","4,3,2,1","WHEAT CROP,WHEAT CROP,WHEAT CROP,WHEAT CROP","0,0,0,0","20,20,20,20","10,10,10,10","20,20,20,20","20,20,20,20","20,20,20,20","0,0,0,0","20,20,20,20","10,10,10,10","20,20,20,20","20,20,20,20","20,20,20,20","1,0,0,1","2843,882,1001,1041","25.519713449698553,29.549478241960397,38.821525166689554,15.978168990247976","7.888758358046983,35.10383370141221,-10.625417746675904,18.160470532095808","0","0"
"524","86","text","0","131","1342887","0-0","","","","","","","","","","","","","","","","","","","","","","","","","","","","","","","","","","","","",""
"","","plant-game","0","132","1359876","0-0","","200","160","8","CORN CROP","Left","200","180","2","NETTLE WEED","experimental","53","1,2,3,4,5,6,7,8","160,169.3105562723371,188.0631676430174,205.6908735303847,231.40899454230052,274.46278732179394,294.9105817539551,309.3034814995051","8,7,6,5,4,3,2,1","CORN CROP,CORN CROP,CORN CROP,CORN CROP,CORN CROP,CORN CROP,CORN CROP,CORN CROP","180,193.4527031255465,140,150.6118027302939,169.29246209527753,183.44365909366402,184.21518127787513,180.33910396734154","2,1,6,5,4,3,2,1","NETTLE WEED,NETTLE WEED,THISTLE WEED,THISTLE WEED,THISTLE WEED,THISTLE WEED,THISTLE WEED,THISTLE WEED","20,20,20,20,20,20,20,20","20,20,20,20,20,20,20,20","10,10,10,10,10,10,10,10","20,20,20,20,20,20,20,20","0,0,0,0,0,0,0,0","20,20,20,20,20,20,20,20","20,20,20,20,20,20,20,20","20,20,20,20,20,20,20,20","10,10,10,10,10,10,10,10","20,20,20,20,20,20,20,20","0,0,0,0,0,0,0,0","20,20,20,20,20,20,20,20","1,1,0,0,0,1,1,1","4980,1624,1726,768,590,905,615,487","9.310556272337099,18.752611370680317,17.627705887367277,25.71812101191582,43.053792779493406,20.44779443216118,14.392899745549997,-5.319077879236195","13.45270312554648,-24.705833975276164,10.6118027302939,18.680659364983633,14.151196998386492,0.7715221842110955,-3.8760773105335975,2.3301797972758562","0","0"
"588","86","text","0","133","1360594","0-0","","","","","","","","","","","","","","","","","","","","","","","","","","","","","","","","","","","","",""
"","","plant-game","0","134","1369458","0-0","","200","120","2","WHEAT CROP","Left","200","190","2","NETTLE WEED","experimental","54","1,2","120,106.53893440301839","2,1","WHEAT CROP,WHEAT CROP","190,215.7452486462434","2,1","NETTLE WEED,NETTLE WEED","20,20","20,20","10,10","20,20","0,0","20,20","20,20","20,20","10,10","20,20","0,0","20,20","1,1","5586,96","-13.461065596981607,-9.453392283955237","25.745248646243404,9.945782039754892","0","0"
"1217","86","text","0","135","1370765","0-0","","","","","","","","","","","","","","","","","","","","","","","","","","","","","","","","","","","","",""
"","","plant-game","0","136","1384489","0-0","","200","120","4","WHEAT CROP","Left","200","120","2","THISTLE WEED","experimental","55","1,2,3,4","120,109.23439280956413,110.23629524632003,146.9943942401138","4,3,2,1","WHEAT CROP,WHEAT CROP,WHEAT CROP,WHEAT CROP","120,139.09866228294905,180,224.63984601101868","2,1,2,1","THISTLE WEED,THISTLE WEED,NETTLE WEED,NETTLE WEED","20,20,20,20","20,20,20,20","10,10,10,10","20,20,20,20","0,0,0,0","20,20,20,20","20,20,20,20","20,20,20,20","10,10,10,10","20,20,20,20","0,0,0,0","20,20,20,20","1,1,1,0","3803,327,2846,1435","-10.765607190435876,1.0019024367558989,36.75809899379376,-4.860831916686131","19.09866228294906,-20.029159058837656,44.63984601101869,17.186395794429938","0","0"
"1094","86","text","0","137","1385683","0-0","","","","","","","","","","","","","","","","","","","","","","","","","","","","","","","","","","","","",""
"","","plant-game","0","138","1400575","0-0","","200","120","1","CORN CROP","Right","200","190","4","THISTLE WEED","experimental","56","1,2,3,4","190,210.0745637067763,176.36895470749465,165.42110173749273","4,3,2,1","THISTLE WEED,THISTLE WEED,THISTLE WEED,THISTLE WEED","120,170,135.98208159669824,120.98775478602873","1,3,2,1","CORN CROP,WHEAT CROP,WHEAT CROP,WHEAT CROP","0,0,0,0","20,20,20,20","10,10,10,10","20,20,20,20","20,20,20,20","20,20,20,20","0,0,0,0","20,20,20,20","10,10,10,10","20,20,20,20","20,20,20,20","20,20,20,20","1,0,0,0","5769,2453,1107,595","20.07456370677629,-33.70560899928164,-10.947852970001925,-18.12178391402878","52.13488924523893,-34.01791840330176,-14.994326810669506,31.75783400669485","0","0"
"495","86","text","0","139","1401270","0-0","","","","","","","","","","","","","","","","","","","","","","","","","","","","","","","","","","","","",""
"","","plant-game","0","140","1414328","0-0","","200","160","8","CORN CROP","Right","200","120","4","NETTLE WEED","experimental","57","1,2,3,4,5,6,7,8","120,80.04887101018943,82.51294819460098,100.08860356211875,160,169.01377808025657,170.23672995662662,167.53538465105734","4,3,2,1,4,3,2,1","NETTLE WEED,NETTLE WEED,NETTLE WEED,NETTLE WEED,THISTLE WEED,THISTLE WEED,THISTLE WEED,THISTLE WEED","160,158.77744252509135,175.62423220337433,184.79188544328542,200.77439800276244,190.79183631877078,223.54801117148781,240.28238901790303","8,7,6,5,4,3,2,1","CORN CROP,CORN CROP,CORN CROP,CORN CROP,CORN CROP,CORN CROP,CORN CROP,CORN CROP","0,0,0,0,0,0,0,0","20,20,20,20,20,20,20,20","10,10,10,10,10,10,10,10","20,20,20,20,20,20,20,20","20,20,20,20,20,20,20,20","20,20,20,20,20,20,20,20","0,0,0,0,0,0,0,0","20,20,20,20,20,20,20,20","10,10,10,10,10,10,10,10","20,20,20,20,20,20,20,20","20,20,20,20,20,20,20,20","20,20,20,20,20,20,20,20","0,0,0,0,0,1,1,0","2281,388,405,536,1398,941,869,1620","-39.95112898981058,2.464077184411548,17.575655367517776,-18.222978105702722,9.01377808025656,1.2229518763700469,-2.701345305569287,-6.462822618042265","-1.2225574749086663,16.846789678282978,9.167653239911077,15.982512559477016,-9.98256168399166,32.75617485271704,16.73437784641521,7.714542258411673","0","0"
"204","86","text","0","141","1414632","0-0","","","","","","","","","","","","","","","","","","","","","","","","","","","","","","","","","","","","",""
"","","plant-game","0","142","1431219","0-0","","200","160","8","WHEAT CROP","Right","200","120","2","THISTLE WEED","experimental","58","1,2,3,4,5,6,7,8","120,141.80354819161573,140,181.7701448535454,192.8957606654301,215.5264088406626,225.70142565258178,246.23062046846158","2,1,6,5,4,3,2,1","THISTLE WEED,THISTLE WEED,NETTLE WEED,NETTLE WEED,NETTLE WEED,NETTLE WEED,NETTLE WEED,NETTLE WEED","160,159.6337733312069,135.30883203899833,149.0766162245678,151.8059507528496,203.866245553996,228.1274777433866,275.37941954074387","8,7,6,5,4,3,2,1","WHEAT CROP,WHEAT CROP,WHEAT CROP,WHEAT CROP,WHEAT CROP,WHEAT CROP,WHEAT CROP,WHEAT CROP","0,0,0,0,0,0,0,0","20,20,20,20,20,20,20,20","10,10,10,10,10,10,10,10","20,20,20,20,20,20,20,20","20,20,20,20,20,20,20,20","20,20,20,20,20,20,20,20","0,0,0,0,0,0,0,0","20,20,20,20,20,20,20,20","10,10,10,10,10,10,10,10","20,20,20,20,20,20,20,20","20,20,20,20,20,20,20,20","20,20,20,20,20,20,20,20","0,0,1,0,1,1,1,1","3010,211,2336,1759,1182,1926,560,1292","21.803548191615732,-14.667602554613246,41.77014485354538,11.125615811884686,22.630648175232512,10.175016811919166,20.529194815879794,7.5606722260431365","-0.3662266687931105,-24.324941292208578,13.767784185569456,2.729334528281801,52.060294801146384,24.261232189390604,47.25194179735728,-12.810321207020273","0","0"
"450","86","text","0","143","1431789","0-0","","","","","","","","","","","","","","","","","","","","","","","","","","","","","","","","","","","","",""
"","","plant-game","0","144","1451901","0-0","","200","120","8","WHEAT CROP","Left","200","190","8","THISTLE WEED","experimental","59","1,2,3,4,5,6,7,8","120,162.28702601910854,182.2490047950877,199.38669591997325,205.61940219583244,205.4866743854388,224.66822133246242,217.1325653997714","8,7,6,5,4,3,2,1","WHEAT CROP,WHEAT CROP,WHEAT CROP,WHEAT CROP,WHEAT CROP,WHEAT CROP,WHEAT CROP,WHEAT CROP","190,190.9274671992694,217.4007406108126,220.17745991323713,204.42127486411434,231.15837921253194,190.3388770976514,185.10486026701022","8,7,6,5,4,3,2,1","THISTLE WEED,THISTLE WEED,THISTLE WEED,THISTLE WEED,THISTLE WEED,THISTLE WEED,THISTLE WEED,THISTLE WEED","20,20,20,20,20,20,20,20","20,20,20,20,20,20,20,20","10,10,10,10,10,10,10,10","20,20,20,20,20,20,20,20","0,0,0,0,0,0,0,0","20,20,20,20,20,20,20,20","20,20,20,20,20,20,20,20","20,20,20,20,20,20,20,20","10,10,10,10,10,10,10,10","20,20,20,20,20,20,20,20","0,0,0,0,0,0,0,0","20,20,20,20,20,20,20,20","0,0,0,1,1,1,1,0","7418,791,1100,1394,566,1484,1056,1325","42.28702601910853,19.961978775979162,17.13769112488555,6.2327062758591865,-0.13272781039363474,19.181546947023623,-7.5356559326910215,43.17399237017372","0.9274671992693797,26.473273411543197,2.776719302424535,-15.756185049122788,26.737104348417592,-40.819502114880535,-5.234016830641165,56.60396289658047","0","0"
"1676","86","text","0","145","1453694","0-0","","","","","","","","","","","","","","","","","","","","","","","","","","","","","","","","","","","","",""
"","","plant-game","0","146","1463822","0-0","","200","190","4","WHEAT CROP","Left","200","190","4","THISTLE WEED","experimental","60","1,2,3,4","190,204.14575155968043,195.9453837376378,182.35691983567565","4,3,2,1","WHEAT CROP,WHEAT CROP,WHEAT CROP,WHEAT CROP","190,216.86197219464754,198.06517216354783,206.49615126469405","4,3,2,1","THISTLE WEED,THISTLE WEED,THISTLE WEED,THISTLE WEED","20,20,20,20","20,20,20,20","10,10,10,10","20,20,20,20","0,0,0,0","20,20,20,20","20,20,20,20","20,20,20,20","10,10,10,10","20,20,20,20","0,0,0,0","20,20,20,20","0,1,1,0","1758,1020,2137,1727","14.145751559680441,-8.200367822042642,-13.588463901962143,19.056007862839138","26.861972194647525,-18.796800031099696,8.430979101146235,35.60545482422329","0","0"
"454","86","text","0","147","1464406","0-0","","","","","","","","","","","","","","","","","","","","","","","","","","","","","","","","","","","","",""
"","","plant-game","0","148","1480198","0-0","","200","190","4","WHEAT CROP","Right","200","160","8","NETTLE WEED","experimental","61","1,2,3,4,5,6,7,8","160,171.41931303579554,170.18253508413412,167.3447932688999,153.78219719624738,167.91809266292265,150.33100948743052,182.07041960008908","8,7,6,5,4,3,2,1","NETTLE WEED,NETTLE WEED,NETTLE WEED,NETTLE WEED,NETTLE WEED,NETTLE WEED,NETTLE WEED,NETTLE WEED","190,201.7570368451672,233.2087944194621,234.65842498965324,160,145.50824895846952,170.56916908767346,172.6150998667802","4,3,2,1,4,3,2,1","WHEAT CROP,WHEAT CROP,WHEAT CROP,WHEAT CROP,CORN CROP,CORN CROP,CORN CROP,CORN CROP","0,0,0,0,0,0,0,0","20,20,20,20,20,20,20,20","10,10,10,10,10,10,10,10","20,20,20,20,20,20,20,20","20,20,20,20,20,20,20,20","20,20,20,20,20,20,20,20","0,0,0,0,0,0,0,0","20,20,20,20,20,20,20,20","10,10,10,10,10,10,10,10","20,20,20,20,20,20,20,20","20,20,20,20,20,20,20,20","20,20,20,20,20,20,20,20","0,0,0,0,0,1,1,1","3930,844,735,396,1716,1020,634,1565","11.419313035795538,-1.2367779516614212,-2.8377418152342146,-13.562596072652527,14.135895466675255,-17.58708317549212,31.739410112658565,31.142018216421317","11.757036845167182,31.4517575742949,1.449630570191136,2.6286200354570264,-14.491751041530478,25.060920129203943,2.0459307791067616,29.983800218827476","0","0"
"551","86","text","0","149","1480859","0-0","","","","","","","","","","","","","","","","","","","","","","","","","","","","","","","","","","","","",""
"","","plant-game","0","150","1492318","0-0","","200","160","1","CORN CROP","Right","200","190","4","THISTLE WEED","experimental","62","1,2,3,4","190,188.0784306874437,220.58299792229894,232.74472500535043","4,3,2,1","THISTLE WEED,THISTLE WEED,THISTLE WEED,THISTLE WEED","160,170,180.65263248507546,208.372611679519","1,3,2,1","CORN CROP,WHEAT CROP,WHEAT CROP,WHEAT CROP","0,0,0,0","20,20,20,20","10,10,10,10","20,20,20,20","20,20,20,20","20,20,20,20","0,0,0,0","20,20,20,20","10,10,10,10","20,20,20,20","20,20,20,20","20,20,20,20","1,1,1,0","3530,1190,542,798","-1.9215693125563078,32.50456723485524,12.161727083051478,39.00162100925951","20.94653941941553,10.652632485075472,27.719979194443532,21.499469336098333","0","0"
"512","86","text","0","151","1492951","0-0","","","","","","","","","","","","","","","","","","","","","","","","","","","","","","","","","","","","",""
"","","plant-game","0","152","1507322","0-0","","200","120","1","CORN CROP","Right","200","160","8","NETTLE WEED","experimental","63","1,2,3,4,5,6,7,8","160,145.61352173234715,159.19337244346252,151.04824163367599,139.60405795478246,150.17929751978255,161.57850791298998,163.68535840613586","8,7,6,5,4,3,2,1","NETTLE WEED,NETTLE WEED,NETTLE WEED,NETTLE WEED,NETTLE WEED,NETTLE WEED,NETTLE WEED,NETTLE WEED","120,130,112.1386933714728,135.92072978610858,90.66477283670658,77.52440966614907,93.98465261064537,121.14216544158708","1,7,6,5,4,3,2,1","CORN CROP,WHEAT CROP,WHEAT CROP,WHEAT CROP,WHEAT CROP,WHEAT CROP,WHEAT CROP,WHEAT CROP","0,0,0,0,0,0,0,0","20,20,20,20,20,20,20,20","10,10,10,10,10,10,10,10","20,20,20,20,20,20,20,20","20,20,20,20,20,20,20,20","20,20,20,20,20,20,20,20","0,0,0,0,0,0,0,0","20,20,20,20,20,20,20,20","10,10,10,10,10,10,10,10","20,20,20,20,20,20,20,20","20,20,20,20,20,20,20,20","20,20,20,20,20,20,20,20","0,1,0,0,0,1,0,0","2570,1205,819,539,1535,925,711,746","-14.386478267652858,13.57985071111538,-8.145130809786545,-11.444183678893518,10.575239565000079,11.399210393207419,2.1068504931458882,29.749887641127913","15.889331467851191,-17.861306628527203,23.78203641463579,-45.255956949402005,-13.140363170557507,16.4602429444963,27.157512830941705,4.749515870205318","0","0"
"665","86","text","0","153","1508128","0-0","","","","","","","","","","","","","","","","","","","","","","","","","","","","","","","","","","","","",""
"","","plant-game","0","154","1520379","0-0","","200","180","4","WHEAT CROP","Left","200","160","2","THISTLE WEED","experimental","64","1,2,3,4","180,200.38046869000001,233.54893656449173,240.35021120590218","4,3,2,1","WHEAT CROP,WHEAT CROP,WHEAT CROP,WHEAT CROP","160,162.11776347053856,180,193.19184041471","2,1,2,1","THISTLE WEED,THISTLE WEED,NETTLE WEED,NETTLE WEED","20,20,20,20","20,20,20,20","10,10,10,10","20,20,20,20","0,0,0,0","20,20,20,20","20,20,20,20","20,20,20,20","10,10,10,10","20,20,20,20","0,0,0,0","20,20,20,20","1,1,1,1","4289,203,1471,1870","20.380468690000008,33.16846787449172,6.801274641410457,-8.446350462482586","2.1177634705385695,-6.92973273684686,13.191840414709976,-48.92902031778996","0","0"
"1107","86","text","0","155","1521646","0-0","","","","","","","","","","","","","","","","","","","","","","","","","","","","","","","","","","","","",""
"","","plant-game","0","156","1540396","0-0","","200","190","4","CORN CROP","Left","200","120","8","NETTLE WEED","experimental","65","1,2,3,4,5,6,7,8","190,191.93376782680113,217.2202005807852,226.85252399946083,160,179.25232158008828,169.16571429147743,160.08913460192318","4,3,2,1,4,3,2,1","CORN CROP,CORN CROP,CORN CROP,CORN CROP,WHEAT CROP,WHEAT CROP,WHEAT CROP,WHEAT CROP","120,109.94201854038126,118.89980013637245,142.0917347592316,152.24721292621874,134.74732097308146,161.10821964030225,146.2094244962626","8,7,6,5,4,3,2,1","NETTLE WEED,NETTLE WEED,NETTLE WEED,NETTLE WEED,NETTLE WEED,NETTLE WEED,NETTLE WEED,NETTLE WEED","20,20,20,20,20,20,20,20","20,20,20,20,20,20,20,20","10,10,10,10,10,10,10,10","20,20,20,20,20,20,20,20","0,0,0,0,0,0,0,0","20,20,20,20,20,20,20,20","20,20,20,20,20,20,20,20","20,20,20,20,20,20,20,20","10,10,10,10,10,10,10,10","20,20,20,20,20,20,20,20","0,0,0,0,0,0,0,0","20,20,20,20,20,20,20,20","1,1,1,1,1,1,1,0","6441,931,655,687,2337,485,838,1524","1.933767826801137,25.28643275398407,9.632323418675627,9.21253033555756,19.252321580088292,-10.086607288610857,-9.07657968955425,24.068420204883438","-10.057981459618748,8.95778159599119,23.19193462285915,10.15547816698714,-17.49989195313727,26.360898667220802,-14.898795144039646,1.9129642475657391","0","0"
"603","86","text","0","157","1541129","0-0","","","","","","","","","","","","","","","","","","","","","","","","","","","","","","","","","","","","",""
"","","plant-game","0","158","1552228","0-0","","200","180","4","CORN CROP","Left","200","120","1","THISTLE WEED","experimental","66","1,2,3,4","180,181.70006043188366,197.0749578524566,206.52394491354772","4,3,2,1","CORN CROP,CORN CROP,CORN CROP,CORN CROP","120,170,194.13482174847354,192.8093134202791","1,3,2,1","THISTLE WEED,NETTLE WEED,NETTLE WEED,NETTLE WEED","20,20,20,20","20,20,20,20","10,10,10,10","20,20,20,20","0,0,0,0","20,20,20,20","20,20,20,20","20,20,20,20","10,10,10,10","20,20,20,20","0,0,0,0","20,20,20,20","1,0,1,1","2021,2264,1174,1679","1.700060431883661,15.374897420572946,9.448987061091112,23.193683883466427","1.1331687469304,24.13482174847354,-1.3255083281944442,7.082307773263093","0","0"
"556","86","text","0","159","1552876","0-0","","","","","","","","","","","","","","","","","","","","","","","","","","","","","","","","","","","","",""
"","","plant-game","0","160","1569223","0-0","","200","160","1","WHEAT CROP","Left","200","180","8","NETTLE WEED","experimental","67","1,2,3,4,5,6,7,8","160,130,123.08222331560077,118.73461944234009,130.8640659684466,146.75447775481706,149.56639029100074,165.9968381528402","1,7,6,5,4,3,2,1","WHEAT CROP,CORN CROP,CORN CROP,CORN CROP,CORN CROP,CORN CROP,CORN CROP,CORN CROP","180,202.37196243424913,197.35043578297285,225.95606033016392,236.7929013348152,239.7485087833758,263.7904204498488,263.0228676710908","8,7,6,5,4,3,2,1","NETTLE WEED,NETTLE WEED,NETTLE WEED,NETTLE WEED,NETTLE WEED,NETTLE WEED,NETTLE WEED,NETTLE WEED","20,20,20,20,20,20,20,20","20,20,20,20,20,20,20,20","10,10,10,10,10,10,10,10","20,20,20,20,20,20,20,20","0,0,0,0,0,0,0,0","20,20,20,20,20,20,20,20","20,20,20,20,20,20,20,20","20,20,20,20,20,20,20,20","10,10,10,10,10,10,10,10","20,20,20,20,20,20,20,20","0,0,0,0,0,0,0,0","20,20,20,20,20,20,20,20","0,1,1,0,0,0,0,0","3343,2323,806,2950,355,323,420,459","5.619937242476274,-6.917776684399231,-4.347603873260678,12.129446526106502,15.890411786370453,2.81191253618368,16.430447861839454,27.89020346943362","22.371962434249134,-5.021526651276281,28.60562454719108,10.8368410046513,2.955607448560592,24.041911666472974,-0.767552778757981,46.28518096105425","0","0"
"504","86","text","0","161","1569847","0-0","","","","","","","","","","","","","","","","","","","","","","","","","","","","","","","","","","","","",""
"","","plant-game","0","162","1575418","0-0","","200","120","1","WHEAT CROP","Right","200","190","1","NETTLE WEED","experimental","68","1","190","1","NETTLE WEED","120","1","WHEAT CROP","0","20","10","20","20","20","0","20","10","20","20","20","1","2971","21.571498858249402","39.19619987289117","0","0"
"490","86","text","0","163","1576030","0-0","","","","","","","","","","","","","","","","","","","","","","","","","","","","","","","","","","","","",""
"","","plant-game","0","164","1582698","0-0","","200","190","2","WHEAT CROP","Left","200","190","2","NETTLE WEED","experimental","69","1,2","190,174.36185092061663","2,1","WHEAT CROP,WHEAT CROP","190,209.4756375342371","2,1","NETTLE WEED,NETTLE WEED","20,20","20,20","10,10","20,20","0,0","20,20","20,20","20,20","10,10","20,20","0,0","20,20","1,1","2704,1509","-15.63814907938336,13.803680329336853","19.47563753423711,-18.52933026931984","0","0"
"517","86","text","0","165","1583346","0-0","","","","","","","","","","","","","","","","","","","","","","","","","","","","","","","","","","","","",""
"","","plant-game","0","166","1595495","0-0","","200","160","2","CORN CROP","Right","200","160","4","THISTLE WEED","experimental","70","1,2,3,4","160,178.73650151617323,190.30819749047316,221.13934209826888","4,3,2,1","THISTLE WEED,THISTLE WEED,THISTLE WEED,THISTLE WEED","160,195.97147295991803,180,213.45638804963207","2,1,2,1","CORN CROP,CORN CROP,WHEAT CROP,WHEAT CROP","0,0,0,0","20,20,20,20","10,10,10,10","20,20,20,20","20,20,20,20","20,20,20,20","0,0,0,0","20,20,20,20","10,10,10,10","20,20,20,20","20,20,20,20","20,20,20,20","1,1,0,1","3762,606,1383,1638","18.73650151617323,11.571695974299942,30.83114460779572,32.02623961668781","35.97147295991804,17.267011945073445,33.45638804963206,9.223684637609114","0","0"
"1159","86","text","0","167","1596824","0-0","","","","","","","","","","","","","","","","","","","","","","","","","","","","","","","","","","","","",""
"","","plant-game","0","168","1620303","0-0","","200","180","8","WHEAT CROP","Right","200","180","4","THISTLE WEED","experimental","71","1,2,3,4,5,6,7,8","180,190.3731176350353,185.47208604718014,193.35428826230907,160,166.5517911209858,160.1423726490012,175.9322669934094","4,3,2,1,4,3,2,1","THISTLE WEED,THISTLE WEED,THISTLE WEED,THISTLE WEED,NETTLE WEED,NETTLE WEED,NETTLE WEED,NETTLE WEED","180,202.058342710377,191.1392218516487,188.48373282531006,184.6967122769159,208.77769802264666,215.31729800440633,249.8216885749094","8,7,6,5,4,3,2,1","WHEAT CROP,WHEAT CROP,WHEAT CROP,WHEAT CROP,WHEAT CROP,WHEAT CROP,WHEAT CROP,WHEAT CROP","0,0,0,0,0,0,0,0","20,20,20,20,20,20,20,20","10,10,10,10,10,10,10,10","20,20,20,20,20,20,20,20","20,20,20,20,20,20,20,20","20,20,20,20,20,20,20,20","0,0,0,0,0,0,0,0","20,20,20,20,20,20,20,20","10,10,10,10,10,10,10,10","20,20,20,20,20,20,20,20","20,20,20,20,20,20,20,20","20,20,20,20,20,20,20,20","0,0,0,0,1,0,0,0","10485,1212,1051,896,1598,1475,699,926","10.373117635035305,-4.901031587855144,7.882202215128937,26.156679030475274,6.551791120985806,-6.4094184719846,15.789894344408193,-34.561733422987935","22.058342710376998,-10.919120858728279,-2.6554890263386346,-3.7870205483941675,24.080985745730764,6.539599981759658,34.50439057050308,33.17863249719626","0","0"
"62","86","text","0","169","1620546","0-0","","","","","","","","","","","","","","","","","","","","","","","","","","","","","","","","","","","","",""
"","","plant-game","0","170","1637571","0-0","","200","180","8","WHEAT CROP","Right","200","160","1","THISTLE WEED","experimental","72","1,2,3,4,5,6,7,8","160,130,161.96010024176786,157.6334444728914,114.01963831491818,159.5692737513919,151.3025469690713,152.0101124743482","1,7,6,5,4,3,2,1","THISTLE WEED,NETTLE WEED,NETTLE WEED,NETTLE WEED,NETTLE WEED,NETTLE WEED,NETTLE WEED,NETTLE WEED","180,161.82874624063408,175.69198344587102,132.23091966156622,114.57232714517437,115.82976138091145,91.74676594782532,90.52633123849209","8,7,6,5,4,3,2,1","WHEAT CROP,WHEAT CROP,WHEAT CROP,WHEAT CROP,WHEAT CROP,WHEAT CROP,WHEAT CROP,WHEAT CROP","0,0,0,0,0,0,0,0","20,20,20,20,20,20,20,20","10,10,10,10,10,10,10,10","20,20,20,20,20,20,20,20","20,20,20,20,20,20,20,20","20,20,20,20,20,20,20,20","0,0,0,0,0,0,0,0","20,20,20,20,20,20,20,20","10,10,10,10,10,10,10,10","20,20,20,20,20,20,20,20","20,20,20,20,20,20,20,20","20,20,20,20,20,20,20,20","0,1,0,0,1,0,0,0","1901,3258,1836,1263,851,1864,367,452","-2.4833798976078554,31.96010024176787,-4.326655768876465,-43.61380615797322,45.54963543647371,-8.266726782320596,0.7075655052769041,8.46009110880238","-18.171253759365918,13.863237205236931,-43.4610637843048,-17.658592516391856,1.2574342357370796,-24.082995433086126,-1.220434709333227,-3.0760435794819974","2","0"
"214","86","text","0","171","1637909","0-0","","","","","","","","","","","","","","","","","","","","","","","","","","","","","","","","","","","","",""
"","","plant-game","0","172","1651521","0-0","","200","160","8","WHEAT CROP","Right","200","190","8","THISTLE WEED","experimental","73","1,2,3,4,5,6,7,8","190,200.88646030063512,198.42300238147743,226.50052000029828,236.04916824848715,181.80367755649377,168.4390542955601,167.2922879072104","8,7,6,5,4,3,2,1","THISTLE WEED,THISTLE WEED,THISTLE WEED,THISTLE WEED,THISTLE WEED,THISTLE WEED,THISTLE WEED,THISTLE WEED","160,171.49583592906458,146.11627527536743,147.24921625762596,170.06212434472104,176.12006756337203,188.830722002555,182.79628015439866","8,7,6,5,4,3,2,1","WHEAT CROP,WHEAT CROP,WHEAT CROP,WHEAT CROP,WHEAT CROP,WHEAT CROP,WHEAT CROP,WHEAT CROP","0,0,0,0,0,0,0,0","20,20,20,20,20,20,20,20","10,10,10,10,10,10,10,10","20,20,20,20,20,20,20,20","20,20,20,20,20,20,20,20","20,20,20,20,20,20,20,20","0,0,0,0,0,0,0,0","20,20,20,20,20,20,20,20","10,10,10,10,10,10,10,10","20,20,20,20,20,20,20,20","20,20,20,20,20,20,20,20","20,20,20,20,20,20,20,20","0,0,1,1,0,0,0,0","2701,1265,1058,1412,1345,794,468,357","10.886460300635134,-2.4634579191576784,28.07751761882086,9.548648248188865,-54.245490691993396,-13.364623260933651,-1.1467663883496961,-22.85498287066769","11.495835929064578,-25.379560653697155,1.1329409822585248,22.81290808709508,6.057943218651003,12.710654439182964,-6.034441848156346,10.618951973470454","0","0"
"914","86","text","0","173","1652545","0-0","","","","","","","","","","","","","","","","","","","","","","","","","","","","","","","","","","","","",""
"","","plant-game","0","174","1663765","0-0","","200","180","2","CORN CROP","Left","200","120","4","NETTLE WEED","experimental","74","1,2,3,4","180,163.46356843089444,180,191.05678916003777","2,1,2,1","CORN CROP,CORN CROP,WHEAT CROP,WHEAT CROP","120,101.1093799065988,127.71883495996713,127.47821625645865","4,3,2,1","NETTLE WEED,NETTLE WEED,NETTLE WEED,NETTLE WEED","20,20,20,20","20,20,20,20","10,10,10,10","20,20,20,20","0,0,0,0","20,20,20,20","20,20,20,20","20,20,20,20","10,10,10,10","20,20,20,20","0,0,0,0","20,20,20,20","0,0,0,0","2964,1273,2098,747","-16.536431569105545,37.970358978970296,11.056789160037768,37.477920347587386","-18.890620093401203,26.609455053368325,-0.24061870350847414,-6.876994740929213","0","0"
"510","86","text","0","175","1664335","0-0","","","","","","","","","","","","","","","","","","","","","","","","","","","","","","","","","","","","",""
"","","plant-game","0","176","1674299","0-0","","200","160","2","CORN CROP","Left","200","180","4","THISTLE WEED","experimental","75","1,2,3,4","160,184.58122665072523,180,197.32029476311","2,1,2,1","CORN CROP,CORN CROP,WHEAT CROP,WHEAT CROP","180,206.97060394973798,205.93107848029075,222.29383195380103","4,3,2,1","THISTLE WEED,THISTLE WEED,THISTLE WEED,THISTLE WEED","20,20,20,20","20,20,20,20","10,10,10,10","20,20,20,20","0,0,0,0","20,20,20,20","20,20,20,20","20,20,20,20","10,10,10,10","20,20,20,20","0,0,0,0","20,20,20,20","0,0,1,0","2346,332,1550,1792","24.581226650725238,5.550967657715342,17.320294763110024,17.442204773688875","26.970603949737985,-1.0395254694472165,16.362753473510274,34.00465522025434","0","0"
"556","86","text","0","177","1674979","0-0","","","","","","","","","","","","","","","","","","","","","","","","","","","","","","","","","","","","",""
"","","plant-game","0","178","1686152","0-0","","200","190","4","WHEAT CROP","Right","200","190","1","NETTLE WEED","experimental","76","1,2,3,4","190,170,156.03277811388574,129.37016710398566","1,3,2,1","NETTLE WEED,THISTLE WEED,THISTLE WEED,THISTLE WEED","190,166.28148992721972,152.89625357816166,128.7424649038992","4,3,2,1","WHEAT CROP,WHEAT CROP,WHEAT CROP,WHEAT CROP","0,0,0,0","20,20,20,20","10,10,10,10","20,20,20,20","20,20,20,20","20,20,20,20","0,0,0,0","20,20,20,20","10,10,10,10","20,20,20,20","20,20,20,20","20,20,20,20","0,1,0,0","2834,1936,978,1467","-13.013448055048833,-13.967221886114267,-26.662611009900083,31.404830126616822","-23.718510072780266,-13.385236349058054,-24.153788674262472,44.07525963265708","0","0"
"840","86","text","0","179","1687102","0-0","","","","","","","","","","","","","","","","","","","","","","","","","","","","","","","","","","","","",""
"","","plant-game","0","180","1701795","0-0","","200","180","8","CORN CROP","Left","200","120","2","NETTLE WEED","experimental","77","1,2,3,4,5,6,7,8","180,209.45241771835077,172.3618825997408,196.25288770452272,172.68398155264927,178.85036681261562,178.1473432928484,193.31887001183955","8,7,6,5,4,3,2,1","CORN CROP,CORN CROP,CORN CROP,CORN CROP,CORN CROP,CORN CROP,CORN CROP,CORN CROP","120,146.50322661702356,140,131.49968117499256,133.3169195213563,139.25379083147138,168.01145108369403,144.42980833223262","2,1,6,5,4,3,2,1","NETTLE WEED,NETTLE WEED,THISTLE WEED,THISTLE WEED,THISTLE WEED,THISTLE WEED,THISTLE WEED,THISTLE WEED","20,20,20,20,20,20,20,20","20,20,20,20,20,20,20,20","10,10,10,10,10,10,10,10","20,20,20,20,20,20,20,20","0,0,0,0,0,0,0,0","20,20,20,20,20,20,20,20","20,20,20,20,20,20,20,20","20,20,20,20,20,20,20,20","10,10,10,10,10,10,10,10","20,20,20,20,20,20,20,20","0,0,0,0,0,0,0,0","20,20,20,20,20,20,20,20","1,1,1,1,1,0,1,1","2323,583,2157,494,602,1481,1020,845","29.452417718350773,-37.090535118609985,23.891005104781936,-23.56890615187345,6.166385259966347,-0.7030235197672177,15.171526718991144,-22.815173588499682","26.50322661702356,19.48295806957749,-8.500318825007446,1.8172383463637554,5.936871310115057,28.757660252222657,-23.581642751461413,29.442758885440938","0","0"
"872","86","text","0","181","1702807","0-0","","","","","","","","","","","","","","","","","","","","","","","","","","","","","","","","","","","","",""
"","","plant-game","0","182","1718109","0-0","","200","120","8","CORN CROP","Right","200","190","2","THISTLE WEED","experimental","78","1,2,3,4,5,6,7,8","190,177.31723477428346,140,165.0435047034436,172.49607472253845,204.03457936791747,245.97132518049662,285.5954274180697","2,1,6,5,4,3,2,1","THISTLE WEED,THISTLE WEED,NETTLE WEED,NETTLE WEED,NETTLE WEED,NETTLE WEED,NETTLE WEED,NETTLE WEED","120,132.95948721911955,142.2668129737122,175.22552707811369,210.46220020789917,248.25178712796935,220.1753387404844,211.15729664528948","8,7,6,5,4,3,2,1","CORN CROP,CORN CROP,CORN CROP,CORN CROP,CORN CROP,CORN CROP,CORN CROP,CORN CROP","0,0,0,0,0,0,0,0","20,20,20,20,20,20,20,20","10,10,10,10,10,10,10,10","20,20,20,20,20,20,20,20","20,20,20,20,20,20,20,20","20,20,20,20,20,20,20,20","0,0,0,0,0,0,0,0","20,20,20,20,20,20,20,20","10,10,10,10,10,10,10,10","20,20,20,20,20,20,20,20","20,20,20,20,20,20,20,20","20,20,20,20,20,20,20,20","0,0,1,1,1,0,1,1","2568,698,1288,481,1304,832,937,2626","-12.68276522571654,8.423709553267265,25.04350470344361,7.452570019094857,31.538504645379025,41.936745812579154,39.62410223757307,62.40591897376983","12.959487219119556,9.30732575459264,32.95871410440148,35.23667312978549,37.789586920070185,-28.07644838748496,-9.018042095194922,3.8271838689680813","0","0"
"903","86","text","0","183","1719152","0-0","","","","","","","","","","","","","","","","","","","","","","","","","","","","","","","","","","","","",""
"","","plant-game","0","184","1734154","0-0","","200","180","1","CORN CROP","Left","200","120","8","NETTLE WEED","experimental","79","1,2,3,4,5,6,7,8","180,130,117.03467614429637,123.5607932902456,154.47039392478075,177.36470988824283,187.34586028297235,238.28539002378324","1,7,6,5,4,3,2,1","CORN CROP,WHEAT CROP,WHEAT CROP,WHEAT CROP,WHEAT CROP,WHEAT CROP,WHEAT CROP,WHEAT CROP","120,139.2253473404262,154.95766183478156,163.9934377101991,198.6772236450586,220.12963409824926,264.7929745819651,290.6205406571827","8,7,6,5,4,3,2,1","NETTLE WEED,NETTLE WEED,NETTLE WEED,NETTLE WEED,NETTLE WEED,NETTLE WEED,NETTLE WEED,NETTLE WEED","20,20,20,20,20,20,20,20","20,20,20,20,20,20,20,20","10,10,10,10,10,10,10,10","20,20,20,20,20,20,20,20","0,0,0,0,0,0,0,0","20,20,20,20,20,20,20,20","20,20,20,20,20,20,20,20","20,20,20,20,20,20,20,20","10,10,10,10,10,10,10,10","20,20,20,20,20,20,20,20","0,0,0,0,0,0,0,0","20,20,20,20,20,20,20,20","0,1,0,0,0,0,0,0","2699,1298,3340,1066,1553,193,208,187","25.22471178862692,-12.965323855703634,6.526117145949232,30.909600634535142,22.89431596346207,9.98115039472953,50.93952974081087,20.061341696241776","19.22534734042619,15.732314494355371,9.035775875417535,34.68378593485951,21.452410453190655,44.66334048371586,25.827566075217597,19.711545201181888","0","0"
"1425","86","text","0","185","1735722","0-0","","","","","","","","","","","","","","","","","","","","","","","","","","","","","","","","","","","","",""
"","","plant-game","0","186","1745139","0-0","","200","120","1","CORN CROP","Left","200","190","2","NETTLE WEED","experimental","80","1,2","120,190","1,1","CORN CROP,WHEAT CROP","190,178.33677831737631","2,1","NETTLE WEED,NETTLE WEED","20,20","20,20","10,10","20,20","0,0","20,20","20,20","20,20","10,10","20,20","0,0","20,20","1,0","2965,2168","2.2747288050162076,6.314859037334754","-11.663221682623687,22.981876387260385","0","0"
"98","86","text","0","187","1745387","0-0","","","","","","","","","","","","","","","","","","","","","","","","","","","","","","","","","","","","",""
"","","plant-game","0","188","1761005","0-0","","200","160","4","CORN CROP","Left","200","120","8","NETTLE WEED","experimental","81","1,2,3,4,5,6,7,8","160,149.16560039210444,193.3873880380391,217.31022751682707,160,97.10576145791222,64.21618370954056,83.26356848190477","4,3,2,1,4,3,2,1","CORN CROP,CORN CROP,CORN CROP,CORN CROP,WHEAT CROP,WHEAT CROP,WHEAT CROP,WHEAT CROP","120,153.76070891980783,149.2951289250227,135.0698229770702,145.45318254937342,147.8667737807042,164.01117663944456,163.0141261211191","8,7,6,5,4,3,2,1","NETTLE WEED,NETTLE WEED,NETTLE WEED,NETTLE WEED,NETTLE WEED,NETTLE WEED,NETTLE WEED,NETTLE WEED","20,20,20,20,20,20,20,20","20,20,20,20,20,20,20,20","10,10,10,10,10,10,10,10","20,20,20,20,20,20,20,20","0,0,0,0,0,0,0,0","20,20,20,20,20,20,20,20","20,20,20,20,20,20,20,20","20,20,20,20,20,20,20,20","10,10,10,10,10,10,10,10","20,20,20,20,20,20,20,20","0,0,0,0,0,0,0,0","20,20,20,20,20,20,20,20","0,1,1,1,1,1,0,0","2540,1662,552,474,2289,1186,799,407","-10.834399607895556,44.221787645934654,23.922839478787978,-19.08069294999902,-62.89423854208777,-32.88957774837167,19.047384772364214,24.58085893711063","33.760708919807826,-4.465579994785109,-14.225305947952512,10.383359572303215,2.413591231330771,16.144402858740357,-0.9970505183254765,-21.179058415651767","0","0"
"514","86","text","0","189","1761659","0-0","","","","","","","","","","","","","","","","","","","","","","","","","","","","","","","","","","","","",""
