"rt","key_press","trial_type","trial_index","trial_index_global","time_elapsed","internal_chunk_id","responses","experimental_goal_height","experimental_start_height","experimental_weeks_total","experimental_crop_type","experimental_crop_side","fixed_goal_height","fixed_start_height","fixed_weeks_total","fixed_crop_type","trial_kind","trial_number","stage","left_current_height","left_weeks_remaining","left_crop_type","right_current_height","right_weeks_remaining","right_crop_type","mean_left_growth_given_left","sd_left_growth_given_left","mean_left_growth_given_middle","sd_left_growth_given_middle","mean_left_growth_given_right","sd_left_growth_given_right","mean_right_growth_given_left","sd_right_growth_given_left","mean_right_growth_given_middle","sd_right_growth_given_middle","mean_right_growth_given_right","sd_right_growth_given_right","response","response_time","left_growth","right_growth","other_key_pressed","mouse_clicked"
"3592465","87","text","0","0","3592577","0-0","","","","","","","","","","","","","","","","","","","","","","","","","","","","","","","","","","","","",""
"14061","","survey-text","0","1","3607661","0-0","{""Q0"":""16""}","","","","","","","","","","","","","","","","","","","","","","","","","","","","","","","","","","","",""
"4126","86","text","0","2","4251","0-0","","","","","","","","","","","","","","","","","","","","","","","","","","","","","","","","","","","","",""
"","","plant-game","0","3","69532","0-0","","200","120","8","WHEAT CROP","Right","200","120","8","THISTLE WEED","practice","1","1,2,3,4,5,6,7,8","120,112.77533915643549,145.80843611469479,135.34096124867756,141.0260933317122,134.5603896619883,136.22393493011117,163.66229153684662","8,7,6,5,4,3,2,1","THISTLE WEED,THISTLE WEED,THISTLE WEED,THISTLE WEED,THISTLE WEED,THISTLE WEED,THISTLE WEED,THISTLE WEED","120,116.5203896452467,127.0027891794583,170.3826584251517,155.09573690255056,145.74081362614825,150.34271070841683,173.29218753980592","8,7,6,5,4,3,2,1","WHEAT CROP,WHEAT CROP,WHEAT CROP,WHEAT CROP,WHEAT CROP,WHEAT CROP,WHEAT CROP,WHEAT CROP","0,0,0,0,0,0,0,0","20,20,20,20,20,20,20,20","10,10,10,10,10,10,10,10","20,20,20,20,20,20,20,20","20,20,20,20,20,20,20,20","20,20,20,20,20,20,20,20","0,0,0,0,0,0,0,0","20,20,20,20,20,20,20,20","10,10,10,10,10,10,10,10","20,20,20,20,20,20,20,20","20,20,20,20,20,20,20,20","20,20,20,20,20,20,20,20","0,0,1,0,1,1,1,1","7208,4313,4267,4827,1487,2245,1548,1412","-7.22466084356451,33.03309695825929,-10.46747486601722,5.685132083034638,-6.46570366972389,1.6635452681228777,27.438356606735464,25.811553316431066","-3.4796103547533086,10.482399534211606,43.3798692456934,-15.286921522601155,-9.354923276402296,4.601897082268575,22.949476831389077,20.766015656261956","0","0"
"1326","86","text","0","4","71092","0-0","","","","","","","","","","","","","","","","","","","","","","","","","","","","","","","","","","","","",""
"","","plant-game","0","5","123260","0-0","","200","160","4","WHEAT CROP","Left","200","160","4","THISTLE WEED","practice","2","1,2,3,4","160,163.8512356782303,142.53650765972648,139.00217231425933","4,3,2,1","WHEAT CROP,WHEAT CROP,WHEAT CROP,WHEAT CROP","160,136.36122053100044,127.68460990940392,104.78022228610818","4,3,2,1","THISTLE WEED,THISTLE WEED,THISTLE WEED,THISTLE WEED","20,20,20,20","20,20,20,20","10,10,10,10","20,20,20,20","0,0,0,0","20,20,20,20","20,20,20,20","20,20,20,20","10,10,10,10","20,20,20,20","0,0,0,0","20,20,20,20","1,1,1,1","4612,4241,3981,21230","3.8512356782302968,-21.314728018503814,-3.5343353454671496,21.90245403547636","-23.638779468999562,-8.676610621596518,-22.904387623295737,-18.125596060155278","0","0"
"875","86","text","0","6","124307","0-0","","","","","","","","","","","","","","","","","","","","","","","","","","","","","","","","","","","","",""
"","","plant-game","0","7","161388","0-0","","200","180","2","WHEAT CROP","Right","200","180","2","THISTLE WEED","practice","3","1,2","180,200.3178763340232","2,1","THISTLE WEED,THISTLE WEED","180,198.09709504479122","2,1","WHEAT CROP,WHEAT CROP","0,0","20,20","10,10","20,20","20,20","20,20","0,0","20,20","10,10","20,20","20,20","20,20","0,1","7154,7519","20.317876334023207,20.40529003769591","18.09709504479121,18.851978138545743","0","0"
"690","86","text","0","8","162258","0-0","","","","","","","","","","","","","","","","","","","","","","","","","","","","","","","","","","","","",""
"","","plant-game","0","9","188304","0-0","","200","190","1","WHEAT CROP","Left","200","190","1","NETTLE WEED","practice","4","1","190","1","WHEAT CROP","190","1","NETTLE WEED","20","20","10","20","0","20","20","20","10","20","0","20","1","2298","10.467439120056824","3.5962485903181802","0","0"
"669","86","text","0","10","189113","0-0","","","","","","","","","","","","","","","","","","","","","","","","","","","","","","","","","","","","",""
"","","plant-game","0","11","246104","0-0","","200","120","8","WHEAT CROP","Right","200","160","8","NETTLE WEED","practice","5","1,2,3,4,5,6,7,8","160,166.62818985604216,189.84447503513954,207.06599923831715,201.30995824576334,217.17931849312274,221.5558359281916,236.9579020147092","8,7,6,5,4,3,2,1","NETTLE WEED,NETTLE WEED,NETTLE WEED,NETTLE WEED,NETTLE WEED,NETTLE WEED,NETTLE WEED,NETTLE WEED","120,96.72418723103809,103.35260242028609,116.36153642527442,93.50597817597831,135.03916691546078,143.84039975694165,139.68889388816564","8,7,6,5,4,3,2,1","WHEAT CROP,WHEAT CROP,WHEAT CROP,WHEAT CROP,WHEAT CROP,WHEAT CROP,WHEAT CROP,WHEAT CROP","0,0,0,0,0,0,0,0","20,20,20,20,20,20,20,20","10,10,10,10,10,10,10,10","20,20,20,20,20,20,20,20","20,20,20,20,20,20,20,20","20,20,20,20,20,20,20,20","0,0,0,0,0,0,0,0","20,20,20,20,20,20,20,20","10,10,10,10,10,10,10,10","20,20,20,20,20,20,20,20","20,20,20,20,20,20,20,20","20,20,20,20,20,20,20,20","0,0,1,0,0,0,1,1","4893,2554,3689,13791,1722,2355,5722,5755","6.628189856042165,23.216285179097383,17.221524203177616,-5.756040992553798,15.86936024735939,4.376517435068866,15.402066086517591,5.722436341672534","-23.27581276896192,6.628415189248002,13.008934004988333,-22.855558249296113,41.533188739482476,8.801232841480859,-4.151505868776013,31.98010763516016","0","0"
"729","86","text","0","12","247067","0-0","","","","","","","","","","","","","","","","","","","","","","","","","","","","","","","","","","","","",""
"","","plant-game","0","13","286427","0-0","","200","180","4","CORN CROP","Right","200","160","4","NETTLE WEED","practice","6","1,2,3,4","160,206.24293472836936,229.0356556169871,196.44847149930706","4,3,2,1","NETTLE WEED,NETTLE WEED,NETTLE WEED,NETTLE WEED","180,207.20304461009795,201.32393207742004,163.32337179790557","4,3,2,1","CORN CROP,CORN CROP,CORN CROP,CORN CROP","0,0,0,0","20,20,20,20","10,10,10,10","20,20,20,20","20,20,20,20","20,20,20,20","0,0,0,0","20,20,20,20","10,10,10,10","20,20,20,20","20,20,20,20","20,20,20,20","1,0,0,0","5199,8258,5568,1710","46.24293472836937,22.792720888617737,-32.58718411768005,26.297199448186795","27.203044610097955,-5.879112532677908,-38.00056027951448,-0.34799088514620446","0","0"
"832","86","text","0","14","287399","0-0","","","","","","","","","","","","","","","","","","","","","","","","","","","","","","","","","","","","",""
"","","plant-game","0","15","316795","0-0","","200","180","2","WHEAT CROP","Left","200","190","2","NETTLE WEED","practice","7","1,2","180,169.8596510821392","2,1","WHEAT CROP,WHEAT CROP","190,202.4402551125092","2,1","NETTLE WEED,NETTLE WEED","20,20","20,20","10,10","20,20","0,0","20,20","20,20","20,20","10,10","20,20","0,0","20,20","1,1","10054,2660","-10.140348917860793,-27.28369356067636","12.440255112509181,-1.2188059097932809","0","0"
"731","86","text","0","16","317716","0-0","","","","","","","","","","","","","","","","","","","","","","","","","","","","","","","","","","","","",""
"","","plant-game","0","17","374910","0-0","","200","120","4","CORN CROP","Left","200","120","8","THISTLE WEED","practice","8","1,2,3,4,5,6,7,8","120,114.20856548945142,93.39026748319961,128.34587129614334,160,168.1074824317458,196.4856672497848,168.0261616188225","4,3,2,1,4,3,2,1","CORN CROP,CORN CROP,CORN CROP,CORN CROP,WHEAT CROP,WHEAT CROP,WHEAT CROP,WHEAT CROP","120,121.40259113873437,128.2473643128944,138.05638610883386,173.0705841102347,183.89324234374376,182.9434292782163,164.70004329137723","8,7,6,5,4,3,2,1","THISTLE WEED,THISTLE WEED,THISTLE WEED,THISTLE WEED,THISTLE WEED,THISTLE WEED,THISTLE WEED,THISTLE WEED","20,20,20,20,20,20,20,20","20,20,20,20,20,20,20,20","10,10,10,10,10,10,10,10","20,20,20,20,20,20,20,20","0,0,0,0,0,0,0,0","20,20,20,20,20,20,20,20","20,20,20,20,20,20,20,20","20,20,20,20,20,20,20,20","10,10,10,10,10,10,10,10","20,20,20,20,20,20,20,20","0,0,0,0,0,0,0,0","20,20,20,20,20,20,20,20","1,1,0,0,1,1,1,0","8348,957,1855,5528,7048,2991,3250,2256","-5.7914345105485765,-20.8182980062518,34.95560381294373,-15.40695210508359,8.10748243174581,28.37818481803898,-28.45950563096231,39.701476643236816","1.4025911387343633,6.8447731741600295,9.809021795939469,35.01419800140084,10.82265823350907,-0.949813065527445,-18.243385986839098,24.40382069774776","0","0"
"685","86","text","0","18","375775","0-0","","","","","","","","","","","","","","","","","","","","","","","","","","","","","","","","","","","","",""
"","","plant-game","0","19","417848","0-0","","200","160","4","CORN CROP","Right","200","160","2","THISTLE WEED","practice","9","1,2,3,4","160,168.0444111160944,180,148.73554245220927","2,1,2,1","THISTLE WEED,THISTLE WEED,NETTLE WEED,NETTLE WEED","160,196.0850400324261,188.10511735891583,175.24608221723423","4,3,2,1","CORN CROP,CORN CROP,CORN CROP,CORN CROP","0,0,0,0","20,20,20,20","10,10,10,10","20,20,20,20","20,20,20,20","20,20,20,20","0,0,0,0","20,20,20,20","10,10,10,10","20,20,20,20","20,20,20,20","20,20,20,20","1,1,0,1","4216,2913,9345,1676","8.044411116094423,28.490787241339305,-31.264457547790727,-7.229281807798817","36.085040032426086,-7.979922673510252,-12.859035141681591,28.127374648298318","0","0"
"697","86","text","0","20","418705","0-0","","","","","","","","","","","","","","","","","","","","","","","","","","","","","","","","","","","","",""
"","","plant-game","0","21","453385","0-0","","200","180","2","WHEAT CROP","Left","200","180","1","NETTLE WEED","practice","10","1,2","180,195.9434890831814","2,1","WHEAT CROP,WHEAT CROP","180,190","1,1","NETTLE WEED,THISTLE WEED","20,20","20,20","10,10","20,20","0,0","20,20","20,20","20,20","10,10","20,20","0,0","20,20","0,0","2105,6104","15.943489083181401,19.399470441216877","6.354870546997827,17.566763776922","0","0"
"552","86","text","0","22","454107","0-0","","","","","","","","","","","","","","","","","","","","","","","","","","","","","","","","","","","","",""
"","","plant-game","0","23","504298","0-0","","200","120","8","WHEAT CROP","Left","200","160","4","THISTLE WEED","practice","11","1,2,3,4,5,6,7,8","120,164.366910660213,159.51632683179562,152.48721480533953,135.96121995432696,182.94531659949394,211.10103201955965,226.90696065069358","8,7,6,5,4,3,2,1","WHEAT CROP,WHEAT CROP,WHEAT CROP,WHEAT CROP,WHEAT CROP,WHEAT CROP,WHEAT CROP,WHEAT CROP","160,222.12467091134016,205.23536397248003,212.55695194763715,160,127.70964943035806,159.09478444837026,156.1684505279578","4,3,2,1,4,3,2,1","THISTLE WEED,THISTLE WEED,THISTLE WEED,THISTLE WEED,NETTLE WEED,NETTLE WEED,NETTLE WEED,NETTLE WEED","20,20,20,20,20,20,20,20","20,20,20,20,20,20,20,20","10,10,10,10,10,10,10,10","20,20,20,20,20,20,20,20","0,0,0,0,0,0,0,0","20,20,20,20,20,20,20,20","20,20,20,20,20,20,20,20","20,20,20,20,20,20,20,20","10,10,10,10,10,10,10,10","20,20,20,20,20,20,20,20","0,0,0,0,0,0,0,0","20,20,20,20,20,20,20,20","0,1,1,1,1,0,1,1","3755,4105,1850,1717,4748,2935,7174,2675","44.366910660212994,-4.850583828417357,-7.029112026456082,-16.525994851012584,46.984096645166964,28.15571542006571,15.805928631133918,37.0159401763624","62.12467091134016,-16.889306938860127,7.321587975157127,3.615868620115648,-32.290350569641944,31.385135018012214,-2.9263339204124823,9.786216718229216","0","0"
"531","86","text","0","24","505029","0-0","","","","","","","","","","","","","","","","","","","","","","","","","","","","","","","","","","","","",""
"","","plant-game","0","25","535617","0-0","","200","180","2","CORN CROP","Left","200","160","4","THISTLE WEED","practice","12","1,2,3,4","180,193.90302054412487,180,198.94133849749485","2,1,2,1","CORN CROP,CORN CROP,WHEAT CROP,WHEAT CROP","160,225.11560223746335,251.90983654807283,255.05694467598855","4,3,2,1","THISTLE WEED,THISTLE WEED,THISTLE WEED,THISTLE WEED","20,20,20,20","20,20,20,20","10,10,10,10","20,20,20,20","0,0,0,0","20,20,20,20","20,20,20,20","20,20,20,20","10,10,10,10","20,20,20,20","0,0,0,0","20,20,20,20","0,0,1,1","5681,1429,3603,1880","13.90302054412488,39.36340332082064,18.941338497494858,30.233416667395495","65.11560223746334,26.794234310609472,3.1471081279157276,-14.22909808482201","0","0"
"11756","86","text","0","26","547453","0-0","","","","","","","","","","","","","","","","","","","","","","","","","","","","","","","","","","","","",""
"10526","86","text","0","27","559125","0-0","","","","","","","","","","","","","","","","","","","","","","","","","","","","","","","","","","","","",""
"","","plant-game","0","28","594048","0-0","","200","160","4","WHEAT CROP","Left","200","180","1","NETTLE WEED","experimental","1","1,2,3,4","160,196.89876639975418,187.03230688437608,195.3323723177719","4,3,2,1","WHEAT CROP,WHEAT CROP,WHEAT CROP,WHEAT CROP","180,170,193.68597985414664,225.0264742001489","1,3,2,1","NETTLE WEED,THISTLE WEED,THISTLE WEED,THISTLE WEED","20,20,20,20","20,20,20,20","10,10,10,10","20,20,20,20","0,0,0,0","20,20,20,20","20,20,20,20","20,20,20,20","10,10,10,10","20,20,20,20","0,0,0,0","20,20,20,20","1,1,0,0","10107,7243,2305,4240","36.89876639975418,-9.866459515378095,8.30006543339582,20.160569042966472","19.820003135878338,23.685979854146645,31.340494346002252,-18.35353240937367","0","0"
"744","86","text","0","29","594892","0-0","","","","","","","","","","","","","","","","","","","","","","","","","","","","","","","","","","","","",""
"","","plant-game","0","30","620814","0-0","","200","120","2","CORN CROP","Left","200","160","1","THISTLE WEED","experimental","2","1,2","120,142.82194703584844","2,1","CORN CROP,CORN CROP","160,190","1,1","THISTLE WEED,NETTLE WEED","20,20","20,20","10,10","20,20","0,0","20,20","20,20","20,20","10,10","20,20","0,0","20,20","0,1","9853,8613","22.821947035848446,0.4324606372316425","9.07122643652244,26.707223118552236","0","0"
"591","86","text","0","31","621582","0-0","","","","","","","","","","","","","","","","","","","","","","","","","","","","","","","","","","","","",""
"","","plant-game","0","32","658920","0-0","","200","120","1","WHEAT CROP","Right","200","190","8","NETTLE WEED","experimental","3","1,2,3,4,5,6,7,8","190,200.33576592072032,221.20988899480335,218.02057838494403,151.5953478562139,159.7674323886625,155.4898109404197,172.37377072520442","8,7,6,5,4,3,2,1","NETTLE WEED,NETTLE WEED,NETTLE WEED,NETTLE WEED,NETTLE WEED,NETTLE WEED,NETTLE WEED,NETTLE WEED","120,130,135.62733133790212,119.46138127962863,150.76918349929315,147.4714874949816,168.50627557077758,178.734415982378","1,7,6,5,4,3,2,1","WHEAT CROP,CORN CROP,CORN CROP,CORN CROP,CORN CROP,CORN CROP,CORN CROP,CORN CROP","0,0,0,0,0,0,0,0","20,20,20,20,20,20,20,20","10,10,10,10,10,10,10,10","20,20,20,20,20,20,20,20","20,20,20,20,20,20,20,20","20,20,20,20,20,20,20,20","0,0,0,0,0,0,0,0","20,20,20,20,20,20,20,20","10,10,10,10,10,10,10,10","20,20,20,20,20,20,20,20","20,20,20,20,20,20,20,20","20,20,20,20,20,20,20,20","0,0,0,0,0,0,1,1","12135,1743,3115,1290,1397,1538,2791,1397","10.33576592072032,20.87412307408302,-3.189310609859332,-66.42523052873014,8.172084532448613,-4.277621448242815,16.883959784784743,-26.35336447022062","-13.352288123074228,5.627331337902128,-16.165950058273502,31.307802219664516,-3.2976960043115455,21.034788075795987,10.228140411600439,21.14996661998609","0","0"
"570","86","text","0","33","659646","0-0","","","","","","","","","","","","","","","","","","","","","","","","","","","","","","","","","","","","",""
"","","plant-game","0","34","676142","0-0","","200","180","1","WHEAT CROP","Right","200","120","1","NETTLE WEED","experimental","4","1","120","1","NETTLE WEED","180","1","WHEAT CROP","0","20","10","20","20","20","0","20","10","20","20","20","1","10971","55.113876452661955","21.641307098228317","0","0"
"517","86","text","0","35","676799","0-0","","","","","","","","","","","","","","","","","","","","","","","","","","","","","","","","","","","","",""
"","","plant-game","0","36","717857","0-0","","200","180","8","WHEAT CROP","Right","200","160","4","THISTLE WEED","experimental","5","1,2,3,4,5,6,7,8","160,141.89988971322535,149.28997806245613,147.6932391210704,160,171.0762069681092,204.3441809696992,224.5155266868928","4,3,2,1,4,3,2,1","THISTLE WEED,THISTLE WEED,THISTLE WEED,THISTLE WEED,NETTLE WEED,NETTLE WEED,NETTLE WEED,NETTLE WEED","180,233.90669421861048,249.94351038993565,256.0137268086231,234.65875900054496,263.2100374562511,293.7122678515417,270.60292719429395","8,7,6,5,4,3,2,1","WHEAT CROP,WHEAT CROP,WHEAT CROP,WHEAT CROP,WHEAT CROP,WHEAT CROP,WHEAT CROP,WHEAT CROP","0,0,0,0,0,0,0,0","20,20,20,20,20,20,20,20","10,10,10,10,10,10,10,10","20,20,20,20,20,20,20,20","20,20,20,20,20,20,20,20","20,20,20,20,20,20,20,20","0,0,0,0,0,0,0,0","20,20,20,20,20,20,20,20","10,10,10,10,10,10,10,10","20,20,20,20,20,20,20,20","20,20,20,20,20,20,20,20","20,20,20,20,20,20,20,20","1,0,0,0,0,0,0,0","11447,3972,1345,885,8552,2256,2778,880","-18.100110286774658,7.390088349230783,-1.5967389413857147,-7.637219394764456,11.07620696810921,33.26797400158999,20.171345717193585,2.5655116841153185","53.90669421861048,16.03681617132518,6.070216418687465,-21.354967808078158,28.55127845570612,30.50223039529063,-23.109340657247767,34.47798817050635","0","0"
"654","86","text","0","37","718691","0-0","","","","","","","","","","","","","","","","","","","","","","","","","","","","","","","","","","","","",""
"","","plant-game","0","38","747762","0-0","","200","190","2","WHEAT CROP","Left","200","180","4","NETTLE WEED","experimental","6","1,2,3,4","190,213.39170670711488,180,185.33535614908808","2,1,2,1","WHEAT CROP,WHEAT CROP,CORN CROP,CORN CROP","180,218.18695035125972,199.83453024071437,167.03612866970116","4,3,2,1","NETTLE WEED,NETTLE WEED,NETTLE WEED,NETTLE WEED","20,20,20,20","20,20,20,20","10,10,10,10","20,20,20,20","0,0,0,0","20,20,20,20","20,20,20,20","20,20,20,20","10,10,10,10","20,20,20,20","0,0,0,0","20,20,20,20","0,1,1,0","7715,3720,4709,2879","23.39170670711487,7.619554838026544,5.335356149088089,27.269588525591793","38.18695035125974,-18.352420110545363,-32.79840157101323,20.155688954588232","0","0"
"574","86","text","0","39","748498","0-0","","","","","","","","","","","","","","","","","","","","","","","","","","","","","","","","","","","","",""
"","","plant-game","0","40","774195","0-0","","200","160","2","CORN CROP","Left","200","160","1","NETTLE WEED","experimental","7","1,2","160,189.25905612163663","2,1","CORN CROP,CORN CROP","160,190","1,1","NETTLE WEED,THISTLE WEED","20,20","20,20","10,10","20,20","0,0","20,20","20,20","20,20","10,10","20,20","0,0","20,20","0,1","8975,8236","29.259056121636643,-12.880639389452389","12.014397583843426,8.525689652674147","0","0"
"479","86","text","0","41","774830","0-0","","","","","","","","","","","","","","","","","","","","","","","","","","","","","","","","","","","","",""
"","","plant-game","0","42","807435","0-0","","200","190","8","CORN CROP","Right","200","180","2","THISTLE WEED","experimental","8","1,2,3,4,5,6,7,8","180,221.86295975602135,140,164.83912270509745,157.27258926314448,164.81905036859158,166.7361148480751,168.97352654582932","2,1,6,5,4,3,2,1","THISTLE WEED,THISTLE WEED,NETTLE WEED,NETTLE WEED,NETTLE WEED,NETTLE WEED,NETTLE WEED,NETTLE WEED","190,198.91340291417248,210.62087908389424,178.30233172738423,204.12558825853344,192.49274283661674,191.8922240943244,206.86250232227349","8,7,6,5,4,3,2,1","CORN CROP,CORN CROP,CORN CROP,CORN CROP,CORN CROP,CORN CROP,CORN CROP,CORN CROP","0,0,0,0,0,0,0,0","20,20,20,20,20,20,20,20","10,10,10,10,10,10,10,10","20,20,20,20,20,20,20,20","20,20,20,20,20,20,20,20","20,20,20,20,20,20,20,20","0,0,0,0,0,0,0,0","20,20,20,20,20,20,20,20","10,10,10,10,10,10,10,10","20,20,20,20,20,20,20,20","20,20,20,20,20,20,20,20","20,20,20,20,20,20,20,20","0,0,0,0,0,0,0,0","8633,2762,8022,1022,724,1083,919,559","41.86295975602135,10.940051627231531,24.839122705097466,-7.566533441952967,7.546461105447097,1.9170644794835106,2.2374116977542386,-37.22455295258052","8.913402914172483,11.707476169721751,-32.318547356510024,25.823256531149216,-11.632845421916711,-0.600518742292348,14.970278227949084,4.80344824582561","0","0"
"418","86","text","0","43","807993","0-0","","","","","","","","","","","","","","","","","","","","","","","","","","","","","","","","","","","","",""
"","","plant-game","0","44","833202","0-0","","200","180","2","CORN CROP","Right","200","190","4","THISTLE WEED","experimental","9","1,2,3,4","190,216.22076430465927,205.49341653020434,194.69896139419225","4,3,2,1","THISTLE WEED,THISTLE WEED,THISTLE WEED,THISTLE WEED","180,185.231323043466,180,166.17302647730858","2,1,2,1","CORN CROP,CORN CROP,WHEAT CROP,WHEAT CROP","0,0,0,0","20,20,20,20","10,10,10,10","20,20,20,20","20,20,20,20","20,20,20,20","0,0,0,0","20,20,20,20","10,10,10,10","20,20,20,20","20,20,20,20","20,20,20,20","1,1,0,1","9659,1185,2884,3314","26.220764304659262,-10.72734777445493,-10.794455136012102,37.285906536723246","5.231323043466016,32.472783231271606,-13.826973522691413,23.778129512205112","0","0"
"690","86","text","0","45","834106","0-0","","","","","","","","","","","","","","","","","","","","","","","","","","","","","","","","","","","","",""
"","","plant-game","0","46","856974","0-0","","200","190","8","WHEAT CROP","Right","200","120","8","THISTLE WEED","experimental","10","1,2,3,4,5,6,7,8","120,134.84093850143097,118.43432309304373,174.98294248860265,194.80194435445352,204.65026722294013,239.59234137870453,224.61709134328092","8,7,6,5,4,3,2,1","THISTLE WEED,THISTLE WEED,THISTLE WEED,THISTLE WEED,THISTLE WEED,THISTLE WEED,THISTLE WEED,THISTLE WEED","190,234.83753280532602,227.86625527073292,208.0446598436698,228.5215594731841,197.02049205119351,170.0051693535711,193.1310032197759","8,7,6,5,4,3,2,1","WHEAT CROP,WHEAT CROP,WHEAT CROP,WHEAT CROP,WHEAT CROP,WHEAT CROP,WHEAT CROP,WHEAT CROP","0,0,0,0,0,0,0,0","20,20,20,20,20,20,20,20","10,10,10,10,10,10,10,10","20,20,20,20,20,20,20,20","20,20,20,20,20,20,20,20","20,20,20,20,20,20,20,20","0,0,0,0,0,0,0,0","20,20,20,20,20,20,20,20","10,10,10,10,10,10,10,10","20,20,20,20,20,20,20,20","20,20,20,20,20,20,20,20","20,20,20,20,20,20,20,20","1,0,0,0,0,0,0,0","7179,2862,885,1303,1679,977,1929,824","14.84093850143097,-16.406615408387243,56.548619395558916,19.819001865850883,9.848322868486616,34.942074155764416,-14.975250035423604,-2.762184650469544","44.83753280532601,-6.971277534593089,-19.821595427063126,20.47689962951432,-31.50106742199061,-27.015322697622413,23.125833866204797,-11.026455274006269","0","0"
"1067","86","text","0","47","858251","0-0","","","","","","","","","","","","","","","","","","","","","","","","","","","","","","","","","","","","",""
"","","plant-game","0","48","888022","0-0","","200","120","2","CORN CROP","Left","200","160","4","NETTLE WEED","experimental","11","1,2,3,4","120,88.2014641660137,180,207.97254566199607","2,1,2,1","CORN CROP,CORN CROP,WHEAT CROP,WHEAT CROP","160,157.79964230846127,174.01522638576006,186.19979965082524","4,3,2,1","NETTLE WEED,NETTLE WEED,NETTLE WEED,NETTLE WEED","20,20,20,20","20,20,20,20","10,10,10,10","20,20,20,20","0,0,0,0","20,20,20,20","20,20,20,20","20,20,20,20","10,10,10,10","20,20,20,20","0,0,0,0","20,20,20,20","1,0,1,1","9089,2506,6772,4252","-31.798535833986303,1.9024557710971166,27.97254566199607,20.76671399165267","-2.200357691538725,16.21558407729877,12.184573265065168,-22.03491612060132","0","0"
"504","86","text","0","49","888666","0-0","","","","","","","","","","","","","","","","","","","","","","","","","","","","","","","","","","","","",""
"","","plant-game","0","50","910804","0-0","","200","190","1","CORN CROP","Left","200","160","4","NETTLE WEED","experimental","12","1,2,3,4","190,170,182.94506629291516,145.4570524387645","1,3,2,1","CORN CROP,WHEAT CROP,WHEAT CROP,WHEAT CROP","160,199.0179627925175,213.61092304394856,226.88127499788175","4,3,2,1","NETTLE WEED,NETTLE WEED,NETTLE WEED,NETTLE WEED","20,20,20,20","20,20,20,20","10,10,10,10","20,20,20,20","0,0,0,0","20,20,20,20","20,20,20,20","20,20,20,20","10,10,10,10","20,20,20,20","0,0,0,0","20,20,20,20","0,1,1,1","5797,5214,1405,2353","37.99549961074306,12.945066292915168,-37.488013854150665,-2.2216903179570964","39.01796279251751,14.592960251431075,13.270351953933178,5.569831910949407","0","0"
"487","86","text","0","51","911381","0-0","","","","","","","","","","","","","","","","","","","","","","","","","","","","","","","","","","","","",""
"","","plant-game","0","52","933322","0-0","","200","190","2","WHEAT CROP","Right","200","190","2","THISTLE WEED","experimental","13","1,2","190,208.92198771059452","2,1","THISTLE WEED,THISTLE WEED","190,237.0565876145772","2,1","WHEAT CROP,WHEAT CROP","0,0","20,20","10,10","20,20","20,20","20,20","0,0","20,20","10,10","20,20","20,20","20,20","1,0","16068,1936","18.92198771059451,22.933211189414543","47.05658761457722,15.64370374239932","0","0"
"580","86","text","0","53","934052","0-0","","","","","","","","","","","","","","","","","","","","","","","","","","","","","","","","","","","","",""
"","","plant-game","0","54","948163","0-0","","200","180","2","CORN CROP","Left","200","120","2","THISTLE WEED","experimental","14","1,2","180,232.1770975134947","2,1","CORN CROP,CORN CROP","120,166.6587189623979","2,1","THISTLE WEED,THISTLE WEED","20,20","20,20","10,10","20,20","0,0","20,20","20,20","20,20","10,10","20,20","0,0","20,20","0,1","7392,2550","52.17709751349469,-12.66305601299517","46.65871896239789,-45.096176512757566","0","0"
"560","86","text","0","55","948833","0-0","","","","","","","","","","","","","","","","","","","","","","","","","","","","","","","","","","","","",""
"","","plant-game","0","56","978678","0-0","","200","190","4","CORN CROP","Right","200","180","8","NETTLE WEED","experimental","15","1,2,3,4,5,6,7,8","180,157.90254081010036,182.52897608826547,172.1308049771149,175.64460320869867,194.53139764170092,212.8334299207956,210.7745443063588","8,7,6,5,4,3,2,1","NETTLE WEED,NETTLE WEED,NETTLE WEED,NETTLE WEED,NETTLE WEED,NETTLE WEED,NETTLE WEED,NETTLE WEED","190,212.12637708220845,242.91232628765897,236.59212367580724,160,147.99069120173817,121.29643728964999,162.88794601410322","4,3,2,1,4,3,2,1","CORN CROP,CORN CROP,CORN CROP,CORN CROP,WHEAT CROP,WHEAT CROP,WHEAT CROP,WHEAT CROP","0,0,0,0,0,0,0,0","20,20,20,20,20,20,20,20","10,10,10,10,10,10,10,10","20,20,20,20,20,20,20,20","20,20,20,20,20,20,20,20","20,20,20,20,20,20,20,20","0,0,0,0,0,0,0,0","20,20,20,20,20,20,20,20","10,10,10,10,10,10,10,10","20,20,20,20,20,20,20,20","20,20,20,20,20,20,20,20","20,20,20,20,20,20,20,20","0,0,0,0,0,0,1,1","9943,670,1667,592,4480,996,3544,683","-22.09745918989963,24.626435278165104,-10.398171111150559,3.513798231583766,18.88679443300226,18.30203227909468,-2.0588856144367895,39.98999356731821","22.12637708220846,30.78594920545051,-6.320202611851732,-8.437254882076498,-12.009308798261827,-26.694253912088183,41.59150872445324,7.6130757784009955","0","0"
"590","86","text","0","57","979428","0-0","","","","","","","","","","","","","","","","","","","","","","","","","","","","","","","","","","","","",""
"","","plant-game","0","58","1004014","0-0","","200","160","8","WHEAT CROP","Right","200","120","8","NETTLE WEED","experimental","16","1,2,3,4,5,6,7,8","120,126.68520628581304,100.29945491193183,68.60636000732411,24.425988721784357,32.08956155539783,46.80129065940439,79.99523461128052","8,7,6,5,4,3,2,1","NETTLE WEED,NETTLE WEED,NETTLE WEED,NETTLE WEED,NETTLE WEED,NETTLE WEED,NETTLE WEED,NETTLE WEED","160,193.07770866304708,210.91937471770632,200.80749898711048,191.43585243393932,211.17063541815855,212.96392818070086,245.32683646756414","8,7,6,5,4,3,2,1","WHEAT CROP,WHEAT CROP,WHEAT CROP,WHEAT CROP,WHEAT CROP,WHEAT CROP,WHEAT CROP,WHEAT CROP","0,0,0,0,0,0,0,0","20,20,20,20,20,20,20,20","10,10,10,10,10,10,10,10","20,20,20,20,20,20,20,20","20,20,20,20,20,20,20,20","20,20,20,20,20,20,20,20","0,0,0,0,0,0,0,0","20,20,20,20,20,20,20,20","10,10,10,10,10,10,10,10","20,20,20,20,20,20,20,20","20,20,20,20,20,20,20,20","20,20,20,20,20,20,20,20","1,0,0,0,1,0,0,0","10884,2173,1781,597,654,881,1224,910","6.685206285813033,-26.3857513738812,-31.693094904607722,-44.180371285539756,7.663572833613472,14.711729104006558,33.19394395187614,-26.22724884867006","33.077708663047076,17.841666054659232,-10.111875730595836,-9.371646553171153,19.73478298421925,1.7932927625423034,32.36290828686328,-24.677566923138336","0","0"
"11153","86","text","0","59","1015307","0-0","","","","","","","","","","","","","","","","","","","","","","","","","","","","","","","","","","","","",""
"","","plant-game","0","60","1028031","0-0","","200","190","1","WHEAT CROP","Left","200","180","1","THISTLE WEED","experimental","17","1","190","1","WHEAT CROP","180","1","THISTLE WEED","20","20","10","20","0","20","20","20","10","20","0","20","0","8277","46.97167061882483","-1.2418225280711397","0","0"
"511","86","text","0","61","1028649","0-0","","","","","","","","","","","","","","","","","","","","","","","","","","","","","","","","","","","","",""
"","","plant-game","0","62","1043470","0-0","","200","160","1","WHEAT CROP","Left","200","120","1","NETTLE WEED","experimental","18","1","160","1","WHEAT CROP","120","1","NETTLE WEED","20","20","10","20","0","20","20","20","10","20","0","20","0","8497","37.50291354724244","41.20983116556937","0","0"
"491","86","text","0","63","1044085","0-0","","","","","","","","","","","","","","","","","","","","","","","","","","","","","","","","","","","","",""
"","","plant-game","0","64","1069411","0-0","","200","190","8","WHEAT CROP","Right","200","190","8","NETTLE WEED","experimental","19","1,2,3,4,5,6,7,8","190,145.20043141828125,149.51393487061125,149.4784526497807,171.78903183091455,192.19906649051103,185.64261163719448,218.91902454331617","8,7,6,5,4,3,2,1","NETTLE WEED,NETTLE WEED,NETTLE WEED,NETTLE WEED,NETTLE WEED,NETTLE WEED,NETTLE WEED,NETTLE WEED","190,200.58498678969406,193.9223740891662,174.00473770000022,199.3099090800585,178.69976371748052,180.5635640091265,190.1681762648426","8,7,6,5,4,3,2,1","WHEAT CROP,WHEAT CROP,WHEAT CROP,WHEAT CROP,WHEAT CROP,WHEAT CROP,WHEAT CROP,WHEAT CROP","0,0,0,0,0,0,0,0","20,20,20,20,20,20,20,20","10,10,10,10,10,10,10,10","20,20,20,20,20,20,20,20","20,20,20,20,20,20,20,20","20,20,20,20,20,20,20,20","0,0,0,0,0,0,0,0","20,20,20,20,20,20,20,20","10,10,10,10,10,10,10,10","20,20,20,20,20,20,20,20","20,20,20,20,20,20,20,20","20,20,20,20,20,20,20,20","0,0,0,1,0,0,0,1","9583,1783,1806,1513,1011,1139,1226,2126","-44.799568581718745,4.31350345232999,-0.03548222083055179,22.310579181133836,20.410034659596462,-6.556454853316563,33.2764129061217,19.5911617223337","10.584986789694044,-6.662612700527866,-19.917636389165988,25.30517138005827,-20.61014536257797,1.8638002916459757,9.604612255716077,7.01447291416728","0","0"
"651","86","text","0","65","1070212","0-0","","","","","","","","","","","","","","","","","","","","","","","","","","","","","","","","","","","","",""
"","","plant-game","0","66","1094012","0-0","","200","120","8","WHEAT CROP","Left","200","180","8","NETTLE WEED","experimental","20","1,2,3,4,5,6,7,8","120,118.54566838447744,145.18786740712477,115.32768010174883,122.33872848665138,91.97479942916365,97.83979630624889,121.55685982277836","8,7,6,5,4,3,2,1","WHEAT CROP,WHEAT CROP,WHEAT CROP,WHEAT CROP,WHEAT CROP,WHEAT CROP,WHEAT CROP,WHEAT CROP","180,164.17553015065388,194.67350820645763,220.46330547221314,225.4711019946072,239.2189354600406,238.98593743120887,278.3092368467025","8,7,6,5,4,3,2,1","NETTLE WEED,NETTLE WEED,NETTLE WEED,NETTLE WEED,NETTLE WEED,NETTLE WEED,NETTLE WEED,NETTLE WEED","20,20,20,20,20,20,20,20","20,20,20,20,20,20,20,20","10,10,10,10,10,10,10,10","20,20,20,20,20,20,20,20","0,0,0,0,0,0,0,0","20,20,20,20,20,20,20,20","20,20,20,20,20,20,20,20","20,20,20,20,20,20,20,20","10,10,10,10,10,10,10,10","20,20,20,20,20,20,20,20","0,0,0,0,0,0,0,0","20,20,20,20,20,20,20,20","0,0,1,1,1,0,0,0","8868,1021,2574,1051,638,928,573,1248","-1.4543316155225625,26.642199022647343,-29.860187305375952,7.0110483849025576,-30.363929057487724,5.8649968770852325,23.717063516529482,43.86003226897555","-15.824469849346109,30.49797805580373,25.78979726575551,5.007796522394063,13.747833465433391,-0.23299802883174436,39.32329941549365,9.991592697634017","0","0"
"384","86","text","0","67","1094566","0-0","","","","","","","","","","","","","","","","","","","","","","","","","","","","","","","","","","","","",""
"","","plant-game","0","68","1115956","0-0","","200","160","1","CORN CROP","Left","200","190","2","NETTLE WEED","experimental","21","1,2","160,190","1,1","CORN CROP,WHEAT CROP","190,194.80643469471013","2,1","NETTLE WEED,NETTLE WEED","20,20","20,20","10,10","20,20","0,0","20,20","20,20","20,20","10,10","20,20","0,0","20,20","0,1","10212,3033","28.189062608702347,4.634804415674056","4.806434694710136,-20.39592184057343","0","0"
"481","86","text","0","69","1116546","0-0","","","","","","","","","","","","","","","","","","","","","","","","","","","","","","","","","","","","",""
"","","plant-game","0","70","1157907","0-0","","200","190","1","CORN CROP","Right","200","120","8","NETTLE WEED","experimental","22","1,2,3,4,5,6,7,8","120,165.65837355159562,202.75371450965963,205.78419349631946,251.73139509083475,267.7831483312617,294.3966328067351,282.24594866159447","8,7,6,5,4,3,2,1","NETTLE WEED,NETTLE WEED,NETTLE WEED,NETTLE WEED,NETTLE WEED,NETTLE WEED,NETTLE WEED,NETTLE WEED","190,130,139.20092240303106,160.6887565331183,221.45551976055503,265.9513707870312,293.8369776924735,291.1774137162706","1,7,6,5,4,3,2,1","CORN CROP,WHEAT CROP,WHEAT CROP,WHEAT CROP,WHEAT CROP,WHEAT CROP,WHEAT CROP,WHEAT CROP","0,0,0,0,0,0,0,0","20,20,20,20,20,20,20,20","10,10,10,10,10,10,10,10","20,20,20,20,20,20,20,20","20,20,20,20,20,20,20,20","20,20,20,20,20,20,20,20","0,0,0,0,0,0,0,0","20,20,20,20,20,20,20,20","10,10,10,10,10,10,10,10","20,20,20,20,20,20,20,20","20,20,20,20,20,20,20,20","20,20,20,20,20,20,20,20","1,1,1,1,1,0,0,0","19377,5528,2532,644,669,1791,1784,712","45.65837355159563,37.095340958064014,3.0304789866598405,45.947201594515285,16.05175324042699,26.613484475473417,-12.15068414514063,11.022057427075014","11.979845554245623,9.200922403031056,21.487834130087233,60.76676322743673,44.49585102647614,27.885606905442323,-2.659563976202915,30.871179311928998","0","0"
"357","86","text","0","71","1158384","0-0","","","","","","","","","","","","","","","","","","","","","","","","","","","","","","","","","","","","",""
"","","plant-game","0","72","1174087","0-0","","200","180","1","CORN CROP","Left","200","120","2","NETTLE WEED","experimental","23","1,2","180,190","1,1","CORN CROP,WHEAT CROP","120,147.5839444383637","2,1","NETTLE WEED,NETTLE WEED","20,20","20,20","10,10","20,20","0,0","20,20","20,20","20,20","10,10","20,20","0,0","20,20","0,0","3451,4202","25.489116927811715,22.184475935992797","27.583944438363684,40.83932499056229","0","0"
"597","86","text","0","73","1174804","0-0","","","","","","","","","","","","","","","","","","","","","","","","","","","","","","","","","","","","",""
"","","plant-game","0","74","1199550","0-0","","200","160","1","CORN CROP","Right","200","120","4","THISTLE WEED","experimental","24","1,2,3,4","120,143.49384422590788,116.77992641910723,90.47932450547208","4,3,2,1","THISTLE WEED,THISTLE WEED,THISTLE WEED,THISTLE WEED","160,170,184.50656263183728,186.26717916519235","1,3,2,1","CORN CROP,WHEAT CROP,WHEAT CROP,WHEAT CROP","0,0,0,0","20,20,20,20","10,10,10,10","20,20,20,20","20,20,20,20","20,20,20,20","0,0,0,0","20,20,20,20","10,10,10,10","20,20,20,20","20,20,20,20","20,20,20,20","1,1,0,1","8829,3801,1909,1462","23.493844225907875,-26.71391780680065,-26.30060191363514,36.579837427557464","20.939637257253956,14.506562631837284,1.7606165333550696,23.34491770038921","0","0"
"554","86","text","0","75","1200264","0-0","","","","","","","","","","","","","","","","","","","","","","","","","","","","","","","","","","","","",""
"","","plant-game","0","76","1215461","0-0","","200","190","2","CORN CROP","Right","200","160","2","THISTLE WEED","experimental","25","1,2","160,129.2210778856765","2,1","THISTLE WEED,THISTLE WEED","190,171.0744286700874","2,1","CORN CROP,CORN CROP","0,0","20,20","10,10","20,20","20,20","20,20","0,0","20,20","10,10","20,20","20,20","20,20","0,1","9600,1242","-30.77892211432351,47.80521961842929","-18.925571329912614,49.611181345832065","0","0"
"615","86","text","0","77","1216141","0-0","","","","","","","","","","","","","","","","","","","","","","","","","","","","","","","","","","","","",""
"","","plant-game","0","78","1247088","0-0","","200","160","8","WHEAT CROP","Right","200","120","4","NETTLE WEED","experimental","26","1,2,3,4,5,6,7,8","120,123.87314786661183,127.9508206727774,189.26065635324187,160,193.73620915095597,200.28751498900354,220.45870618719954","4,3,2,1,4,3,2,1","NETTLE WEED,NETTLE WEED,NETTLE WEED,NETTLE WEED,THISTLE WEED,THISTLE WEED,THISTLE WEED,THISTLE WEED","160,151.4512549567088,158.0276743178719,177.117283649363,174.92721189690698,191.04134564587798,173.82577793470347,232.75486971975505","8,7,6,5,4,3,2,1","WHEAT CROP,WHEAT CROP,WHEAT CROP,WHEAT CROP,WHEAT CROP,WHEAT CROP,WHEAT CROP,WHEAT CROP","0,0,0,0,0,0,0,0","20,20,20,20,20,20,20,20","10,10,10,10,10,10,10,10","20,20,20,20,20,20,20,20","20,20,20,20,20,20,20,20","20,20,20,20,20,20,20,20","0,0,0,0,0,0,0,0","20,20,20,20,20,20,20,20","10,10,10,10,10,10,10,10","20,20,20,20,20,20,20,20","20,20,20,20,20,20,20,20","20,20,20,20,20,20,20,20","1,1,1,0,1,0,0,0","7009,2679,798,1639,3404,2334,1176,2207","3.873147866611834,4.077672806165571,61.309835680464474,-5.593162892028641,33.73620915095598,6.551305838047579,20.171191198196,5.335348956642379","-8.548745043291209,6.576419361163113,19.089609331491083,-2.1900717524560323,16.114133748971003,-17.21556771117451,58.92909178505157,-1.9388659424094667","0","0"
"483","86","text","0","79","1247701","0-0","","","","","","","","","","","","","","","","","","","","","","","","","","","","","","","","","","","","",""
"","","plant-game","0","80","1280237","0-0","","200","120","8","CORN CROP","Right","200","190","4","NETTLE WEED","experimental","27","1,2,3,4,5,6,7,8","190,220.36055850981137,244.37866147913053,269.2943837355715,160,148.292685872453,198.04657409728964,244.39870531690752","4,3,2,1,4,3,2,1","NETTLE WEED,NETTLE WEED,NETTLE WEED,NETTLE WEED,THISTLE WEED,THISTLE WEED,THISTLE WEED,THISTLE WEED","120,167.07296286951916,160.8014927073186,171.83928188563544,215.61968795153774,219.73981323985012,192.81548282496982,205.63497797009543","8,7,6,5,4,3,2,1","CORN CROP,CORN CROP,CORN CROP,CORN CROP,CORN CROP,CORN CROP,CORN CROP,CORN CROP","0,0,0,0,0,0,0,0","20,20,20,20,20,20,20,20","10,10,10,10,10,10,10,10","20,20,20,20,20,20,20,20","20,20,20,20,20,20,20,20","20,20,20,20,20,20,20,20","0,0,0,0,0,0,0,0","20,20,20,20,20,20,20,20","10,10,10,10,10,10,10,10","20,20,20,20,20,20,20,20","20,20,20,20,20,20,20,20","20,20,20,20,20,20,20,20","0,0,0,1,0,0,1,0","8298,656,577,1709,8393,878,2073,504","30.36055850981136,24.018102969319152,24.915722256440965,38.421153730241755,-11.70731412754699,49.75388822483663,46.3521312196179,-14.964551799171034","47.07296286951915,-6.271470162200564,11.037789178316842,43.780406065902284,4.120125288312369,-26.924330414880306,12.819495145125613,-4.7314805425421875","0","0"
"532","86","text","0","81","1280899","0-0","","","","","","","","","","","","","","","","","","","","","","","","","","","","","","","","","","","","",""
"","","plant-game","0","82","1299175","0-0","","200","190","2","WHEAT CROP","Left","200","160","1","THISTLE WEED","experimental","28","1,2","190,201.874980769536","2,1","WHEAT CROP,WHEAT CROP","160,190","1,1","THISTLE WEED,NETTLE WEED","20,20","20,20","10,10","20,20","0,0","20,20","20,20","20,20","10,10","20,20","0,0","20,20","1,1","6418,4635","11.87498076953599,41.42525598099518","-7.111859432502956,-3.8807075724264295","0","0"
"524","86","text","0","83","1299839","0-0","","","","","","","","","","","","","","","","","","","","","","","","","","","","","","","","","","","","",""
"","","plant-game","0","84","1319389","0-0","","200","190","2","WHEAT CROP","Left","200","180","1","THISTLE WEED","experimental","29","1,2","190,208.89039062533573","2,1","WHEAT CROP,WHEAT CROP","180,190","1,1","THISTLE WEED,NETTLE WEED","20,20","20,20","10,10","20,20","0,0","20,20","20,20","20,20","10,10","20,20","0,0","20,20","1,1","7228,5404","18.890390625335737,2.8225174910284716","50.91761370007817,1.7227603042381159","0","0"
"507","86","text","0","85","1320036","0-0","","","","","","","","","","","","","","","","","","","","","","","","","","","","","","","","","","","","",""
"","","plant-game","0","86","1341526","0-0","","200","120","4","CORN CROP","Left","200","190","1","NETTLE WEED","experimental","30","1,2,3,4","120,101.15437502612168,116.25137242701399,123.11886834175125","4,3,2,1","CORN CROP,CORN CROP,CORN CROP,CORN CROP","190,170,165.3189623716896,148.40556432340657","1,3,2,1","NETTLE WEED,THISTLE WEED,THISTLE WEED,THISTLE WEED","20,20,20,20","20,20,20,20","10,10,10,10","20,20,20,20","0,0,0,0","20,20,20,20","20,20,20,20","20,20,20,20","10,10,10,10","20,20,20,20","0,0,0,0","20,20,20,20","1,1,1,0","5164,3651,2509,2427","-18.845624973878316,15.0969974008923,6.8674959147372565,54.320692072619984","-11.770122261593057,-4.681037628310394,-16.913398048283042,56.09760868970361","0","0"
"724","86","text","0","87","1342371","0-0","","","","","","","","","","","","","","","","","","","","","","","","","","","","","","","","","","","","",""
"","","plant-game","0","88","1358914","0-0","","200","120","2","WHEAT CROP","Left","200","160","2","NETTLE WEED","experimental","31","1,2","120,131.55460524761756","2,1","WHEAT CROP,WHEAT CROP","160,216.92881335110323","2,1","NETTLE WEED,NETTLE WEED","20,20","20,20","10,10","20,20","0,0","20,20","20,20","20,20","10,10","20,20","0,0","20,20","0,0","11298,1136","11.554605247617562,4.1609267886175765","56.92881335110324,12.845706630270968","0","0"
"470","86","text","0","89","1359454","0-0","","","","","","","","","","","","","","","","","","","","","","","","","","","","","","","","","","","","",""
"","","plant-game","0","90","1382183","0-0","","200","190","4","WHEAT CROP","Right","200","190","1","NETTLE WEED","experimental","32","1,2,3,4","190,170,194.92228567118255,187.08217893640256","1,3,2,1","NETTLE WEED,THISTLE WEED,THISTLE WEED,THISTLE WEED","190,210.20326760314038,209.57740197044274,225.1157198773853","4,3,2,1","WHEAT CROP,WHEAT CROP,WHEAT CROP,WHEAT CROP","0,0,0,0","20,20,20,20","10,10,10,10","20,20,20,20","20,20,20,20","20,20,20,20","0,0,0,0","20,20,20,20","10,10,10,10","20,20,20,20","20,20,20,20","20,20,20,20","0,0,0,0","5706,2943,5708,658","5.018108576985406,24.922285671182554,-7.840106734779999,-8.58191086417133","20.20326760314036,-0.6258656326976444,15.538317906942567,-2.7107672061196157","0","0"
"8005","86","text","0","91","1390328","0-0","","","","","","","","","","","","","","","","","","","","","","","","","","","","","","","","","","","","",""
"","","plant-game","0","92","1412508","0-0","","200","180","4","CORN CROP","Right","200","160","4","NETTLE WEED","experimental","33","1,2,3,4","160,166.41422767645932,137.10116057188853,134.29156146519588","4,3,2,1","NETTLE WEED,NETTLE WEED,NETTLE WEED,NETTLE WEED","180,211.5696152939718,239.252033055754,248.1186309867774","4,3,2,1","CORN CROP,CORN CROP,CORN CROP,CORN CROP","0,0,0,0","20,20,20,20","10,10,10,10","20,20,20,20","20,20,20,20","20,20,20,20","0,0,0,0","20,20,20,20","10,10,10,10","20,20,20,20","20,20,20,20","20,20,20,20","0,0,0,0","13388,1418,1771,557","6.414227676459307,-29.313067104570795,-2.8095991066926556,-16.26581341415344","31.569615293971797,27.68241776178221,8.866597931023382,-29.63424570982378","0","0"
"624","86","text","0","93","1413262","0-0","","","","","","","","","","","","","","","","","","","","","","","","","","","","","","","","","","","","",""
"","","plant-game","0","94","1444007","0-0","","200","120","2","CORN CROP","Right","200","120","1","THISTLE WEED","experimental","34","1,2","120,190","1,1","THISTLE WEED,NETTLE WEED","120,120.21738378254642","2,1","CORN CROP,CORN CROP","0,0","20,20","10,10","20,20","20,20","20,20","0,0","20,20","10,10","20,20","20,20","20,20","1,1","19086,3027","58.11442426126971,46.18605978599296","0.217383782546424,26.171375076849372","0","0"
"541","86","text","0","95","1444743","0-0","","","","","","","","","","","","","","","","","","","","","","","","","","","","","","","","","","","","",""
"","","plant-game","0","96","1466052","0-0","","200","190","8","WHEAT CROP","Right","200","160","2","NETTLE WEED","experimental","35","1,2,3,4,5,6,7,8","160,146.61833366989333,140,149.9051573430338,150.22344967902873,144.9137849731203,152.5863309033213,165.3887513546068","2,1,6,5,4,3,2,1","NETTLE WEED,NETTLE WEED,THISTLE WEED,THISTLE WEED,THISTLE WEED,THISTLE WEED,THISTLE WEED,THISTLE WEED","190,223.8720282626703,234.73974634379374,251.87022954279036,258.621382955481,247.30840945270964,263.4886646458715,290.61265178696874","8,7,6,5,4,3,2,1","WHEAT CROP,WHEAT CROP,WHEAT CROP,WHEAT CROP,WHEAT CROP,WHEAT CROP,WHEAT CROP,WHEAT CROP","0,0,0,0,0,0,0,0","20,20,20,20,20,20,20,20","10,10,10,10,10,10,10,10","20,20,20,20,20,20,20,20","20,20,20,20,20,20,20,20","20,20,20,20,20,20,20,20","0,0,0,0,0,0,0,0","20,20,20,20,20,20,20,20","10,10,10,10,10,10,10,10","20,20,20,20,20,20,20,20","20,20,20,20,20,20,20,20","20,20,20,20,20,20,20,20","0,0,0,0,0,0,0,0","5083,978,3473,998,491,479,495,480","-13.381666330106661,31.865892930220898,9.905157343033796,0.3182923359949157,-5.309664705908437,7.672545930201011,12.80242045128549,-42.56098938385097","33.87202826267032,10.867718081123439,17.13048319899663,6.751153412690672,-11.312973502771369,16.18025519316188,27.123987141097267,17.415648928929933","0","0"
"510","86","text","0","97","1466752","0-0","","","","","","","","","","","","","","","","","","","","","","","","","","","","","","","","","","","","",""
"","","plant-game","0","98","1492412","0-0","","200","160","4","WHEAT CROP","Right","200","160","2","NETTLE WEED","experimental","36","1,2,3,4","160,172.73698407124058,180,220.37471062819625","2,1,2,1","NETTLE WEED,NETTLE WEED,THISTLE WEED,THISTLE WEED","160,142.15236532500282,122.88489222865911,148.86968984420122","4,3,2,1","WHEAT CROP,WHEAT CROP,WHEAT CROP,WHEAT CROP","0,0,0,0","20,20,20,20","10,10,10,10","20,20,20,20","20,20,20,20","20,20,20,20","0,0,0,0","20,20,20,20","10,10,10,10","20,20,20,20","20,20,20,20","20,20,20,20","0,0,1,0","4658,883,8395,2343","12.736984071240574,-17.99583539269836,40.374710628196254,22.44621531053584","-17.847634674997177,-19.26747309634371,25.9847976155421,-10.26353813360009","0","0"
"465","86","text","0","99","1492967","0-0","","","","","","","","","","","","","","","","","","","","","","","","","","","","","","","","","","","","",""
"","","plant-game","0","100","1505928","0-0","","200","120","2","CORN CROP","Right","200","120","2","NETTLE WEED","experimental","37","1,2","120,122.38830749330131","2,1","NETTLE WEED,NETTLE WEED","120,123.04566728523687","2,1","CORN CROP,CORN CROP","0,0","20,20","10,10","20,20","20,20","20,20","0,0","20,20","10,10","20,20","20,20","20,20","1,1","7639,585","2.3883074933013084,-13.668605305294712","3.045667285236874,24.779837415055134","0","0"
"435","86","text","0","101","1506472","0-0","","","","","","","","","","","","","","","","","","","","","","","","","","","","","","","","","","","","",""
"","","plant-game","0","102","1533447","0-0","","200","160","8","CORN CROP","Right","200","180","1","THISTLE WEED","experimental","38","1,2,3,4,5,6,7,8","180,130,170.43428478311313,153.66771186105893,160.88387159768465,180.7406596793552,180.9569856232866,195.70315112743012","1,7,6,5,4,3,2,1","THISTLE WEED,NETTLE WEED,NETTLE WEED,NETTLE WEED,NETTLE WEED,NETTLE WEED,NETTLE WEED,NETTLE WEED","160,173.46469702235885,196.29327742340723,187.09165828176407,179.17410053070253,181.71290295527345,188.6343029834358,224.62047999194135","8,7,6,5,4,3,2,1","CORN CROP,CORN CROP,CORN CROP,CORN CROP,CORN CROP,CORN CROP,CORN CROP,CORN CROP","0,0,0,0,0,0,0,0","20,20,20,20,20,20,20,20","10,10,10,10,10,10,10,10","20,20,20,20,20,20,20,20","20,20,20,20,20,20,20,20","20,20,20,20,20,20,20,20","0,0,0,0,0,0,0,0","20,20,20,20,20,20,20,20","10,10,10,10,10,10,10,10","20,20,20,20,20,20,20,20","20,20,20,20,20,20,20,20","20,20,20,20,20,20,20,20","0,1,0,0,0,0,1,0","3966,3236,2200,2745,1467,1283,1239,2175","0.832413888283915,40.434284783113114,-16.76657292205418,7.216159736625714,19.856788081670544,0.21632594393141677,14.746165504143507,-34.275403603758306","13.464697022358848,22.82858040104838,-9.201619141643178,-7.917557751061532,2.5388024245709095,6.921400028162331,35.986177008505564,-40.9508465968561","0","0"
"487","86","text","0","103","1534064","0-0","","","","","","","","","","","","","","","","","","","","","","","","","","","","","","","","","","","","",""
"","","plant-game","0","104","1564465","0-0","","200","190","4","CORN CROP","Left","200","160","8","THISTLE WEED","experimental","39","1,2,3,4,5,6,7,8","190,186.1241015874353,208.68005590149977,208.3702466276694,160,205.91918412001885,222.2079293448602,267.6219354696034","4,3,2,1,4,3,2,1","CORN CROP,CORN CROP,CORN CROP,CORN CROP,WHEAT CROP,WHEAT CROP,WHEAT CROP,WHEAT CROP","160,139.13377258571515,156.0061852529217,190.84752910984713,196.99430054559863,202.36314979375385,214.38923067162096,261.70510673956164","8,7,6,5,4,3,2,1","THISTLE WEED,THISTLE WEED,THISTLE WEED,THISTLE WEED,THISTLE WEED,THISTLE WEED,THISTLE WEED,THISTLE WEED","20,20,20,20,20,20,20,20","20,20,20,20,20,20,20,20","10,10,10,10,10,10,10,10","20,20,20,20,20,20,20,20","0,0,0,0,0,0,0,0","20,20,20,20,20,20,20,20","20,20,20,20,20,20,20,20","20,20,20,20,20,20,20,20","10,10,10,10,10,10,10,10","20,20,20,20,20,20,20,20","0,0,0,0,0,0,0,0","20,20,20,20,20,20,20,20","0,0,0,0,0,0,0,1","5042,1084,2055,1304,6920,1414,595,2573","-3.875898412564709,22.555954314064465,-0.3098092738303784,31.632021641624917,45.919184120018855,16.288745224841332,45.4140061247432,-20.31461822468161","-20.866227414284857,16.872412667206564,34.84134385692542,6.146771435751505,5.368849248155222,12.026080877867127,47.31587606794066,-10.58296985236667","0","0"
"578","86","text","0","105","1565173","0-0","","","","","","","","","","","","","","","","","","","","","","","","","","","","","","","","","","","","",""
"","","plant-game","0","106","1593116","0-0","","200","160","4","WHEAT CROP","Left","200","120","2","NETTLE WEED","experimental","40","1,2,3,4","160,193.6724275319681,236.3610662204335,238.89796775635313","4,3,2,1","WHEAT CROP,WHEAT CROP,WHEAT CROP,WHEAT CROP","120,113.61950700489483,180,200.04651506288798","2,1,2,1","NETTLE WEED,NETTLE WEED,THISTLE WEED,THISTLE WEED","20,20,20,20","20,20,20,20","10,10,10,10","20,20,20,20","0,0,0,0","20,20,20,20","20,20,20,20","20,20,20,20","10,10,10,10","20,20,20,20","0,0,0,0","20,20,20,20","0,0,1,1","9859,674,3202,3485","33.67242753196811,42.688638688465375,2.536901535919633,-17.559352973245623","-6.380492995105172,16.242193469014108,20.04651506288797,25.399635375522255","0","0"
"751","86","text","0","107","1594027","0-0","","","","","","","","","","","","","","","","","","","","","","","","","","","","","","","","","","","","",""
"","","plant-game","0","108","1612197","0-0","","200","120","1","CORN CROP","Left","200","160","2","NETTLE WEED","experimental","41","1,2","120,190","1,1","CORN CROP,WHEAT CROP","160,187.1195184089663","2,1","NETTLE WEED,NETTLE WEED","20,20","20,20","10,10","20,20","0,0","20,20","20,20","20,20","10,10","20,20","0,0","20,20","1,0","3070,6655","-9.951704809418796,-7.3276955447368195","27.119518408966275,13.265046302290733","0","0"
"797","86","text","0","109","1613134","0-0","","","","","","","","","","","","","","","","","","","","","","","","","","","","","","","","","","","","",""
"","","plant-game","0","110","1633489","0-0","","200","120","1","WHEAT CROP","Right","200","160","4","THISTLE WEED","experimental","42","1,2,3,4","160,204.11341817284622,195.4933224420237,191.77175920646815","4,3,2,1","THISTLE WEED,THISTLE WEED,THISTLE WEED,THISTLE WEED","120,170,141.99675741633138,163.14677817900323","1,3,2,1","WHEAT CROP,CORN CROP,CORN CROP,CORN CROP","0,0,0,0","20,20,20,20","10,10,10,10","20,20,20,20","20,20,20,20","20,20,20,20","0,0,0,0","20,20,20,20","10,10,10,10","20,20,20,20","20,20,20,20","20,20,20,20","1,0,0,0","6199,3365,1491,512","44.11341817284623,-8.62009573082252,-3.721563235555547,-24.929015921756566","35.447311472116354,-28.003242583668634,21.150020762671865,-7.670559123263833","0","0"
"594","86","text","0","111","1634233","0-0","","","","","","","","","","","","","","","","","","","","","","","","","","","","","","","","","","","","",""
"","","plant-game","0","112","1653325","0-0","","200","160","8","CORN CROP","Right","200","160","8","THISTLE WEED","experimental","43","1,2,3,4,5,6,7,8","160,156.40853507527063,176.78074483434835,183.54621815441277,214.62981271060096,227.88010170519635,216.31540774769297,271.0232068007297","8,7,6,5,4,3,2,1","THISTLE WEED,THISTLE WEED,THISTLE WEED,THISTLE WEED,THISTLE WEED,THISTLE WEED,THISTLE WEED,THISTLE WEED","160,199.76440443768,223.38176012722639,225.46104509444388,211.48247927271228,223.80229394709377,202.8284326126338,210.98599686439977","8,7,6,5,4,3,2,1","CORN CROP,CORN CROP,CORN CROP,CORN CROP,CORN CROP,CORN CROP,CORN CROP,CORN CROP","0,0,0,0,0,0,0,0","20,20,20,20,20,20,20,20","10,10,10,10,10,10,10,10","20,20,20,20,20,20,20,20","20,20,20,20,20,20,20,20","20,20,20,20,20,20,20,20","0,0,0,0,0,0,0,0","20,20,20,20,20,20,20,20","10,10,10,10,10,10,10,10","20,20,20,20,20,20,20,20","20,20,20,20,20,20,20,20","20,20,20,20,20,20,20,20","0,0,0,0,0,0,0,0","6627,542,1670,551,1509,535,944,536","-3.591464924729362,20.372209759077727,6.765473320064411,31.083594556188174,13.250288994595401,-11.564693957503389,54.70779905303676,-10.729902284396523","39.76440443768001,23.61735568954638,2.079284967217485,-13.978565821731594,12.319814674381496,-20.973861334459972,8.157564251765969,-0.1805423260838463","0","0"
"349","86","text","0","113","1653794","0-0","","","","","","","","","","","","","","","","","","","","","","","","","","","","","","","","","","","","",""
"","","plant-game","0","114","1684528","0-0","","200","180","2","CORN CROP","Left","200","160","4","NETTLE WEED","experimental","44","1,2,3,4","180,173.74158874102804,180,209.03465076344008","2,1,2,1","CORN CROP,CORN CROP,WHEAT CROP,WHEAT CROP","160,165.67088695035864,168.2133362629237,196.04637678151943","4,3,2,1","NETTLE WEED,NETTLE WEED,NETTLE WEED,NETTLE WEED","20,20,20,20","20,20,20,20","10,10,10,10","20,20,20,20","0,0,0,0","20,20,20,20","20,20,20,20","20,20,20,20","10,10,10,10","20,20,20,20","0,0,0,0","20,20,20,20","1,1,0,1","6335,2049,12644,1792","-6.258411258971961,-34.98442719658669,29.03465076344009,-13.424287909505512","5.670886950358627,2.5424493125650685,27.833040518595745,0.9670331016801409","0","0"
"492","86","text","0","115","1685210","0-0","","","","","","","","","","","","","","","","","","","","","","","","","","","","","","","","","","","","",""
"","","plant-game","0","116","1701511","0-0","","200","180","8","WHEAT CROP","Left","200","190","8","NETTLE WEED","experimental","45","1,2,3,4,5,6,7,8","180,190.172027936805,185.17054939166232,195.61326898656583,161.52314983958223,177.6342400078712,186.0932471432193,180.2941251891672","8,7,6,5,4,3,2,1","WHEAT CROP,WHEAT CROP,WHEAT CROP,WHEAT CROP,WHEAT CROP,WHEAT CROP,WHEAT CROP,WHEAT CROP","190,156.5124927207397,151.52065810323,154.98144305756514,139.8475934212634,106.7156849434395,89.91983838854365,94.3989129906569","8,7,6,5,4,3,2,1","NETTLE WEED,NETTLE WEED,NETTLE WEED,NETTLE WEED,NETTLE WEED,NETTLE WEED,NETTLE WEED,NETTLE WEED","20,20,20,20,20,20,20,20","20,20,20,20,20,20,20,20","10,10,10,10,10,10,10,10","20,20,20,20,20,20,20,20","0,0,0,0,0,0,0,0","20,20,20,20,20,20,20,20","20,20,20,20,20,20,20,20","20,20,20,20,20,20,20,20","10,10,10,10,10,10,10,10","20,20,20,20,20,20,20,20","0,0,0,0,0,0,0,0","20,20,20,20,20,20,20,20","1,1,1,1,1,1,1,1","5934,1533,1034,565,488,504,447,493","10.172027936804987,-5.001478545142685,10.442719594903512,-34.09011914698358,16.11109016828896,8.459007135348088,-5.799121954052073,-3.533119885517579","-33.48750727926032,-4.991834617509667,3.4607849543351517,-15.13384963630173,-33.13190847782392,-16.795846554895842,4.4790746021132435,-6.928722891249198","0","0"
"746","86","text","0","117","1702397","0-0","","","","","","","","","","","","","","","","","","","","","","","","","","","","","","","","","","","","",""
"","","plant-game","0","118","1726240","0-0","","200","120","1","CORN CROP","Left","200","120","4","NETTLE WEED","experimental","46","1,2,3,4","120,170,167.2094431834756,188.34275116411715","1,3,2,1","CORN CROP,WHEAT CROP,WHEAT CROP,WHEAT CROP","120,129.44379614828884,202.18652510656955,237.28566199074658","4,3,2,1","NETTLE WEED,NETTLE WEED,NETTLE WEED,NETTLE WEED","20,20,20,20","20,20,20,20","10,10,10,10","20,20,20,20","0,0,0,0","20,20,20,20","20,20,20,20","20,20,20,20","10,10,10,10","20,20,20,20","0,0,0,0","20,20,20,20","0,0,0,0","5515,6511,2607,1300","3.8565076867140817,-2.7905568165244077,21.133307980641558,-7.196554229273289","9.44379614828884,72.7427289582807,35.09913688417704,12.012552382283062","0","0"
"523","86","text","0","119","1726913","0-0","","","","","","","","","","","","","","","","","","","","","","","","","","","","","","","","","","","","",""
"","","plant-game","0","120","1751351","0-0","","200","160","2","CORN CROP","Left","200","180","8","NETTLE WEED","experimental","47","1,2,3,4,5,6,7,8","160,157.02220388309473,140,133.46687938471376,152.15517234230165,149.42917638152267,198.46118410758618,179.64512913652965","2,1,6,5,4,3,2,1","CORN CROP,CORN CROP,WHEAT CROP,WHEAT CROP,WHEAT CROP,WHEAT CROP,WHEAT CROP,WHEAT CROP","180,187.8330781934902,191.99737621920343,186.33884939006128,204.1433377414549,209.41878011775253,212.48479616442174,204.01795907168614","8,7,6,5,4,3,2,1","NETTLE WEED,NETTLE WEED,NETTLE WEED,NETTLE WEED,NETTLE WEED,NETTLE WEED,NETTLE WEED,NETTLE WEED","20,20,20,20,20,20,20,20","20,20,20,20,20,20,20,20","10,10,10,10,10,10,10,10","20,20,20,20,20,20,20,20","0,0,0,0,0,0,0,0","20,20,20,20,20,20,20,20","20,20,20,20,20,20,20,20","20,20,20,20,20,20,20,20","10,10,10,10,10,10,10,10","20,20,20,20,20,20,20,20","0,0,0,0,0,0,0,0","20,20,20,20,20,20,20,20","0,0,1,1,1,1,1,1","7142,1992,2574,960,1280,492,515,741","-2.977796116905253,33.07866371275166,-6.533120615286244,18.6882929575879,-2.725995960778991,49.0320077260635,-18.816054971056527,10.417979403429925","7.833078193490206,4.164298025713233,-5.658526829142141,17.804488351393623,5.275442376297638,3.066016046669191,-8.466837092735613,-11.466119677667102","0","0"
"666","86","text","0","121","1752189","0-0","","","","","","","","","","","","","","","","","","","","","","","","","","","","","","","","","","","","",""
"","","plant-game","0","122","1768784","0-0","","200","120","4","WHEAT CROP","Left","200","160","4","NETTLE WEED","experimental","48","1,2,3,4","120,118.13278396711127,95.79419450390886,70.39819927163859","4,3,2,1","WHEAT CROP,WHEAT CROP,WHEAT CROP,WHEAT CROP","160,198.68722784451313,152.70938370054415,146.60581997731163","4,3,2,1","NETTLE WEED,NETTLE WEED,NETTLE WEED,NETTLE WEED","20,20,20,20","20,20,20,20","10,10,10,10","20,20,20,20","0,0,0,0","20,20,20,20","20,20,20,20","20,20,20,20","10,10,10,10","20,20,20,20","0,0,0,0","20,20,20,20","1,1,1,0","5532,1946,1719,1965","-1.8672160328887277,-22.338589463202414,-25.395995232270273,49.7534324667563","38.68722784451312,-45.97784414396897,-6.103563723232516,48.95346764358298","0","0"
"5737","86","text","0","123","1774646","0-0","","","","","","","","","","","","","","","","","","","","","","","","","","","","","","","","","","","","",""
"","","plant-game","0","124","1792890","0-0","","200","120","8","CORN CROP","Left","200","160","8","THISTLE WEED","experimental","49","1,2,3,4,5,6,7,8","120,132.39885184761562,134.50325966877983,117.85429848286573,147.12876486351988,158.69763186015916,175.26241875646565,182.0700403722295","8,7,6,5,4,3,2,1","CORN CROP,CORN CROP,CORN CROP,CORN CROP,CORN CROP,CORN CROP,CORN CROP,CORN CROP","160,155.71050181067238,120.689538423934,140.72458504651104,118.86115228025668,130.98896877138873,141.2202005442266,161.2614173270211","8,7,6,5,4,3,2,1","THISTLE WEED,THISTLE WEED,THISTLE WEED,THISTLE WEED,THISTLE WEED,THISTLE WEED,THISTLE WEED,THISTLE WEED","20,20,20,20,20,20,20,20","20,20,20,20,20,20,20,20","10,10,10,10,10,10,10,10","20,20,20,20,20,20,20,20","0,0,0,0,0,0,0,0","20,20,20,20,20,20,20,20","20,20,20,20,20,20,20,20","20,20,20,20,20,20,20,20","10,10,10,10,10,10,10,10","20,20,20,20,20,20,20,20","0,0,0,0,0,0,0,0","20,20,20,20,20,20,20,20","1,1,1,1,0,0,0,0","6147,1122,1247,655,1685,569,472,720","12.398851847615616,2.1044078211642185,-16.648961185914107,29.274466380654157,11.568866996639276,16.564786896306476,6.807621615763853,-6.131351679025862","-4.289498189327626,-35.02096338673839,20.035046622577028,-21.863432766254366,12.127816491132059,10.231231772837878,20.041216782794503,14.780277951533499","0","0"
"629","86","text","0","125","1793660","0-0","","","","","","","","","","","","","","","","","","","","","","","","","","","","","","","","","","","","",""
"","","plant-game","0","126","1811977","0-0","","200","190","4","CORN CROP","Right","200","120","2","THISTLE WEED","experimental","50","1,2,3,4","120,133.576957736034,180,181.5052621041894","2,1,2,1","THISTLE WEED,THISTLE WEED,NETTLE WEED,NETTLE WEED","190,143.7500580076365,143.81096623543172,104.74528491025816","4,3,2,1","CORN CROP,CORN CROP,CORN CROP,CORN CROP","0,0,0,0","20,20,20,20","10,10,10,10","20,20,20,20","20,20,20,20","20,20,20,20","0,0,0,0","20,20,20,20","10,10,10,10","20,20,20,20","20,20,20,20","20,20,20,20","0,1,0,1","3699,3049,2990,1014","13.57695773603398,14.327513138974,1.5052621041894012,36.11809294384487","-46.24994199236348,0.060908227795206216,-39.06568132517356,-7.563566566357913","0","0"
"513","86","text","0","127","1812637","0-0","","","","","","","","","","","","","","","","","","","","","","","","","","","","","","","","","","","","",""
"","","plant-game","0","128","1835193","0-0","","200","190","1","CORN CROP","Left","200","190","2","THISTLE WEED","experimental","51","1,2","190,190","1,1","CORN CROP,WHEAT CROP","190,247.68688823347298","2,1","THISTLE WEED,THISTLE WEED","20,20","20,20","10,10","20,20","0,0","20,20","20,20","20,20","10,10","20,20","0,0","20,20","1,1","6535,6334","33.675877730376655,12.879736997594232","57.68688823347297,8.770757889651776","0","0"
"658","86","text","0","129","1836011","0-0","","","","","","","","","","","","","","","","","","","","","","","","","","","","","","","","","","","","",""
"","","plant-game","0","130","1856192","0-0","","200","160","1","CORN CROP","Left","200","180","4","NETTLE WEED","experimental","52","1,2,3,4","160,170,199.59295099173045,217.53065956790954","1,3,2,1","CORN CROP,WHEAT CROP,WHEAT CROP,WHEAT CROP","180,186.46340242682138,187.07846341088833,186.64682025026028","4,3,2,1","NETTLE WEED,NETTLE WEED,NETTLE WEED,NETTLE WEED","20,20,20,20","20,20,20,20","10,10,10,10","20,20,20,20","0,0,0,0","20,20,20,20","20,20,20,20","20,20,20,20","10,10,10,10","20,20,20,20","0,0,0,0","20,20,20,20","0,1,1,1","7406,4199,1317,529","53.36963870408253,29.592950991730454,17.937708576179098,-2.502060032136366","6.4634024268213714,0.6150609840669558,-0.4316431606280651,-20.285072684438322","0","0"
"405","86","text","0","131","1856742","0-0","","","","","","","","","","","","","","","","","","","","","","","","","","","","","","","","","","","","",""
"","","plant-game","0","132","1880756","0-0","","200","160","4","CORN CROP","Left","200","160","8","THISTLE WEED","experimental","53","1,2,3,4,5,6,7,8","160,169.07956993944757,178.55925677067506,182.84086928567197,160,121.91345516005688,129.37489757412698,114.5624426115788","4,3,2,1,4,3,2,1","CORN CROP,CORN CROP,CORN CROP,CORN CROP,WHEAT CROP,WHEAT CROP,WHEAT CROP,WHEAT CROP","160,195.30201051946636,173.18809990298683,170.0915087791886,190.42393969046805,174.20782977526704,172.50913086147537,196.27481060697727","8,7,6,5,4,3,2,1","THISTLE WEED,THISTLE WEED,THISTLE WEED,THISTLE WEED,THISTLE WEED,THISTLE WEED,THISTLE WEED,THISTLE WEED","20,20,20,20,20,20,20,20","20,20,20,20,20,20,20,20","10,10,10,10,10,10,10,10","20,20,20,20,20,20,20,20","0,0,0,0,0,0,0,0","20,20,20,20,20,20,20,20","20,20,20,20,20,20,20,20","20,20,20,20,20,20,20,20","10,10,10,10,10,10,10,10","20,20,20,20,20,20,20,20","0,0,0,0,0,0,0,0","20,20,20,20,20,20,20,20","0,1,1,0,1,1,1,1","4467,1457,531,1870,5595,622,507,2112","9.079569939447563,9.47968683122749,4.281612514996916,-4.041847048256912,-38.08654483994311,7.461442414070094,-14.812454962548173,8.681266174759433","35.30201051946636,-22.113910616479533,-3.096591123798262,20.332430911279452,-16.21610991520099,-1.6986989137916715,23.765679745501885,-4.995756549659943","0","0"
"575","86","text","0","133","1881441","0-0","","","","","","","","","","","","","","","","","","","","","","","","","","","","","","","","","","","","",""
"","","plant-game","0","134","1899366","0-0","","200","180","8","WHEAT CROP","Right","200","120","2","NETTLE WEED","experimental","54","1,2,3,4,5,6,7,8","120,61.3083863945308,140,121.56933509009133,95.6126623841422,97.55607870704557,124.40645432251596,124.06738250781932","2,1,6,5,4,3,2,1","NETTLE WEED,NETTLE WEED,THISTLE WEED,THISTLE WEED,THISTLE WEED,THISTLE WEED,THISTLE WEED,THISTLE WEED","180,196.215071098605,180.30473522756031,226.92809078595283,211.78770658069112,198.0504513304118,227.2208871029006,187.1480740906872","8,7,6,5,4,3,2,1","WHEAT CROP,WHEAT CROP,WHEAT CROP,WHEAT CROP,WHEAT CROP,WHEAT CROP,WHEAT CROP,WHEAT CROP","0,0,0,0,0,0,0,0","20,20,20,20,20,20,20,20","10,10,10,10,10,10,10,10","20,20,20,20,20,20,20,20","20,20,20,20,20,20,20,20","20,20,20,20,20,20,20,20","0,0,0,0,0,0,0,0","20,20,20,20,20,20,20,20","10,10,10,10,10,10,10,10","20,20,20,20,20,20,20,20","20,20,20,20,20,20,20,20","20,20,20,20,20,20,20,20","0,0,1,0,0,1,0,1","3289,757,1941,1558,721,390,562,772","-58.6916136054692,13.805892365302006,-18.43066490990868,-25.95667270594913,1.9434163229033703,26.850375615470384,-0.3390718146966344,4.356453461037155","16.215071098604984,-15.91033587104467,46.62335555839252,-15.140384205261707,-13.737255250279334,29.170435772488826,-40.0728130122134,11.122258873142039","0","0"
"442","86","text","0","135","1899898","0-0","","","","","","","","","","","","","","","","","","","","","","","","","","","","","","","","","","","","",""
"","","plant-game","0","136","1916076","0-0","","200","190","4","CORN CROP","Right","200","180","1","THISTLE WEED","experimental","55","1,2,3,4","180,170,216.73541910506077,208.5765142159375","1,3,2,1","THISTLE WEED,NETTLE WEED,NETTLE WEED,NETTLE WEED","190,168.77425452560632,194.94139271702946,181.0532365060852","4,3,2,1","CORN CROP,CORN CROP,CORN CROP,CORN CROP","0,0,0,0","20,20,20,20","10,10,10,10","20,20,20,20","20,20,20,20","20,20,20,20","0,0,0,0","20,20,20,20","10,10,10,10","20,20,20,20","20,20,20,20","20,20,20,20","0,1,0,0","2650,2707,3200,572","3.682145920068431,46.73541910506076,-8.158904889123283,-19.707925277961852","-21.22574547439367,26.167138191423135,-13.88815621094426,-17.95659347862837","0","0"
"579","86","text","0","137","1916815","0-0","","","","","","","","","","","","","","","","","","","","","","","","","","","","","","","","","","","","",""
"","","plant-game","0","138","1932422","0-0","","200","160","2","WHEAT CROP","Left","200","190","2","NETTLE WEED","experimental","56","1,2","160,153.13662130903435","2,1","WHEAT CROP,WHEAT CROP","190,181.09621276366727","2,1","NETTLE WEED,NETTLE WEED","20,20","20,20","10,10","20,20","0,0","20,20","20,20","20,20","10,10","20,20","0,0","20,20","1,0","8771,1878","-6.863378690965658,-15.887807369069833","-8.903787236332732,12.20825639180997","0","0"
"659","86","text","0","139","1933206","0-0","","","","","","","","","","","","","","","","","","","","","","","","","","","","","","","","","","","","",""
"","","plant-game","0","140","1958160","0-0","","200","120","8","CORN CROP","Right","200","120","4","THISTLE WEED","experimental","57","1,2,3,4,5,6,7,8","120,109.81576317057669,120.68741521768325,148.74281465478307,160,124.08909374002641,115.82953040778888,106.11564016888228","4,3,2,1,4,3,2,1","THISTLE WEED,THISTLE WEED,THISTLE WEED,THISTLE WEED,NETTLE WEED,NETTLE WEED,NETTLE WEED,NETTLE WEED","120,130.92064826357964,162.76993440936408,183.40444077774552,201.08283564824367,199.10961335365397,216.08805588116923,235.18751884535118","8,7,6,5,4,3,2,1","CORN CROP,CORN CROP,CORN CROP,CORN CROP,CORN CROP,CORN CROP,CORN CROP,CORN CROP","0,0,0,0,0,0,0,0","20,20,20,20,20,20,20,20","10,10,10,10,10,10,10,10","20,20,20,20,20,20,20,20","20,20,20,20,20,20,20,20","20,20,20,20,20,20,20,20","0,0,0,0,0,0,0,0","20,20,20,20,20,20,20,20","10,10,10,10,10,10,10,10","20,20,20,20,20,20,20,20","20,20,20,20,20,20,20,20","20,20,20,20,20,20,20,20","0,0,1,1,0,0,0,0","8135,771,1763,626,2958,1411,837,460","-10.184236829423314,10.871652047106572,28.055399437099812,32.33463753230292,-35.910906259973586,-8.259563332237532,-9.7138902389066,29.00615558599409","10.920648263579638,31.849286145784458,20.634506368381444,17.678394870498163,-1.973222294589715,16.978442527515245,19.099462964181956,14.464569427050884","0","0"
"689","86","text","0","141","1958959","0-0","","","","","","","","","","","","","","","","","","","","","","","","","","","","","","","","","","","","",""
"","","plant-game","0","142","1980024","0-0","","200","120","8","CORN CROP","Right","200","160","4","NETTLE WEED","experimental","58","1,2,3,4,5,6,7,8","160,170.94933313873318,189.64768008043973,196.4928026295775,160,149.38322786775797,161.83378662005163,182.84578712763619","4,3,2,1,4,3,2,1","NETTLE WEED,NETTLE WEED,NETTLE WEED,NETTLE WEED,THISTLE WEED,THISTLE WEED,THISTLE WEED,THISTLE WEED","120,107.06526518873908,65.87666459747237,50.12984409132735,20.086797382381285,13.866947421889392,15.805494490318612,72.16556522605485","8,7,6,5,4,3,2,1","CORN CROP,CORN CROP,CORN CROP,CORN CROP,CORN CROP,CORN CROP,CORN CROP,CORN CROP","0,0,0,0,0,0,0,0","20,20,20,20,20,20,20,20","10,10,10,10,10,10,10,10","20,20,20,20,20,20,20,20","20,20,20,20,20,20,20,20","20,20,20,20,20,20,20,20","0,0,0,0,0,0,0,0","20,20,20,20,20,20,20,20","10,10,10,10,10,10,10,10","20,20,20,20,20,20,20,20","20,20,20,20,20,20,20,20","20,20,20,20,20,20,20,20","0,0,0,0,0,1,1,0","3476,1603,682,729,3325,546,840,1075","10.949333138733184,18.69834694170654,6.845122549137784,-17.27768959968444,-10.616772132242039,12.450558752293652,21.012000507584574,-3.883785822670446","-12.934734811260926,-41.18860059126671,-15.746820506145019,-30.043046708946065,-6.219849960491893,1.9385470684292194,56.36007073573624,17.205713084610224","0","0"
"457","86","text","0","143","1980591","0-0","","","","","","","","","","","","","","","","","","","","","","","","","","","","","","","","","","","","",""
"","","plant-game","0","144","1996032","0-0","","200","180","2","CORN CROP","Left","200","120","1","THISTLE WEED","experimental","59","1,2","180,156.65260798297072","2,1","CORN CROP,CORN CROP","120,190","1,1","THISTLE WEED,NETTLE WEED","20,20","20,20","10,10","20,20","0,0","20,20","20,20","20,20","10,10","20,20","0,0","20,20","0,0","4940,2670","-23.347392017029293,8.57993019248886","25.5660983103945,25.17788646001256","0","0"
"639","86","text","0","145","1996832","0-0","","","","","","","","","","","","","","","","","","","","","","","","","","","","","","","","","","","","",""
"","","plant-game","0","146","2024365","0-0","","200","160","2","CORN CROP","Left","200","120","8","THISTLE WEED","experimental","60","1,2,3,4,5,6,7,8","160,163.56497208176432,140,160.4959196142147,176.60005883239685,189.03623312341708,195.62812609802523,250.43086401434354","2,1,6,5,4,3,2,1","CORN CROP,CORN CROP,WHEAT CROP,WHEAT CROP,WHEAT CROP,WHEAT CROP,WHEAT CROP,WHEAT CROP","120,116.4423425287168,123.81608706723051,161.2979317591483,169.5420721381754,131.4777526689466,165.9880383279991,202.29389495871354","8,7,6,5,4,3,2,1","THISTLE WEED,THISTLE WEED,THISTLE WEED,THISTLE WEED,THISTLE WEED,THISTLE WEED,THISTLE WEED,THISTLE WEED","20,20,20,20,20,20,20,20","20,20,20,20,20,20,20,20","10,10,10,10,10,10,10,10","20,20,20,20,20,20,20,20","0,0,0,0,0,0,0,0","20,20,20,20,20,20,20,20","20,20,20,20,20,20,20,20","20,20,20,20,20,20,20,20","10,10,10,10,10,10,10,10","20,20,20,20,20,20,20,20","0,0,0,0,0,0,0,0","20,20,20,20,20,20,20,20","1,1,0,0,0,0,0,1","4137,381,7693,746,601,526,503,1943","3.56497208176432,-0.5314549725828508,20.495919614214703,16.104139218182144,12.436174291020231,6.591892974608143,54.802737916318314,13.244053967575498","-3.5576574712832136,7.373744538513716,37.4818446919178,8.244140379027087,-38.06431946922879,34.510285659052506,36.30585663071443,39.97040052115207","0","0"
"534","86","text","0","147","2025059","0-0","","","","","","","","","","","","","","","","","","","","","","","","","","","","","","","","","","","","",""
"","","plant-game","0","148","2045430","0-0","","200","120","8","WHEAT CROP","Left","200","190","1","THISTLE WEED","experimental","61","1,2,3,4,5,6,7,8","120,113.31193941187988,121.97081530614204,157.0570335621046,188.13567923606234,221.98345802786804,205.31783085491656,197.60723122601783","8,7,6,5,4,3,2,1","WHEAT CROP,WHEAT CROP,WHEAT CROP,WHEAT CROP,WHEAT CROP,WHEAT CROP,WHEAT CROP,WHEAT CROP","190,130,126.7392996690981,148.92352113616263,167.26845127023378,128.75038636358096,117.79583213582578,134.14642095102755","1,7,6,5,4,3,2,1","THISTLE WEED,NETTLE WEED,NETTLE WEED,NETTLE WEED,NETTLE WEED,NETTLE WEED,NETTLE WEED,NETTLE WEED","20,20,20,20,20,20,20,20","20,20,20,20,20,20,20,20","10,10,10,10,10,10,10,10","20,20,20,20,20,20,20,20","0,0,0,0,0,0,0,0","20,20,20,20,20,20,20,20","20,20,20,20,20,20,20,20","20,20,20,20,20,20,20,20","10,10,10,10,10,10,10,10","20,20,20,20,20,20,20,20","0,0,0,0,0,0,0,0","20,20,20,20,20,20,20,20","1,0,0,0,1,1,0,0","3514,2364,793,506,545,927,868,1388","-6.688060588120121,8.658875894262172,35.086218255962564,31.07864567395775,33.84777879180568,-16.665627172951474,-7.7105996288987235,17.73491938920795","26.610417621307477,-3.2607003309019014,22.184221467064532,18.344930134071156,-38.51806490665282,-10.954554227755187,16.350588815201775,14.77832648490213","0","0"
"480","86","text","0","149","2046012","0-0","","","","","","","","","","","","","","","","","","","","","","","","","","","","","","","","","","","","",""
"","","plant-game","0","150","2063726","0-0","","200","160","2","CORN CROP","Right","200","180","1","NETTLE WEED","experimental","62","1,2","180,190","1,1","NETTLE WEED,THISTLE WEED","160,131.39487314200247","2,1","CORN CROP,CORN CROP","0,0","20,20","10,10","20,20","20,20","20,20","0,0","20,20","10,10","20,20","20,20","20,20","0,1","6030,4668","8.404046443603233,42.39178709156961","-28.605126857997533,49.328674049474024","0","0"
"467","86","text","0","151","2064367","0-0","","","","","","","","","","","","","","","","","","","","","","","","","","","","","","","","","","","","",""
"","","plant-game","0","152","2085444","0-0","","200","180","1","WHEAT CROP","Right","200","120","4","THISTLE WEED","experimental","63","1,2,3,4","120,133.72678988792478,159.22410225213176,151.76979210827477","4,3,2,1","THISTLE WEED,THISTLE WEED,THISTLE WEED,THISTLE WEED","180,170,176.1884603809726,204.60763295190313","1,3,2,1","WHEAT CROP,CORN CROP,CORN CROP,CORN CROP","0,0,0,0","20,20,20,20","10,10,10,10","20,20,20,20","20,20,20,20","20,20,20,20","0,0,0,0","20,20,20,20","10,10,10,10","20,20,20,20","20,20,20,20","20,20,20,20","1,0,1,0","6321,2731,1255,1625","13.726789887924792,25.497312364206977,-7.454310143856997,22.013874450758607","4.17177667519023,6.188460380972596,28.419172570930535,-27.396484551869918","0","0"
"436","86","text","0","153","2086000","0-0","","","","","","","","","","","","","","","","","","","","","","","","","","","","","","","","","","","","",""
"","","plant-game","0","154","2117358","0-0","","200","160","8","CORN CROP","Right","200","180","2","NETTLE WEED","experimental","64","1,2,3,4,5,6,7,8","180,148.58485495943032,140,170.29313930043142,199.69558309223075,159.17878370152138,144.9998701919507,134.85821382690017","2,1,6,5,4,3,2,1","NETTLE WEED,NETTLE WEED,THISTLE WEED,THISTLE WEED,THISTLE WEED,THISTLE WEED,THISTLE WEED,THISTLE WEED","160,130.62931662790038,145.96692725875766,195.00760906932334,215.6330423893509,191.77219602354498,164.1574840983825,178.7352372964027","8,7,6,5,4,3,2,1","CORN CROP,CORN CROP,CORN CROP,CORN CROP,CORN CROP,CORN CROP,CORN CROP,CORN CROP","0,0,0,0,0,0,0,0","20,20,20,20,20,20,20,20","10,10,10,10,10,10,10,10","20,20,20,20,20,20,20,20","20,20,20,20,20,20,20,20","20,20,20,20,20,20,20,20","0,0,0,0,0,0,0,0","20,20,20,20,20,20,20,20","10,10,10,10,10,10,10,10","20,20,20,20,20,20,20,20","20,20,20,20,20,20,20,20","20,20,20,20,20,20,20,20","0,1,1,1,0,0,1,1","11867,1787,3288,1102,1260,1109,1202,1655","-31.41514504056969,49.47544974452556,30.293139300431427,29.40244379179932,-40.51679939070937,-14.178913509570696,-10.14165636505053,-3.5430814436283917","-29.370683372099617,15.33761063085729,49.04068181056569,20.625433320027543,-23.860846365805916,-27.614711925162485,14.577753198020183,1.86673750366311","0","0"
"15304","86","text","0","155","2132818","0-0","","","","","","","","","","","","","","","","","","","","","","","","","","","","","","","","","","","","",""
"","","plant-game","0","156","2158062","0-0","","200","190","8","CORN CROP","Right","200","190","2","NETTLE WEED","experimental","65","1,2,3,4,5,6,7,8","190,181.88952914450823,140,179.3796539720471,198.90606548770194,201.82043415885732,195.2945939328216,173.41156673387428","2,1,6,5,4,3,2,1","NETTLE WEED,NETTLE WEED,THISTLE WEED,THISTLE WEED,THISTLE WEED,THISTLE WEED,THISTLE WEED,THISTLE WEED","190,184.26787905364876,178.717086935523,184.44006075462843,176.8645907579055,186.370345062532,197.2291091146916,217.32688017703788","8,7,6,5,4,3,2,1","CORN CROP,CORN CROP,CORN CROP,CORN CROP,CORN CROP,CORN CROP,CORN CROP,CORN CROP","0,0,0,0,0,0,0,0","20,20,20,20,20,20,20,20","10,10,10,10,10,10,10,10","20,20,20,20,20,20,20,20","20,20,20,20,20,20,20,20","20,20,20,20,20,20,20,20","0,0,0,0,0,0,0,0","20,20,20,20,20,20,20,20","10,10,10,10,10,10,10,10","20,20,20,20,20,20,20,20","20,20,20,20,20,20,20,20","20,20,20,20,20,20,20,20","0,0,1,0,0,0,0,0","5834,1654,5835,627,850,765,965,838","-8.110470855491764,6.417843346220165,39.37965397204711,19.526411515654843,2.914368671155389,-6.525840226035714,-21.883027198947346,17.23917684492356","-5.732120946351245,-5.550792118125755,5.72297381910543,-7.575469996722955,9.505754304626516,10.8587640521596,20.09777106234627,7.812790661708756","0","0"
"525","86","text","0","157","2158693","0-0","","","","","","","","","","","","","","","","","","","","","","","","","","","","","","","","","","","","",""
"","","plant-game","0","158","2172041","0-0","","200","160","4","CORN CROP","Left","200","120","4","NETTLE WEED","experimental","66","1,2,3,4","160,179.81705529492615,192.02804808682805,176.1557705089743","4,3,2,1","CORN CROP,CORN CROP,CORN CROP,CORN CROP","120,151.33236648621215,197.2185836197903,214.94575535051175","4,3,2,1","NETTLE WEED,NETTLE WEED,NETTLE WEED,NETTLE WEED","20,20,20,20","20,20,20,20","10,10,10,10","20,20,20,20","0,0,0,0","20,20,20,20","20,20,20,20","20,20,20,20","10,10,10,10","20,20,20,20","0,0,0,0","20,20,20,20","0,0,1,1","4698,614,1991,1345","19.817055294926142,12.210992791901893,-15.872277577853737,-3.2449151139767576","31.33236648621216,45.88621713357815,17.727171730721444,3.5874036453389824","0","0"
"476","86","text","0","159","2172627","0-0","","","","","","","","","","","","","","","","","","","","","","","","","","","","","","","","","","","","",""
"","","plant-game","0","160","2195288","0-0","","200","160","1","CORN CROP","Left","200","180","8","THISTLE WEED","experimental","67","1,2,3,4,5,6,7,8","160,130,109.37542428117811,86.57966126365596,109.951837013024,105.33921107574913,143.44588583608333,171.1896108791437","1,7,6,5,4,3,2,1","CORN CROP,WHEAT CROP,WHEAT CROP,WHEAT CROP,WHEAT CROP,WHEAT CROP,WHEAT CROP,WHEAT CROP","180,226.83230195842947,206.8052826622812,198.84597846696016,212.28943498962923,189.2214647025753,159.3096389498749,164.92644264725925","8,7,6,5,4,3,2,1","THISTLE WEED,THISTLE WEED,THISTLE WEED,THISTLE WEED,THISTLE WEED,THISTLE WEED,THISTLE WEED,THISTLE WEED","20,20,20,20,20,20,20,20","20,20,20,20,20,20,20,20","10,10,10,10,10,10,10,10","20,20,20,20,20,20,20,20","0,0,0,0,0,0,0,0","20,20,20,20,20,20,20,20","20,20,20,20,20,20,20,20","20,20,20,20,20,20,20,20","10,10,10,10,10,10,10,10","20,20,20,20,20,20,20,20","0,0,0,0,0,0,0,0","20,20,20,20,20,20,20,20","0,1,1,1,1,0,0,0","3381,4221,1179,652,961,1691,2039,645","46.88049695328686,-20.624575718821895,-22.79576301752214,23.37217574936804,-4.612625937274875,38.1066747603342,27.743725043060344,2.542719827358887","46.832301958429454,-20.02701929614826,-7.959304195321039,13.443456522669058,-23.06797028705391,-29.911825752700395,5.616803697384336,8.430957384436834","0","0"
"324","86","text","0","161","2195752","0-0","","","","","","","","","","","","","","","","","","","","","","","","","","","","","","","","","","","","",""
"","","plant-game","0","162","2212120","0-0","","200","160","2","WHEAT CROP","Right","200","190","1","THISTLE WEED","experimental","68","1,2","190,190","1,1","THISTLE WEED,NETTLE WEED","160,165.4237232555334","2,1","WHEAT CROP,WHEAT CROP","0,0","20,20","10,10","20,20","20,20","20,20","0,0","20,20","10,10","20,20","20,20","20,20","0,1","2920,6231","-24.7947488928203,11.020101435871764","5.423723255533379,17.474125860909282","0","0"
"518","86","text","0","163","2212758","0-0","","","","","","","","","","","","","","","","","","","","","","","","","","","","","","","","","","","","",""
"","","plant-game","0","164","2230907","0-0","","200","160","4","WHEAT CROP","Right","200","190","2","NETTLE WEED","experimental","69","1,2,3,4","190,202.49592604259104,180,188.7449370758223","2,1,2,1","NETTLE WEED,NETTLE WEED,THISTLE WEED,THISTLE WEED","160,165.12139379172632,174.75319211205937,212.54704378412777","4,3,2,1","WHEAT CROP,WHEAT CROP,WHEAT CROP,WHEAT CROP","0,0,0,0","20,20,20,20","10,10,10,10","20,20,20,20","20,20,20,20","20,20,20,20","0,0,0,0","20,20,20,20","10,10,10,10","20,20,20,20","20,20,20,20","20,20,20,20","0,0,1,0","6903,1340,1772,1462","12.495926042591037,6.685863127963366,8.744937075822287,0.27811044220733855","5.121393791726314,9.631798320333038,37.793851672068385,0.930212895024639","0","0"
"642","86","text","0","165","2231669","0-0","","","","","","","","","","","","","","","","","","","","","","","","","","","","","","","","","","","","",""
"","","plant-game","0","166","2251935","0-0","","200","180","4","CORN CROP","Left","200","120","2","THISTLE WEED","experimental","70","1,2,3,4","180,216.74779490028433,213.77067204769924,239.3711388235463","4,3,2,1","CORN CROP,CORN CROP,CORN CROP,CORN CROP","120,145.83639123919716,180,188.6195857347036","2,1,2,1","THISTLE WEED,THISTLE WEED,NETTLE WEED,NETTLE WEED","20,20,20,20","20,20,20,20","10,10,10,10","20,20,20,20","0,0,0,0","20,20,20,20","20,20,20,20","20,20,20,20","10,10,10,10","20,20,20,20","0,0,0,0","20,20,20,20","0,1,1,1","6086,2235,3931,613","36.74779490028433,-2.9771228525850857,25.60046677584706,-11.547907586575722","25.836391239197148,-25.027604166577913,8.619585734703602,-11.219418781594285","0","0"
"731","86","text","0","167","2252826","0-0","","","","","","","","","","","","","","","","","","","","","","","","","","","","","","","","","","","","",""
"","","plant-game","0","168","2271254","0-0","","200","190","8","WHEAT CROP","Left","200","160","4","NETTLE WEED","experimental","71","1,2,3,4,5,6,7,8","190,163.84328819809534,197.7482415875728,216.34191831493794,227.94300655647996,260.6365857263338,270.3537558955096,264.1868372875629","8,7,6,5,4,3,2,1","WHEAT CROP,WHEAT CROP,WHEAT CROP,WHEAT CROP,WHEAT CROP,WHEAT CROP,WHEAT CROP,WHEAT CROP","160,179.70677895883395,203.8940067147986,217.93112404866744,160,151.86029634475722,168.42746981414402,157.84069924067438","4,3,2,1,4,3,2,1","NETTLE WEED,NETTLE WEED,NETTLE WEED,NETTLE WEED,THISTLE WEED,THISTLE WEED,THISTLE WEED,THISTLE WEED","20,20,20,20,20,20,20,20","20,20,20,20,20,20,20,20","10,10,10,10,10,10,10,10","20,20,20,20,20,20,20,20","0,0,0,0,0,0,0,0","20,20,20,20,20,20,20,20","20,20,20,20,20,20,20,20","20,20,20,20,20,20,20,20","10,10,10,10,10,10,10,10","20,20,20,20,20,20,20,20","0,0,0,0,0,0,0,0","20,20,20,20,20,20,20,20","1,1,1,0,1,1,1,1","3117,883,905,1484,2241,419,762,587","-26.15671180190467,33.904953389477456,18.593676727365146,11.601088241542005,32.693579169853855,9.717170169175821,-6.166918607946657,-0.429306896260459","19.70677895883395,24.187227755964628,14.037117333868858,26.673074202453453,-8.13970365524279,16.567173469386805,-10.58677057346964,-8.374521074758956","0","0"
"601","86","text","0","169","2272035","0-0","","","","","","","","","","","","","","","","","","","","","","","","","","","","","","","","","","","","",""
"","","plant-game","0","170","2290511","0-0","","200","160","8","CORN CROP","Left","200","190","1","NETTLE WEED","experimental","72","1,2,3,4,5,6,7,8","160,163.79222134099285,154.62753181222476,191.07543220914255,235.13285247305947,243.2453710974936,244.74263904865506,267.704031706219","8,7,6,5,4,3,2,1","CORN CROP,CORN CROP,CORN CROP,CORN CROP,CORN CROP,CORN CROP,CORN CROP,CORN CROP","190,130,146.61582521327523,127.53137632804429,118.47026093311304,147.1585397711046,127.91362255593981,82.11915290271673","1,7,6,5,4,3,2,1","NETTLE WEED,THISTLE WEED,THISTLE WEED,THISTLE WEED,THISTLE WEED,THISTLE WEED,THISTLE WEED,THISTLE WEED","20,20,20,20,20,20,20,20","20,20,20,20,20,20,20,20","10,10,10,10,10,10,10,10","20,20,20,20,20,20,20,20","0,0,0,0,0,0,0,0","20,20,20,20,20,20,20,20","20,20,20,20,20,20,20,20","20,20,20,20,20,20,20,20","10,10,10,10,10,10,10,10","20,20,20,20,20,20,20,20","0,0,0,0,0,0,0,0","20,20,20,20,20,20,20,20","1,0,0,0,1,1,1,1","2871,3505,511,548,1315,563,816,460","3.7922213409928505,-9.1646895287681,36.44790039691779,44.05742026391692,8.112518624434145,1.4972679511614715,22.961392657563927,-14.241054582577899","-11.357858851721602,16.615825213275244,-19.08444888523094,-9.06111539493125,28.68827883799158,-19.244917215164804,-45.794469653223075,2.9368035723817796","0","0"
"632","86","text","0","171","2291263","0-0","","","","","","","","","","","","","","","","","","","","","","","","","","","","","","","","","","","","",""
"","","plant-game","0","172","2309279","0-0","","200","190","4","CORN CROP","Right","200","160","2","THISTLE WEED","experimental","73","1,2,3,4","160,172.98791506114273,180,183.6800267636581","2,1,2,1","THISTLE WEED,THISTLE WEED,NETTLE WEED,NETTLE WEED","190,200.2996958954725,200.7188156109884,187.7960887299329","4,3,2,1","CORN CROP,CORN CROP,CORN CROP,CORN CROP","0,0,0,0","20,20,20,20","10,10,10,10","20,20,20,20","20,20,20,20","20,20,20,20","0,0,0,0","20,20,20,20","10,10,10,10","20,20,20,20","20,20,20,20","20,20,20,20","0,0,0,1","2749,537,5351,2005","12.98791506114274,32.926050547443246,3.680026763658118,9.45119986275106","10.299695895472503,0.41911971551589977,-12.922726881055492,-2.678302805184913","0","0"
"495","86","text","0","173","2309894","0-0","","","","","","","","","","","","","","","","","","","","","","","","","","","","","","","","","","","","",""
"","","plant-game","0","174","2331164","0-0","","200","120","2","CORN CROP","Left","200","180","4","THISTLE WEED","experimental","74","1,2,3,4","120,169.75933220336506,180,219.34976199451546","2,1,2,1","CORN CROP,CORN CROP,WHEAT CROP,WHEAT CROP","180,216.48445543264552,270.8934375562664,268.4572489111072","4,3,2,1","THISTLE WEED,THISTLE WEED,THISTLE WEED,THISTLE WEED","20,20,20,20","20,20,20,20","10,10,10,10","20,20,20,20","0,0,0,0","20,20,20,20","20,20,20,20","20,20,20,20","10,10,10,10","20,20,20,20","0,0,0,0","20,20,20,20","0,0,1,1","5947,1186,5133,1868","49.759332203365055,15.77821055559063,39.349761994515475,9.11917326996663","36.48445543264552,54.40898212362089,-2.436188645159235,-6.959971793235724","0","0"
"322","86","text","0","175","2331656","0-0","","","","","","","","","","","","","","","","","","","","","","","","","","","","","","","","","","","","",""
"","","plant-game","0","176","2356159","0-0","","200","120","8","CORN CROP","Left","200","120","2","THISTLE WEED","experimental","75","1,2,3,4,5,6,7,8","120,117.45961116623569,138.14739847232175,149.5745519108705,165.97584863255491,146.1470188611966,93.64029972119774,109.7101453837958","8,7,6,5,4,3,2,1","CORN CROP,CORN CROP,CORN CROP,CORN CROP,CORN CROP,CORN CROP,CORN CROP,CORN CROP","120,104.23313045119772,140,185.64231278651815,178.25098044881798,172.96268931772278,166.76215132432688,185.60617871635085","2,1,6,5,4,3,2,1","THISTLE WEED,THISTLE WEED,NETTLE WEED,NETTLE WEED,NETTLE WEED,NETTLE WEED,NETTLE WEED,NETTLE WEED","20,20,20,20,20,20,20,20","20,20,20,20,20,20,20,20","10,10,10,10,10,10,10,10","20,20,20,20,20,20,20,20","0,0,0,0,0,0,0,0","20,20,20,20,20,20,20,20","20,20,20,20,20,20,20,20","20,20,20,20,20,20,20,20","10,10,10,10,10,10,10,10","20,20,20,20,20,20,20,20","0,0,0,0,0,0,0,0","20,20,20,20,20,20,20,20","1,1,0,1,1,0,0,1","6191,466,3427,2064,595,688,1080,720","-2.540388833764306,20.687787306086072,11.427153438548737,16.401296721684417,-19.82882977135831,-52.50671913999888,16.06984566259807,-24.852323028678004","-15.766869548802278,4.137385309205394,45.64231278651814,-7.391332337700161,-5.288291131095214,-6.200537993395908,18.844027392023968,5.829668903105776","0","0"
"548","86","text","0","177","2356879","0-0","","","","","","","","","","","","","","","","","","","","","","","","","","","","","","","","","","","","",""
"","","plant-game","0","178","2381819","0-0","","200","160","8","WHEAT CROP","Left","200","120","2","NETTLE WEED","experimental","76","1,2,3,4,5,6,7,8","160,201.68790403843033,198.09856031805796,204.56278803504898,195.02919388399766,194.52624625110664,206.86393656629002,211.83243123708326","8,7,6,5,4,3,2,1","WHEAT CROP,WHEAT CROP,WHEAT CROP,WHEAT CROP,WHEAT CROP,WHEAT CROP,WHEAT CROP,WHEAT CROP","120,116.60412458366199,140,151.18956178329123,173.18502917747878,191.98378722229722,204.14726461264857,224.59371967835528","2,1,6,5,4,3,2,1","NETTLE WEED,NETTLE WEED,THISTLE WEED,THISTLE WEED,THISTLE WEED,THISTLE WEED,THISTLE WEED,THISTLE WEED","20,20,20,20,20,20,20,20","20,20,20,20,20,20,20,20","10,10,10,10,10,10,10,10","20,20,20,20,20,20,20,20","0,0,0,0,0,0,0,0","20,20,20,20,20,20,20,20","20,20,20,20,20,20,20,20","20,20,20,20,20,20,20,20","10,10,10,10,10,10,10,10","20,20,20,20,20,20,20,20","0,0,0,0,0,0,0,0","20,20,20,20,20,20,20,20","0,0,0,0,0,1,1,1","6646,1613,2825,1004,1056,1521,890,507","41.68790403843034,-3.589343720372362,6.4642277169910205,-9.533594151051332,-0.5029476328910185,12.337690315183385,4.968494670793244,19.77791740629722","-3.395875416338015,0.7128114542313249,11.189561783291234,21.995467394187568,18.798758044818435,12.16347739035134,20.446455065706722,-5.5621140650871475","0","0"
"538","86","text","0","179","2382477","0-0","","","","","","","","","","","","","","","","","","","","","","","","","","","","","","","","","","","","",""
"","","plant-game","0","180","2394391","0-0","","200","180","4","WHEAT CROP","Right","200","190","4","THISTLE WEED","experimental","77","1,2,3,4","190,177.57529645745268,166.32006806940316,163.74649239279685","4,3,2,1","THISTLE WEED,THISTLE WEED,THISTLE WEED,THISTLE WEED","180,178.24828768120372,197.6898998373191,199.71361170464724","4,3,2,1","WHEAT CROP,WHEAT CROP,WHEAT CROP,WHEAT CROP","0,0,0,0","20,20,20,20","10,10,10,10","20,20,20,20","20,20,20,20","20,20,20,20","0,0,0,0","20,20,20,20","10,10,10,10","20,20,20,20","20,20,20,20","20,20,20,20","0,0,0,1","4269,501,1150,1174","-12.424703542547313,-11.255228388049511,-2.57357567660631,18.811872270593096","-1.75171231879627,19.441612156115376,2.023711867328133,34.26487718844573","0","0"
"549","86","text","0","181","2395101","0-0","","","","","","","","","","","","","","","","","","","","","","","","","","","","","","","","","","","","",""
"","","plant-game","0","182","2413547","0-0","","200","160","1","CORN CROP","Right","200","190","8","NETTLE WEED","experimental","78","1,2,3,4,5,6,7,8","190,216.0466364240107,241.7305640070974,237.56000216451892,233.66576402938446,254.25306721851533,230.54292065514588,221.97635557865675","8,7,6,5,4,3,2,1","NETTLE WEED,NETTLE WEED,NETTLE WEED,NETTLE WEED,NETTLE WEED,NETTLE WEED,NETTLE WEED,NETTLE WEED","160,130,168.7590133278047,147.94976831951087,159.21515948968116,167.2720678019298,180.63301965127675,174.3678912406046","1,7,6,5,4,3,2,1","CORN CROP,WHEAT CROP,WHEAT CROP,WHEAT CROP,WHEAT CROP,WHEAT CROP,WHEAT CROP,WHEAT CROP","0,0,0,0,0,0,0,0","20,20,20,20,20,20,20,20","10,10,10,10,10,10,10,10","20,20,20,20,20,20,20,20","20,20,20,20,20,20,20,20","20,20,20,20,20,20,20,20","0,0,0,0,0,0,0,0","20,20,20,20,20,20,20,20","10,10,10,10,10,10,10,10","20,20,20,20,20,20,20,20","20,20,20,20,20,20,20,20","20,20,20,20,20,20,20,20","1,1,0,0,0,0,0,0","4007,2993,1091,410,442,673,531,448","26.046636424010696,25.683927583086703,-4.170561842578492,-3.8942381351344526,20.587303189130854,-23.71014656336946,-8.566565076489121,28.0177487217085","13.78098825036734,38.759013327804695,-20.809245008293836,11.265391170170302,8.056908312248662,13.36095184934696,-6.26512841067216,-7.682151788973818","0","0"
"443","86","text","0","183","2414130","0-0","","","","","","","","","","","","","","","","","","","","","","","","","","","","","","","","","","","","",""
"","","plant-game","0","184","2431621","0-0","","200","160","8","CORN CROP","Left","200","190","8","NETTLE WEED","experimental","79","1,2,3,4,5,6,7,8","160,146.81903042224718,154.33817485343602,166.30940899922695,190.75055801664004,190.86572683210275,163.7362171908101,152.41465704047215","8,7,6,5,4,3,2,1","CORN CROP,CORN CROP,CORN CROP,CORN CROP,CORN CROP,CORN CROP,CORN CROP,CORN CROP","190,175.25348314879727,161.4962134653726,174.52407730222956,203.18017190774725,197.90965477035866,237.74999793922598,258.68590588867374","8,7,6,5,4,3,2,1","NETTLE WEED,NETTLE WEED,NETTLE WEED,NETTLE WEED,NETTLE WEED,NETTLE WEED,NETTLE WEED,NETTLE WEED","20,20,20,20,20,20,20,20","20,20,20,20,20,20,20,20","10,10,10,10,10,10,10,10","20,20,20,20,20,20,20,20","0,0,0,0,0,0,0,0","20,20,20,20,20,20,20,20","20,20,20,20,20,20,20,20","20,20,20,20,20,20,20,20","10,10,10,10,10,10,10,10","20,20,20,20,20,20,20,20","0,0,0,0,0,0,0,0","20,20,20,20,20,20,20,20","1,1,1,1,1,1,1,1","4087,1112,846,863,1733,1404,728,844","-13.18096957775281,7.519144431188844,11.97123414579093,24.44114901741309,0.11516881546270523,-27.129509641292646,-11.321560150337957,2.019410724251824","-14.74651685120274,-13.757269683424695,13.027863836856975,28.656094605517705,-5.270517137388602,39.840343168867335,20.935907949447774,-9.228578222551398","0","0"
"555","86","text","0","185","2432306","0-0","","","","","","","","","","","","","","","","","","","","","","","","","","","","","","","","","","","","",""
"","","plant-game","0","186","2444851","0-0","","200","180","2","CORN CROP","Right","200","180","1","THISTLE WEED","experimental","80","1,2","180,190","1,1","THISTLE WEED,NETTLE WEED","180,166.44055310628374","2,1","CORN CROP,CORN CROP","0,0","20,20","10,10","20,20","20,20","20,20","0,0","20,20","10,10","20,20","20,20","20,20","0,0","2600,1932","-15.03665016779685,-13.425689963100758","-13.559446893716258,-36.754834334254596","0","0"
"459","86","text","0","187","2445388","0-0","","","","","","","","","","","","","","","","","","","","","","","","","","","","","","","","","","","","",""
"","","plant-game","0","188","2468346","0-0","","200","190","4","CORN CROP","Left","200","120","4","THISTLE WEED","experimental","81","1,2,3,4","190,226.97713748169267,222.3860763218721,225.44382895328326","4,3,2,1","CORN CROP,CORN CROP,CORN CROP,CORN CROP","120,158.87853381677508,145.3112715897504,141.68944141111828","4,3,2,1","THISTLE WEED,THISTLE WEED,THISTLE WEED,THISTLE WEED","20,20,20,20","20,20,20,20","10,10,10,10","20,20,20,20","0,0,0,0","20,20,20,20","20,20,20,20","20,20,20,20","10,10,10,10","20,20,20,20","0,0,0,0","20,20,20,20","0,1,1,1","15243,1914,619,524","36.97713748169266,-4.59106115982056,3.0577526314111427,21.577407235008614","38.87853381677508,-13.567262227024697,-3.6218301786321176,26.63591556476841","0","0"
"566","86","text","0","189","2469032","0-0","","","","","","","","","","","","","","","","","","","","","","","","","","","","","","","","","","","","",""
"","","plant-game","0","190","2485424","0-0","","200","180","2","WHEAT CROP","Right","200","180","8","NETTLE WEED","experimental","82","1,2,3,4,5,6,7,8","180,196.6977697810477,195.41576288127607,191.35045452706115,172.49291485650954,226.8272232532645,214.3194621390095,229.9695007357113","8,7,6,5,4,3,2,1","NETTLE WEED,NETTLE WEED,NETTLE WEED,NETTLE WEED,NETTLE WEED,NETTLE WEED,NETTLE WEED,NETTLE WEED","180,185.45220391101975,140,131.96887790298862,111.95980023161522,115.2849019730061,98.40411683934539,110.39692954081613","2,1,6,5,4,3,2,1","WHEAT CROP,WHEAT CROP,CORN CROP,CORN CROP,CORN CROP,CORN CROP,CORN CROP,CORN CROP","0,0,0,0,0,0,0,0","20,20,20,20,20,20,20,20","10,10,10,10,10,10,10,10","20,20,20,20,20,20,20,20","20,20,20,20,20,20,20,20","20,20,20,20,20,20,20,20","0,0,0,0,0,0,0,0","20,20,20,20,20,20,20,20","10,10,10,10,10,10,10,10","20,20,20,20,20,20,20,20","20,20,20,20,20,20,20,20","20,20,20,20,20,20,20,20","1,0,0,0,0,0,0,0","2897,1096,786,617,755,1076,513,749","16.69776978104769,-1.2820068997716265,-4.065308354214911,-18.857539670551596,54.334308396754956,-12.507761114255015,15.65003859670181,-9.74971763264781","5.4522039110197476,19.57661041251448,-8.031122097011385,-20.009077671373404,3.3251017413908817,-16.880785133660712,11.99281270147074,-1.7369221943032132","0","0"
"946","86","text","0","191","2486520","0-0","","","","","","","","","","","","","","","","","","","","","","","","","","","","","","","","","","","","",""
"","","plant-game","0","192","2495091","0-0","","200","120","1","CORN CROP","Left","200","190","1","THISTLE WEED","experimental","83","1","120","1","CORN CROP","190","1","THISTLE WEED","20","20","10","20","0","20","20","20","10","20","0","20","1","4884","-34.87227980530734","1.5839208827443656","0","0"
"448","86","text","0","193","2495659","0-0","","","","","","","","","","","","","","","","","","","","","","","","","","","","","","","","","","","","",""
