"rt","key_press","trial_type","trial_index","trial_index_global","time_elapsed","internal_chunk_id","responses","experimental_goal_height","experimental_start_height","experimental_weeks_total","experimental_crop_type","experimental_crop_side","fixed_goal_height","fixed_start_height","fixed_weeks_total","fixed_crop_type","trial_kind","trial_number","stage","left_current_height","left_weeks_remaining","left_crop_type","right_current_height","right_weeks_remaining","right_crop_type","mean_left_growth_given_left","sd_left_growth_given_left","mean_left_growth_given_middle","sd_left_growth_given_middle","mean_left_growth_given_right","sd_left_growth_given_right","mean_right_growth_given_left","sd_right_growth_given_left","mean_right_growth_given_middle","sd_right_growth_given_middle","mean_right_growth_given_right","sd_right_growth_given_right","response","response_time","left_growth","right_growth","other_key_pressed","mouse_clicked"
"2525733","77","text","0","0","2525796","0-0","","","","","","","","","","","","","","","","","","","","","","","","","","","","","","","","","","","","",""
"7274","","survey-text","0","1","2534091","0-0","{""Q0"":""22""}","","","","","","","","","","","","","","","","","","","","","","","","","","","","","","","","","","","",""
"4216","86","text","0","2","4278","0-0","","","","","","","","","","","","","","","","","","","","","","","","","","","","","","","","","","","","",""
"","","plant-game","0","3","91890","0-0","","200","120","8","WHEAT CROP","Left","200","120","8","NETTLE WEED","practice","1","1,2,3,4,5,6,7,8","120,105.66682474224343,84.9435757577072,92.10971960279468,79.26941918644911,128.7720505861423,153.77873063586833,180.438618532164","8,7,6,5,4,3,2,1","WHEAT CROP,WHEAT CROP,WHEAT CROP,WHEAT CROP,WHEAT CROP,WHEAT CROP,WHEAT CROP,WHEAT CROP","120,123.49763782601916,91.20189578756413,127.71463874511196,107.5039069909748,127.23504243113514,138.0920680086536,156.48793545352095","8,7,6,5,4,3,2,1","NETTLE WEED,NETTLE WEED,NETTLE WEED,NETTLE WEED,NETTLE WEED,NETTLE WEED,NETTLE WEED,NETTLE WEED","20,20,20,20,20,20,20,20","20,20,20,20,20,20,20,20","10,10,10,10,10,10,10,10","20,20,20,20,20,20,20,20","0,0,0,0,0,0,0,0","20,20,20,20,20,20,20,20","20,20,20,20,20,20,20,20","20,20,20,20,20,20,20,20","10,10,10,10,10,10,10,10","20,20,20,20,20,20,20,20","0,0,0,0,0,0,0,0","20,20,20,20,20,20,20,20","1,1,1,1,0,0,0,0","23074,16138,7293,2104,1099,3259,2616,2029","-14.333175257756563,-20.72324898453624,7.166143845087492,-12.840300416345574,49.502631399693215,25.006680049726018,26.659887896295693,21.409947307741124","3.4976378260191616,-32.295742038455025,36.512742957547836,-20.210731754137164,19.731135440160347,10.857025577518444,18.395867444867363,35.28422369411281","0","0"
"1405","86","text","0","4","93435","0-0","","","","","","","","","","","","","","","","","","","","","","","","","","","","","","","","","","","","",""
"","","plant-game","0","5","123755","0-0","","200","160","4","WHEAT CROP","Left","200","160","4","NETTLE WEED","practice","2","1,2,3,4","160,189.7634318563875,245.969412804863,253.89773835591419","4,3,2,1","WHEAT CROP,WHEAT CROP,WHEAT CROP,WHEAT CROP","160,152.5999290377746,189.58999785870384,197.00797535706513","4,3,2,1","NETTLE WEED,NETTLE WEED,NETTLE WEED,NETTLE WEED","20,20,20,20","20,20,20,20","10,10,10,10","20,20,20,20","0,0,0,0","20,20,20,20","20,20,20,20","20,20,20,20","10,10,10,10","20,20,20,20","0,0,0,0","20,20,20,20","1,0,1,1","6580,4772,4228,1130","29.7634318563875,56.205980948475485,7.928325551051181,6.619473153222854","-7.400070962225404,36.99006882092925,7.417977498361284,13.934351576684234","0","0"
"601","86","text","0","6","124496","0-0","","","","","","","","","","","","","","","","","","","","","","","","","","","","","","","","","","","","",""
"","","plant-game","0","7","140680","0-0","","200","180","2","WHEAT CROP","Right","200","180","2","NETTLE WEED","practice","3","1,2","180,156.0102796047036","2,1","NETTLE WEED,NETTLE WEED","180,150.53811269103687","2,1","WHEAT CROP,WHEAT CROP","0,0","20,20","10,10","20,20","20,20","20,20","0,0","20,20","10,10","20,20","20,20","20,20","0,1","7791,1020","-23.989720395296388,17.082265262309356","-29.461887308963135,25.955075410693482","0","0"
"544","86","text","0","8","141349","0-0","","","","","","","","","","","","","","","","","","","","","","","","","","","","","","","","","","","","",""
"","","plant-game","0","9","159950","0-0","","200","190","1","CORN CROP","Right","200","190","1","NETTLE WEED","practice","4","1","190","1","NETTLE WEED","190","1","CORN CROP","0","20","10","20","20","20","0","20","10","20","20","20","1","9572","8.111537285903005","47.04242971169052","0","0"
"686","86","text","0","10","160817","0-0","","","","","","","","","","","","","","","","","","","","","","","","","","","","","","","","","","","","",""
"","","plant-game","0","11","180376","0-0","","200","120","8","WHEAT CROP","Left","200","160","8","THISTLE WEED","practice","5","1,2,3,4,5,6,7,8","120,106.15013389436515,90.58804152222635,84.19118814474908,88.17903394946892,92.26745154210994,83.84350195599671,103.10152188108935","8,7,6,5,4,3,2,1","WHEAT CROP,WHEAT CROP,WHEAT CROP,WHEAT CROP,WHEAT CROP,WHEAT CROP,WHEAT CROP,WHEAT CROP","160,125.27824698330673,112.24258135307477,126.39370688535114,135.70441501109303,123.86525815376939,107.44732276015765,141.9965234951462","8,7,6,5,4,3,2,1","THISTLE WEED,THISTLE WEED,THISTLE WEED,THISTLE WEED,THISTLE WEED,THISTLE WEED,THISTLE WEED,THISTLE WEED","20,20,20,20,20,20,20,20","20,20,20,20,20,20,20,20","10,10,10,10,10,10,10,10","20,20,20,20,20,20,20,20","0,0,0,0,0,0,0,0","20,20,20,20,20,20,20,20","20,20,20,20,20,20,20,20","20,20,20,20,20,20,20,20","10,10,10,10,10,10,10,10","20,20,20,20,20,20,20,20","0,0,0,0,0,0,0,0","20,20,20,20,20,20,20,20","1,1,1,1,1,0,0,0","4317,949,422,834,2297,847,920,1318","-13.849866105634838,-15.562092372138812,-6.396853377477277,3.987845804719836,4.088417592641019,-8.42394958611322,19.258019925092643,21.041969142673995","-34.72175301669326,-13.035665630231959,14.151125532276366,9.310708125741911,-11.839156857323644,-16.417935393611742,34.54920073498854,-0.7470671098806392","0","0"
"236","86","text","0","12","180755","0-0","","","","","","","","","","","","","","","","","","","","","","","","","","","","","","","","","","","","",""
"","","plant-game","0","13","197298","0-0","","200","180","4","CORN CROP","Right","200","160","4","THISTLE WEED","practice","6","1,2,3,4","160,179.63502870388757,174.090491938714,192.42003400104167","4,3,2,1","THISTLE WEED,THISTLE WEED,THISTLE WEED,THISTLE WEED","180,196.11315956500863,195.46255705699014,191.4028323736368","4,3,2,1","CORN CROP,CORN CROP,CORN CROP,CORN CROP","0,0,0,0","20,20,20,20","10,10,10,10","20,20,20,20","20,20,20,20","20,20,20,20","0,0,0,0","20,20,20,20","10,10,10,10","20,20,20,20","20,20,20,20","20,20,20,20","0,0,0,0","2877,2988,1747,2446","19.635028703887567,-5.544536765173582,18.329542062327672,-0.15098764253208938","16.11315956500863,-0.650602508018483,-4.059724683353336,22.242309635846254","0","0"
"506","86","text","0","14","197932","0-0","","","","","","","","","","","","","","","","","","","","","","","","","","","","","","","","","","","","",""
"","","plant-game","0","15","209722","0-0","","200","180","2","WHEAT CROP","Right","200","190","2","THISTLE WEED","practice","7","1,2","190,169.6502254238678","2,1","THISTLE WEED,THISTLE WEED","180,165.87202633310008","2,1","WHEAT CROP,WHEAT CROP","0,0","20,20","10,10","20,20","20,20","20,20","0,0","20,20","10,10","20,20","20,20","20,20","0,1","3737,853","-20.349774576132216,-10.852980781383643","-14.127973666899907,21.706500838654918","0","0"
"817","86","text","0","16","210679","0-0","","","","","","","","","","","","","","","","","","","","","","","","","","","","","","","","","","","","",""
"","","plant-game","0","17","241008","0-0","","200","120","4","WHEAT CROP","Left","200","120","8","THISTLE WEED","practice","8","1,2,3,4,5,6,7,8","120,102.37170076017472,115.15344499665215,94.04346334947502,160,164.35578353981225,179.58879393873696,240.29438651757226","4,3,2,1,4,3,2,1","WHEAT CROP,WHEAT CROP,WHEAT CROP,WHEAT CROP,CORN CROP,CORN CROP,CORN CROP,CORN CROP","120,110.67692824361461,102.64423571316372,91.5903282206464,117.49714022585815,134.98331971182512,138.288510985547,158.79732373762823","8,7,6,5,4,3,2,1","THISTLE WEED,THISTLE WEED,THISTLE WEED,THISTLE WEED,THISTLE WEED,THISTLE WEED,THISTLE WEED,THISTLE WEED","20,20,20,20,20,20,20,20","20,20,20,20,20,20,20,20","10,10,10,10,10,10,10,10","20,20,20,20,20,20,20,20","0,0,0,0,0,0,0,0","20,20,20,20,20,20,20,20","20,20,20,20,20,20,20,20","20,20,20,20,20,20,20,20","10,10,10,10,10,10,10,10","20,20,20,20,20,20,20,20","0,0,0,0,0,0,0,0","20,20,20,20,20,20,20,20","1,0,0,0,0,0,0,0","6520,2010,934,995,7181,862,831,1117","-17.628299239825285,12.781744236477437,-21.109981647177143,17.324402326351375,4.355783539812247,15.233010398924698,60.70559257883531,10.512582264668836","-9.323071756385385,-8.032692530450888,-11.053907492517318,25.906812005211748,17.486179485966975,3.305191273721885,20.508812752081226,9.13556791483195","0","0"
"1217","86","text","0","18","242365","0-0","","","","","","","","","","","","","","","","","","","","","","","","","","","","","","","","","","","","",""
"","","plant-game","0","19","286356","0-0","","200","160","4","CORN CROP","Left","200","160","2","THISTLE WEED","practice","9","1,2,3,4","160,181.24346962499706,194.01676612867846,187.86141762980736","4,3,2,1","CORN CROP,CORN CROP,CORN CROP,CORN CROP","160,183.683646532548,180,157.04872000971582","2,1,2,1","THISTLE WEED,THISTLE WEED,NETTLE WEED,NETTLE WEED","20,20,20,20","20,20,20,20","10,10,10,10","20,20,20,20","0,0,0,0","20,20,20,20","20,20,20,20","20,20,20,20","10,10,10,10","20,20,20,20","0,0,0,0","20,20,20,20","0,0,1,0","2689,3652,8275,920","21.243469624997058,12.7732965036814,-6.155348498871096,10.94488970124465","23.683646532548014,-12.28345488109263,-22.95127999028417,17.503011798485712","0","0"
"634","86","text","0","20","287146","0-0","","","","","","","","","","","","","","","","","","","","","","","","","","","","","","","","","","","","",""
"","","plant-game","0","21","314449","0-0","","200","180","2","WHEAT CROP","Right","200","180","1","THISTLE WEED","practice","10","1,2","180,190","1,1","THISTLE WEED,NETTLE WEED","180,192.97461175080306","2,1","WHEAT CROP,WHEAT CROP","0,0","20,20","10,10","20,20","20,20","20,20","0,0","20,20","10,10","20,20","20,20","20,20","1,1","5302,2593","11.172111382053835,15.692446826138312","12.974611750803072,-9.957348050860247","0","0"
"797","86","text","0","22","315406","0-0","","","","","","","","","","","","","","","","","","","","","","","","","","","","","","","","","","","","",""
"","","plant-game","0","23","356750","0-0","","200","120","8","CORN CROP","Right","200","160","4","NETTLE WEED","practice","11","1,2,3,4,5,6,7,8","160,214.34992895980722,205.96427571166703,185.14211320306396,160,183.44964725222832,190.09989407543682,218.82845932297664","4,3,2,1,4,3,2,1","NETTLE WEED,NETTLE WEED,NETTLE WEED,NETTLE WEED,THISTLE WEED,THISTLE WEED,THISTLE WEED,THISTLE WEED","120,108.58855811520446,162.93629724176552,169.07660084732922,178.4664068018903,192.15477941279326,194.04272994835108,209.06279731519479","8,7,6,5,4,3,2,1","CORN CROP,CORN CROP,CORN CROP,CORN CROP,CORN CROP,CORN CROP,CORN CROP,CORN CROP","0,0,0,0,0,0,0,0","20,20,20,20,20,20,20,20","10,10,10,10,10,10,10,10","20,20,20,20,20,20,20,20","20,20,20,20,20,20,20,20","20,20,20,20,20,20,20,20","0,0,0,0,0,0,0,0","20,20,20,20,20,20,20,20","10,10,10,10,10,10,10,10","20,20,20,20,20,20,20,20","20,20,20,20,20,20,20,20","20,20,20,20,20,20,20,20","1,1,0,0,1,0,0,0","7350,2609,3208,3659,1307,1663,1611,5892","54.34992895980721,-8.385653248140187,-20.82216250860308,8.799933894805127,23.449647252228317,6.650246823208511,28.728565247539834,-6.293370322006993","-11.411441884795536,54.347739126561045,6.140303605563711,9.389805954561082,13.68837261090297,1.8879505355578277,15.02006736684371,3.1696389849372677","0","0"
"477","86","text","0","24","357397","0-0","","","","","","","","","","","","","","","","","","","","","","","","","","","","","","","","","","","","",""
"","","plant-game","0","25","383614","0-0","","200","180","2","CORN CROP","Right","200","160","4","THISTLE WEED","practice","12","1,2,3,4","160,171.63103489224122,166.9546820972386,137.30214253719865","4,3,2,1","THISTLE WEED,THISTLE WEED,THISTLE WEED,THISTLE WEED","180,192.0205237437905,180,213.28781000665384","2,1,2,1","CORN CROP,CORN CROP,WHEAT CROP,WHEAT CROP","0,0,0,0","20,20,20,20","10,10,10,10","20,20,20,20","20,20,20,20","20,20,20,20","0,0,0,0","20,20,20,20","10,10,10,10","20,20,20,20","20,20,20,20","20,20,20,20","1,0,1,1","3891,1030,6905,1363","11.631034892241214,-4.676352795002626,-29.652539560039948,29.147383619093134","12.020523743790516,6.043336929804205,33.28781000665386,-14.705353616905768","0","0"
"2630","86","text","0","26","386394","0-0","","","","","","","","","","","","","","","","","","","","","","","","","","","","","","","","","","","","",""
"18214","86","text","0","27","405754","0-0","","","","","","","","","","","","","","","","","","","","","","","","","","","","","","","","","","","","",""
"","","plant-game","0","28","424545","0-0","","200","120","2","WHEAT CROP","Left","200","160","1","THISTLE WEED","experimental","1","1,2","120,140.14920981056386","2,1","WHEAT CROP,WHEAT CROP","160,190","1,1","THISTLE WEED,NETTLE WEED","20,20","20,20","10,10","20,20","0,0","20,20","20,20","20,20","10,10","20,20","0,0","20,20","0,0","7382,1617","20.14920981056387,0.5898916659390814","15.00308539494101,39.293067039165194","0","0"
"883","86","text","0","29","425568","0-0","","","","","","","","","","","","","","","","","","","","","","","","","","","","","","","","","","","","",""
"","","plant-game","0","30","458914","0-0","","200","160","2","CORN CROP","Left","200","180","4","NETTLE WEED","experimental","2","1,2,3,4","160,125.88471904195843,180,185.34547769974031","2,1,2,1","CORN CROP,CORN CROP,WHEAT CROP,WHEAT CROP","180,203.37954665284227,184.15488359234695,248.3616661249207","4,3,2,1","NETTLE WEED,NETTLE WEED,NETTLE WEED,NETTLE WEED","20,20,20,20","20,20,20,20","10,10,10,10","20,20,20,20","0,0,0,0","20,20,20,20","20,20,20,20","20,20,20,20","10,10,10,10","20,20,20,20","0,0,0,0","20,20,20,20","0,1,0,0","5895,7659,6992,3640","-34.115280958041566,17.66087866651935,5.345477699740311,42.78155188443938","23.37954665284226,-19.224663060495303,64.20678253257375,22.220808033644833","0","0"
"503","86","text","0","31","459577","0-0","","","","","","","","","","","","","","","","","","","","","","","","","","","","","","","","","","","","",""
"","","plant-game","0","32","486472","0-0","","200","180","1","WHEAT CROP","Right","200","120","4","THISTLE WEED","experimental","3","1,2,3,4","120,133.7018239536077,129.17171051348393,126.40565028830459","4,3,2,1","THISTLE WEED,THISTLE WEED,THISTLE WEED,THISTLE WEED","180,170,226.54096684119978,237.6919292736596","1,3,2,1","WHEAT CROP,CORN CROP,CORN CROP,CORN CROP","0,0,0,0","20,20,20,20","10,10,10,10","20,20,20,20","20,20,20,20","20,20,20,20","0,0,0,0","20,20,20,20","10,10,10,10","20,20,20,20","20,20,20,20","20,20,20,20","0,1,0,0","5572,6791,4012,1800","13.701823953607681,-4.530113440123763,-2.7660602251793436,8.617265466607979","11.261394420073177,56.54096684119978,11.150962432459846,7.0696029896732915","0","0"
"818","86","text","0","33","487430","0-0","","","","","","","","","","","","","","","","","","","","","","","","","","","","","","","","","","","","",""
"","","plant-game","0","34","497185","0-0","","200","180","1","CORN CROP","Left","200","160","1","THISTLE WEED","experimental","4","1","180","1","CORN CROP","160","1","THISTLE WEED","20","20","10","20","0","20","20","20","10","20","0","20","0","6326","45.97282695409117","5.630718379949968","0","0"
"607","86","text","0","35","497952","0-0","","","","","","","","","","","","","","","","","","","","","","","","","","","","","","","","","","","","",""
"","","plant-game","0","36","523360","0-0","","200","120","2","CORN CROP","Right","200","190","4","NETTLE WEED","experimental","5","1,2,3,4","190,198.64856831591138,236.97888928336158,281.23545091160406","4,3,2,1","NETTLE WEED,NETTLE WEED,NETTLE WEED,NETTLE WEED","120,97.62332705636908,180,199.80799834358933","2,1,2,1","CORN CROP,CORN CROP,WHEAT CROP,WHEAT CROP","0,0,0,0","20,20,20,20","10,10,10,10","20,20,20,20","20,20,20,20","20,20,20,20","0,0,0,0","20,20,20,20","10,10,10,10","20,20,20,20","20,20,20,20","20,20,20,20","0,1,1,1","9609,3228,2506,1419","8.648568315911385,38.33032096745019,44.256561628242466,35.58880954970438","-22.376672943630915,14.248929486809336,19.807998343589343,-6.4134989080351446","0","0"
"440","86","text","0","37","523950","0-0","","","","","","","","","","","","","","","","","","","","","","","","","","","","","","","","","","","","",""
"","","plant-game","0","38","546883","0-0","","200","180","1","CORN CROP","Left","200","190","4","THISTLE WEED","experimental","6","1,2,3,4","180,170,164.63952209738574,161.29572908474125","1,3,2,1","CORN CROP,WHEAT CROP,WHEAT CROP,WHEAT CROP","190,194.13150689057366,215.75390533101603,193.46283846898157","4,3,2,1","THISTLE WEED,THISTLE WEED,THISTLE WEED,THISTLE WEED","20,20,20,20","20,20,20,20","10,10,10,10","20,20,20,20","0,0,0,0","20,20,20,20","20,20,20,20","20,20,20,20","10,10,10,10","20,20,20,20","0,0,0,0","20,20,20,20","0,1,1,1","6161,4480,2109,1445","1.5139601947043744,-5.360477902614257,-3.3437930126444924,-1.3657274269089084","4.131506890573666,21.622398440442375,-22.291066862034462,-45.81461067984443","0","0"
"457","86","text","0","39","547490","0-0","","","","","","","","","","","","","","","","","","","","","","","","","","","","","","","","","","","","",""
"","","plant-game","0","40","576525","0-0","","200","180","2","CORN CROP","Right","200","190","4","NETTLE WEED","experimental","7","1,2,3,4","190,207.18684592093155,202.22204841430002,240.15799460335668","4,3,2,1","NETTLE WEED,NETTLE WEED,NETTLE WEED,NETTLE WEED","180,202.22175465493083,180,215.08140222204926","2,1,2,1","CORN CROP,CORN CROP,WHEAT CROP,WHEAT CROP","0,0,0,0","20,20,20,20","10,10,10,10","20,20,20,20","20,20,20,20","20,20,20,20","0,0,0,0","20,20,20,20","10,10,10,10","20,20,20,20","20,20,20,20","20,20,20,20","1,1,1,1","9907,4263,4989,2281","17.18684592093156,-4.964797506631534,37.93594618905667,35.000272893816955","22.221754654930844,25.45960125071052,35.08140222204927,37.21160336757355","0","0"
"567","86","text","0","41","577202","0-0","","","","","","","","","","","","","","","","","","","","","","","","","","","","","","","","","","","","",""
"","","plant-game","0","42","609451","0-0","","200","180","8","CORN CROP","Right","200","180","4","NETTLE WEED","experimental","8","1,2,3,4,5,6,7,8","180,166.34377109245895,166.87146749380034,209.91093591769356,160,152.82944256884662,145.65081790395715,164.79031907094628","4,3,2,1,4,3,2,1","NETTLE WEED,NETTLE WEED,NETTLE WEED,NETTLE WEED,THISTLE WEED,THISTLE WEED,THISTLE WEED,THISTLE WEED","180,192.25297529706137,194.3761490740087,217.7049696620089,230.88089489049435,270.6601904278209,286.496421142935,323.62039117293136","8,7,6,5,4,3,2,1","CORN CROP,CORN CROP,CORN CROP,CORN CROP,CORN CROP,CORN CROP,CORN CROP,CORN CROP","0,0,0,0,0,0,0,0","20,20,20,20,20,20,20,20","10,10,10,10,10,10,10,10","20,20,20,20,20,20,20,20","20,20,20,20,20,20,20,20","20,20,20,20,20,20,20,20","0,0,0,0,0,0,0,0","20,20,20,20,20,20,20,20","10,10,10,10,10,10,10,10","20,20,20,20,20,20,20,20","20,20,20,20,20,20,20,20","20,20,20,20,20,20,20,20","1,1,1,0,1,1,1,1","6293,1419,1896,5753,3580,2546,1136,720","-13.656228907541042,0.5276964013413803,43.03946842389321,26.34142904072352,-7.170557431153384,-7.178624664889462,19.13950116698914,11.260389271911409","12.252975297061354,2.1231737769473433,23.328820588000188,13.175925228485458,39.77929553732656,15.836230715114096,37.12397002999634,57.9543537209614","0","0"
"474","86","text","0","43","610081","0-0","","","","","","","","","","","","","","","","","","","","","","","","","","","","","","","","","","","","",""
"","","plant-game","0","44","640993","0-0","","200","120","4","WHEAT CROP","Left","200","180","8","THISTLE WEED","experimental","9","1,2,3,4,5,6,7,8","120,112.64755243021439,154.19579718330533,205.38331205057847,160,199.1051459553878,197.19961847354222,207.32006193490446","4,3,2,1,4,3,2,1","WHEAT CROP,WHEAT CROP,WHEAT CROP,WHEAT CROP,CORN CROP,CORN CROP,CORN CROP,CORN CROP","180,198.27830847261876,225.50958546052328,220.28203902564178,216.33559263079084,227.17281130397458,233.55377032206746,249.56430121518252","8,7,6,5,4,3,2,1","THISTLE WEED,THISTLE WEED,THISTLE WEED,THISTLE WEED,THISTLE WEED,THISTLE WEED,THISTLE WEED,THISTLE WEED","20,20,20,20,20,20,20,20","20,20,20,20,20,20,20,20","10,10,10,10,10,10,10,10","20,20,20,20,20,20,20,20","0,0,0,0,0,0,0,0","20,20,20,20,20,20,20,20","20,20,20,20,20,20,20,20","20,20,20,20,20,20,20,20","10,10,10,10,10,10,10,10","20,20,20,20,20,20,20,20","0,0,0,0,0,0,0,0","20,20,20,20,20,20,20,20","1,0,0,0,0,0,0,0","6040,3799,616,1099,3457,999,3881,801","-7.352447569785614,41.54824475309093,51.18751486727313,12.146530170206756,39.10514595538778,-1.9055274818455814,10.120443461362248,7.007343788877538","18.278308472618765,27.231276987904536,-5.227546434881493,-3.946446394850934,10.837218673183747,6.3809590180928755,16.01053089311507,36.284096719213316","1","0"
"707","86","text","0","45","641850","0-0","","","","","","","","","","","","","","","","","","","","","","","","","","","","","","","","","","","","",""
"","","plant-game","0","46","665513","0-0","","200","120","4","WHEAT CROP","Left","200","190","8","NETTLE WEED","experimental","10","1,2,3,4,5,6,7,8","120,124.84118633730887,143.3523608788915,145.99829372842,160,174.6962833914308,193.60073172635188,245.49736590976855","4,3,2,1,4,3,2,1","WHEAT CROP,WHEAT CROP,WHEAT CROP,WHEAT CROP,CORN CROP,CORN CROP,CORN CROP,CORN CROP","190,188.09766513812264,210.30942852657603,220.54523506284863,201.00011595258704,180.94679604990654,245.63029688302322,233.67068579765044","8,7,6,5,4,3,2,1","NETTLE WEED,NETTLE WEED,NETTLE WEED,NETTLE WEED,NETTLE WEED,NETTLE WEED,NETTLE WEED,NETTLE WEED","20,20,20,20,20,20,20,20","20,20,20,20,20,20,20,20","10,10,10,10,10,10,10,10","20,20,20,20,20,20,20,20","0,0,0,0,0,0,0,0","20,20,20,20,20,20,20,20","20,20,20,20,20,20,20,20","20,20,20,20,20,20,20,20","10,10,10,10,10,10,10,10","20,20,20,20,20,20,20,20","0,0,0,0,0,0,0,0","20,20,20,20,20,20,20,20","0,0,0,0,0,0,0,0","5683,516,611,2312,2907,969,759,1045","4.841186337308876,18.511174541582605,2.645932849528524,21.858448592515074,14.696283391430798,18.90444833492109,51.896634183416666,49.96332670883222","-1.902334861877364,22.211763388453384,10.235806536272618,-19.545119110261602,-20.053319902680514,64.68350083311667,-11.95961108537277,-1.1152870984447283","0","0"
"751","86","text","0","47","666394","0-0","","","","","","","","","","","","","","","","","","","","","","","","","","","","","","","","","","","","",""
"","","plant-game","0","48","677421","0-0","","200","190","1","CORN CROP","Left","200","120","2","THISTLE WEED","experimental","11","1,2","190,190","1,1","CORN CROP,WHEAT CROP","120,159.9596926911167","2,1","THISTLE WEED,THISTLE WEED","20,20","20,20","10,10","20,20","0,0","20,20","20,20","20,20","10,10","20,20","0,0","20,20","0,0","2902,2485","10.224111721831209,38.115995002124166","39.95969269111669,2.950781398349239","0","0"
"582","86","text","0","49","678143","0-0","","","","","","","","","","","","","","","","","","","","","","","","","","","","","","","","","","","","",""
"","","plant-game","0","50","699882","0-0","","200","120","8","WHEAT CROP","Left","200","190","8","THISTLE WEED","experimental","12","1,2,3,4,5,6,7,8","120,161.30132847173138,198.72111702610277,210.10466616851855,191.29037704647942,220.7461869042525,215.96054719304212,250.87229545531034","8,7,6,5,4,3,2,1","WHEAT CROP,WHEAT CROP,WHEAT CROP,WHEAT CROP,WHEAT CROP,WHEAT CROP,WHEAT CROP,WHEAT CROP","190,194.5749389608081,216.57101818524785,246.52702751906207,240.544400050198,262.40651259477676,245.36567870413367,289.4366657871917","8,7,6,5,4,3,2,1","THISTLE WEED,THISTLE WEED,THISTLE WEED,THISTLE WEED,THISTLE WEED,THISTLE WEED,THISTLE WEED,THISTLE WEED","20,20,20,20,20,20,20,20","20,20,20,20,20,20,20,20","10,10,10,10,10,10,10,10","20,20,20,20,20,20,20,20","0,0,0,0,0,0,0,0","20,20,20,20,20,20,20,20","20,20,20,20,20,20,20,20","20,20,20,20,20,20,20,20","10,10,10,10,10,10,10,10","20,20,20,20,20,20,20,20","0,0,0,0,0,0,0,0","20,20,20,20,20,20,20,20","0,0,0,1,0,1,0,1","7663,2471,1687,980,574,943,1348,507","41.301328471731395,37.41978855437138,11.383549142415777,-18.814289122039142,29.455809857773087,-4.785639711210381,34.911748262268205,8.624358048124051","4.574938960808124,21.996079224439725,29.95600933381421,-5.982627468864081,21.86211254457877,-17.040833890643082,44.070987083058014,-22.338534661478118","0","0"
"743","86","text","0","51","700765","0-0","","","","","","","","","","","","","","","","","","","","","","","","","","","","","","","","","","","","",""
"","","plant-game","0","52","725640","0-0","","200","190","4","CORN CROP","Right","200","120","8","THISTLE WEED","experimental","13","1,2,3,4,5,6,7,8","120,139.3519827108349,192.60176839165388,209.71263884553753,224.5162850831094,207.10490763833496,258.96773053315246,296.94308895326515","8,7,6,5,4,3,2,1","THISTLE WEED,THISTLE WEED,THISTLE WEED,THISTLE WEED,THISTLE WEED,THISTLE WEED,THISTLE WEED,THISTLE WEED","190,200.7006031640663,184.02333829131385,200.3214816480684,160,182.294320839742,196.93573835402165,206.6892946562243","4,3,2,1,4,3,2,1","CORN CROP,CORN CROP,CORN CROP,CORN CROP,WHEAT CROP,WHEAT CROP,WHEAT CROP,WHEAT CROP","0,0,0,0,0,0,0,0","20,20,20,20,20,20,20,20","10,10,10,10,10,10,10,10","20,20,20,20,20,20,20,20","20,20,20,20,20,20,20,20","20,20,20,20,20,20,20,20","0,0,0,0,0,0,0,0","20,20,20,20,20,20,20,20","10,10,10,10,10,10,10,10","20,20,20,20,20,20,20,20","20,20,20,20,20,20,20,20","20,20,20,20,20,20,20,20","1,1,1,0,1,1,1,1","3467,2036,1662,1490,3445,1950,1458,664","19.35198271083491,53.24978568081898,17.110870453883635,14.803646237571881,-17.411377444774445,51.862822894817526,37.975358420112684,35.58947434587595","10.700603164066306,-16.677264872752453,16.29814335675456,35.12901465192369,22.294320839741996,14.641417514279649,9.753556302202648,6.344004227942484","0","0"
"487","86","text","0","53","726259","0-0","","","","","","","","","","","","","","","","","","","","","","","","","","","","","","","","","","","","",""
"","","plant-game","0","54","744262","0-0","","200","160","4","WHEAT CROP","Right","200","180","1","NETTLE WEED","experimental","14","1,2,3,4","180,170,195.20960540433168,193.5948525904495","1,3,2,1","NETTLE WEED,THISTLE WEED,THISTLE WEED,THISTLE WEED","160,195.2778481639623,212.36354309156167,212.45687249361865","4,3,2,1","WHEAT CROP,WHEAT CROP,WHEAT CROP,WHEAT CROP","0,0,0,0","20,20,20,20","10,10,10,10","20,20,20,20","20,20,20,20","20,20,20,20","0,0,0,0","20,20,20,20","10,10,10,10","20,20,20,20","20,20,20,20","20,20,20,20","1,1,0,0","6268,3162,1166,986","30.004883388149395,25.209605404331697,-1.6147528138821887,3.012612678879707","35.277848163962304,17.085694927599388,0.09332940205697293,7.664390328813305","1","0"
"543","86","text","0","55","744925","0-0","","","","","","","","","","","","","","","","","","","","","","","","","","","","","","","","","","","","",""
"","","plant-game","0","56","772255","0-0","","200","180","8","WHEAT CROP","Left","200","160","4","THISTLE WEED","experimental","15","1,2,3,4,5,6,7,8","180,167.55681122581137,189.00853203326272,224.1377393704499,223.97620804727782,216.40918702630864,199.80378258228137,231.04985459323825","8,7,6,5,4,3,2,1","WHEAT CROP,WHEAT CROP,WHEAT CROP,WHEAT CROP,WHEAT CROP,WHEAT CROP,WHEAT CROP,WHEAT CROP","160,181.23540643033766,160.61574770434297,174.19146822943867,160,183.95115716884771,157.97349743170503,179.69137487015016","4,3,2,1,4,3,2,1","THISTLE WEED,THISTLE WEED,THISTLE WEED,THISTLE WEED,NETTLE WEED,NETTLE WEED,NETTLE WEED,NETTLE WEED","20,20,20,20,20,20,20,20","20,20,20,20,20,20,20,20","10,10,10,10,10,10,10,10","20,20,20,20,20,20,20,20","0,0,0,0,0,0,0,0","20,20,20,20,20,20,20,20","20,20,20,20,20,20,20,20","20,20,20,20,20,20,20,20","10,10,10,10,10,10,10,10","20,20,20,20,20,20,20,20","0,0,0,0,0,0,0,0","20,20,20,20,20,20,20,20","0,0,0,1,1,1,0,1","3478,1702,1330,2638,5042,2532,1625,1513","-12.443188774188641,21.451720807451352,35.129207337187175,-0.1615313231720969,-7.567021020969168,-16.60540444402727,31.246072010956887,17.64105933679145","21.23540643033765,-20.619658725994697,13.5757205250957,-5.222896834218788,23.95115716884771,-25.97765973714269,21.71787743844514,0.8643156894595506","0","0"
"587","86","text","0","57","772982","0-0","","","","","","","","","","","","","","","","","","","","","","","","","","","","","","","","","","","","",""
"","","plant-game","0","58","786728","0-0","","200","160","2","WHEAT CROP","Left","200","120","4","NETTLE WEED","experimental","16","1,2,3,4","160,169.50724841666485,180,220.48266484353462","2,1,2,1","WHEAT CROP,WHEAT CROP,CORN CROP,CORN CROP","120,134.22460119725383,130.37998412905347,152.91738370898622","4,3,2,1","NETTLE WEED,NETTLE WEED,NETTLE WEED,NETTLE WEED","20,20,20,20","20,20,20,20","10,10,10,10","20,20,20,20","0,0,0,0","20,20,20,20","20,20,20,20","20,20,20,20","10,10,10,10","20,20,20,20","0,0,0,0","20,20,20,20","0,0,0,0","3007,783,2644,1406","9.507248416664854,16.868339588602236,40.48266484353462,-6.871553912261803","14.224601197253827,-3.8446170682003498,22.537399579932767,7.22718592177592","0","0"
"5549","86","text","0","59","792427","0-0","","","","","","","","","","","","","","","","","","","","","","","","","","","","","","","","","","","","",""
"","","plant-game","0","60","817440","0-0","","200","120","8","CORN CROP","Right","200","180","8","NETTLE WEED","experimental","17","1,2,3,4,5,6,7,8","180,174.8386494107183,196.0127842826861,204.21335701668548,203.47283317032915,198.79253349278244,207.37412840103474,182.43711822155595","8,7,6,5,4,3,2,1","NETTLE WEED,NETTLE WEED,NETTLE WEED,NETTLE WEED,NETTLE WEED,NETTLE WEED,NETTLE WEED,NETTLE WEED","120,73.66482595760813,74.21429803865755,63.156723171532064,90.53302160173351,102.26275395162331,125.21993935962595,128.11432832629808","8,7,6,5,4,3,2,1","CORN CROP,CORN CROP,CORN CROP,CORN CROP,CORN CROP,CORN CROP,CORN CROP,CORN CROP","0,0,0,0,0,0,0,0","20,20,20,20,20,20,20,20","10,10,10,10,10,10,10,10","20,20,20,20,20,20,20,20","20,20,20,20,20,20,20,20","20,20,20,20,20,20,20,20","0,0,0,0,0,0,0,0","20,20,20,20,20,20,20,20","10,10,10,10,10,10,10,10","20,20,20,20,20,20,20,20","20,20,20,20,20,20,20,20","20,20,20,20,20,20,20,20","1,1,1,1,1,1,1,0","6018,1639,4387,1318,1194,1456,1288,2267","-5.161350589281714,21.174134871967834,8.200572733999357,-0.7405238463563215,-4.680299677546724,8.5815949082523,-24.93701017947879,33.225041494213244","-46.33517404239187,0.5494720810494229,-11.057574867125478,27.37629843020145,11.7297323498898,22.95718540800264,2.8943889666721248,-7.612098862625488","0","0"
"529","86","text","0","61","818108","0-0","","","","","","","","","","","","","","","","","","","","","","","","","","","","","","","","","","","","",""
"","","plant-game","0","62","827505","0-0","","200","120","4","CORN CROP","Right","200","160","4","THISTLE WEED","experimental","18","1,2,3,4","160,184.57561589710878,190.19722931112423,139.79787960729982","4,3,2,1","THISTLE WEED,THISTLE WEED,THISTLE WEED,THISTLE WEED","120,127.11162667695962,133.83768307394428,139.66150225148348","4,3,2,1","CORN CROP,CORN CROP,CORN CROP,CORN CROP","0,0,0,0","20,20,20,20","10,10,10,10","20,20,20,20","20,20,20,20","20,20,20,20","0,0,0,0","20,20,20,20","10,10,10,10","20,20,20,20","20,20,20,20","20,20,20,20","1,0,0,1","3368,599,840,1058","24.57561589710877,5.621613414015464,-50.399349703824406,7.454271025526078","7.111626676959624,6.7260563969846565,5.8238191775392085,4.099566935741539","0","0"
"544","86","text","0","63","828189","0-0","","","","","","","","","","","","","","","","","","","","","","","","","","","","","","","","","","","","",""
"","","plant-game","0","64","847725","0-0","","200","120","2","WHEAT CROP","Left","200","180","4","NETTLE WEED","experimental","19","1,2,3,4","120,139.32524008407162,180,211.33201602166346","2,1,2,1","WHEAT CROP,WHEAT CROP,CORN CROP,CORN CROP","180,166.29157187385982,184.84406431929446,203.6804856943187","4,3,2,1","NETTLE WEED,NETTLE WEED,NETTLE WEED,NETTLE WEED","20,20,20,20","20,20,20,20","10,10,10,10","20,20,20,20","0,0,0,0","20,20,20,20","20,20,20,20","20,20,20,20","10,10,10,10","20,20,20,20","0,0,0,0","20,20,20,20","0,0,0,0","6400,2412,892,2545","19.325240084071623,16.722890312170122,31.332016021663453,63.46252171091248","-13.708428126140163,18.552492445434627,18.836421375024226,6.864220010446591","0","0"
"480","86","text","0","65","848365","0-0","","","","","","","","","","","","","","","","","","","","","","","","","","","","","","","","","","","","",""
"","","plant-game","0","66","876350","0-0","","200","120","2","WHEAT CROP","Left","200","180","8","NETTLE WEED","experimental","20","1,2,3,4,5,6,7,8","120,185.94313834831723,140,146.1186963323797,137.07428636545112,121.1085861239474,173.61594125464782,167.9931964533367","2,1,6,5,4,3,2,1","WHEAT CROP,WHEAT CROP,CORN CROP,CORN CROP,CORN CROP,CORN CROP,CORN CROP,CORN CROP","180,174.9293393664792,207.0568439625905,202.8282269309975,227.4466702047632,243.574253827161,258.31704803521717,260.1183204943874","8,7,6,5,4,3,2,1","NETTLE WEED,NETTLE WEED,NETTLE WEED,NETTLE WEED,NETTLE WEED,NETTLE WEED,NETTLE WEED,NETTLE WEED","20,20,20,20,20,20,20,20","20,20,20,20,20,20,20,20","10,10,10,10,10,10,10,10","20,20,20,20,20,20,20,20","0,0,0,0,0,0,0,0","20,20,20,20,20,20,20,20","20,20,20,20,20,20,20,20","20,20,20,20,20,20,20,20","10,10,10,10,10,10,10,10","20,20,20,20,20,20,20,20","0,0,0,0,0,0,0,0","20,20,20,20,20,20,20,20","0,1,1,1,1,0,0,1","10313,2703,3709,578,912,827,757,1031","65.94313834831723,9.987887848478794,6.118696332379704,-9.044409966928574,-15.965700241503711,52.50735513070042,-5.622744801311114,-6.292168445683731","-5.0706606335207915,32.1275045961113,-4.228617031593021,24.618443273765706,16.12758362239778,14.742794208056168,1.8012724591702352,-11.584948610112466","0","0"
"546","86","text","0","67","877036","0-0","","","","","","","","","","","","","","","","","","","","","","","","","","","","","","","","","","","","",""
"","","plant-game","0","68","892480","0-0","","200","190","1","WHEAT CROP","Left","200","160","8","NETTLE WEED","experimental","21","1,2,3,4,5,6,7,8","190,130,99.21714915144264,79.69613740346009,76.08673354029322,82.70937826420791,122.70916540340404,94.37687431862517","1,7,6,5,4,3,2,1","WHEAT CROP,CORN CROP,CORN CROP,CORN CROP,CORN CROP,CORN CROP,CORN CROP,CORN CROP","160,172.1658403369013,182.06010246039676,170.22764373055773,181.0176425063399,201.71617730572905,231.35148070331007,230.61413840253124","8,7,6,5,4,3,2,1","NETTLE WEED,NETTLE WEED,NETTLE WEED,NETTLE WEED,NETTLE WEED,NETTLE WEED,NETTLE WEED,NETTLE WEED","20,20,20,20,20,20,20,20","20,20,20,20,20,20,20,20","10,10,10,10,10,10,10,10","20,20,20,20,20,20,20,20","0,0,0,0,0,0,0,0","20,20,20,20,20,20,20,20","20,20,20,20,20,20,20,20","20,20,20,20,20,20,20,20","10,10,10,10,10,10,10,10","20,20,20,20,20,20,20,20","0,0,0,0,0,0,0,0","20,20,20,20,20,20,20,20","0,1,1,1,1,0,1,0","3389,1818,1087,762,567,704,1013,448","52.010960598641475,-30.782850848557363,-19.52101174798255,-3.6094038631668557,6.622644723914696,39.99978713919613,-28.33229108477887,47.25749620621455","12.165840336901308,9.894262123495457,-11.83245872983903,10.789998775782168,20.698534799389137,29.635303397581037,-0.7373423007788251,27.557216780944827","0","0"
"480","86","text","0","69","893110","0-0","","","","","","","","","","","","","","","","","","","","","","","","","","","","","","","","","","","","",""
"","","plant-game","0","70","903709","0-0","","200","120","4","CORN CROP","Left","200","190","4","THISTLE WEED","experimental","22","1,2,3,4","120,146.3801555845527,184.26208922579642,172.82081921044698","4,3,2,1","CORN CROP,CORN CROP,CORN CROP,CORN CROP","190,207.83162710627582,214.9914276416269,257.4215092092666","4,3,2,1","THISTLE WEED,THISTLE WEED,THISTLE WEED,THISTLE WEED","20,20,20,20","20,20,20,20","10,10,10,10","20,20,20,20","0,0,0,0","20,20,20,20","20,20,20,20","20,20,20,20","10,10,10,10","20,20,20,20","0,0,0,0","20,20,20,20","0,0,0,0","4473,1003,838,802","26.380155584552714,37.881933641243705,-11.441270015349446,21.323607276492247","17.831627106275814,7.159800535351081,42.430081567639704,46.98074802561055","0","0"
"424","86","text","0","71","904263","0-0","","","","","","","","","","","","","","","","","","","","","","","","","","","","","","","","","","","","",""
"","","plant-game","0","72","913751","0-0","","200","190","1","WHEAT CROP","Left","200","190","2","THISTLE WEED","experimental","23","1,2","190,190","1,1","WHEAT CROP,CORN CROP","190,227.33513222733762","2,1","THISTLE WEED,THISTLE WEED","20,20","20,20","10,10","20,20","0,0","20,20","20,20","20,20","10,10","20,20","0,0","20,20","0,0","2518,2339","7.476807729809131,15.664103866257795","37.335132227337624,40.158255379655074","0","0"
"471","86","text","0","73","914351","0-0","","","","","","","","","","","","","","","","","","","","","","","","","","","","","","","","","","","","",""
"","","plant-game","0","74","927965","0-0","","200","180","4","WHEAT CROP","Left","200","190","2","THISTLE WEED","experimental","24","1,2,3,4","180,135.2160987540269,129.3186388221728,170.1535963085854","4,3,2,1","WHEAT CROP,WHEAT CROP,WHEAT CROP,WHEAT CROP","190,197.17407169663772,180,189.00129621721544","2,1,2,1","THISTLE WEED,THISTLE WEED,NETTLE WEED,NETTLE WEED","20,20,20,20","20,20,20,20","10,10,10,10","20,20,20,20","0,0,0,0","20,20,20,20","20,20,20,20","20,20,20,20","10,10,10,10","20,20,20,20","0,0,0,0","20,20,20,20","1,1,0,0","3299,1439,1808,871","-44.78390124597312,-5.897459931854091,40.83495748641262,32.21145297653889","7.174071696637714,-10.109800262330479,9.001296217215451,53.86209122055159","0","0"
"541","86","text","0","75","928665","0-0","","","","","","","","","","","","","","","","","","","","","","","","","","","","","","","","","","","","",""
"","","plant-game","0","76","933592","0-0","","200","180","1","CORN CROP","Left","200","120","1","THISTLE WEED","experimental","25","1","180","1","CORN CROP","120","1","THISTLE WEED","20","20","10","20","0","20","20","20","10","20","0","20","0","1649","-5.18057906140454","-14.455766437908778","0","0"
"497","86","text","0","77","934239","0-0","","","","","","","","","","","","","","","","","","","","","","","","","","","","","","","","","","","","",""
"","","plant-game","0","78","940253","0-0","","200","160","2","CORN CROP","Left","200","160","2","NETTLE WEED","experimental","26","1,2","160,146.71583948992202","2,1","CORN CROP,CORN CROP","160,183.68937817030732","2,1","NETTLE WEED,NETTLE WEED","20,20","20,20","10,10","20,20","0,0","20,20","20,20","20,20","10,10","20,20","0,0","20,20","0,1","1759,1371","-13.284160510077967,15.625228616461982","23.689378170307315,39.65642476797434","0","0"
"494","86","text","0","79","940897","0-0","","","","","","","","","","","","","","","","","","","","","","","","","","","","","","","","","","","","",""
"","","plant-game","0","80","967922","0-0","","200","190","4","CORN CROP","Right","200","160","8","NETTLE WEED","experimental","27","1,2,3,4,5,6,7,8","160,193.18614599325437,188.52995048584347,172.31751792252174,179.66139635235012,238.38398176581615,238.0897709334024,243.35177946064238","8,7,6,5,4,3,2,1","NETTLE WEED,NETTLE WEED,NETTLE WEED,NETTLE WEED,NETTLE WEED,NETTLE WEED,NETTLE WEED,NETTLE WEED","190,214.16522405685248,235.05270178064163,235.20390414014253,160,206.58239335774243,181.79062272204328,169.38497751728258","4,3,2,1,4,3,2,1","CORN CROP,CORN CROP,CORN CROP,CORN CROP,WHEAT CROP,WHEAT CROP,WHEAT CROP,WHEAT CROP","0,0,0,0,0,0,0,0","20,20,20,20,20,20,20,20","10,10,10,10,10,10,10,10","20,20,20,20,20,20,20,20","20,20,20,20,20,20,20,20","20,20,20,20,20,20,20,20","0,0,0,0,0,0,0,0","20,20,20,20,20,20,20,20","10,10,10,10,10,10,10,10","20,20,20,20,20,20,20,20","20,20,20,20,20,20,20,20","20,20,20,20,20,20,20,20","1,1,0,1,1,0,1,1","3925,4688,2784,3303,3117,1737,594,537","33.18614599325437,-4.656195507410885,-16.21243256332173,7.343878429828386,58.72258541346603,-0.2942108324137436,5.262008527239985,-10.450244983471148","24.165224056852473,20.887477723789154,0.15120235950089014,12.6752172764985,46.582393357742426,-24.791770635699155,-12.405645204760695,33.377358088441326","0","0"
"509","86","text","0","81","968576","0-0","","","","","","","","","","","","","","","","","","","","","","","","","","","","","","","","","","","","",""
"","","plant-game","0","82","989400","0-0","","200","120","8","CORN CROP","Right","200","120","8","THISTLE WEED","experimental","28","1,2,3,4,5,6,7,8","120,149.93466545632418,158.42665309572328,150.7218538642461,156.85375615099267,195.4613108615681,243.44445146479742,235.02782073649138","8,7,6,5,4,3,2,1","THISTLE WEED,THISTLE WEED,THISTLE WEED,THISTLE WEED,THISTLE WEED,THISTLE WEED,THISTLE WEED,THISTLE WEED","120,157.74397072745472,130.7496433755627,159.3802586153868,168.94381893617285,188.77712210512013,239.1292478623796,231.88619549306404","8,7,6,5,4,3,2,1","CORN CROP,CORN CROP,CORN CROP,CORN CROP,CORN CROP,CORN CROP,CORN CROP,CORN CROP","0,0,0,0,0,0,0,0","20,20,20,20,20,20,20,20","10,10,10,10,10,10,10,10","20,20,20,20,20,20,20,20","20,20,20,20,20,20,20,20","20,20,20,20,20,20,20,20","0,0,0,0,0,0,0,0","20,20,20,20,20,20,20,20","10,10,10,10,10,10,10,10","20,20,20,20,20,20,20,20","20,20,20,20,20,20,20,20","20,20,20,20,20,20,20,20","1,0,1,1,1,1,0,1","7358,2693,650,830,608,1581,1416,1526","29.934665456324172,8.491987639399095,-7.704799231477189,6.131902286746573,38.60755471057543,47.983140603229316,-8.416630728306036,56.69913890084665","37.743970727454716,-26.99432735189202,28.630615239824085,9.563560320786051,19.833303168947275,50.352125757259486,-7.243052369315551,-13.686321581294294","0","0"
"727","86","text","0","83","990267","0-0","","","","","","","","","","","","","","","","","","","","","","","","","","","","","","","","","","","","",""
"","","plant-game","0","84","997351","0-0","","200","120","1","WHEAT CROP","Right","200","190","1","NETTLE WEED","experimental","29","1","190","1","NETTLE WEED","120","1","WHEAT CROP","0","20","10","20","20","20","0","20","10","20","20","20","0","4255","-15.191670509073587","-5.5986983957293575","0","0"
"480","86","text","0","85","997991","0-0","","","","","","","","","","","","","","","","","","","","","","","","","","","","","","","","","","","","",""
"","","plant-game","0","86","1020796","0-0","","200","160","8","CORN CROP","Left","200","120","2","THISTLE WEED","experimental","30","1,2,3,4,5,6,7,8","160,178.43337841135906,237.7441243486748,281.3273713512665,263.08774808953376,284.8237989460997,267.98684931810385,261.40597125333244","8,7,6,5,4,3,2,1","CORN CROP,CORN CROP,CORN CROP,CORN CROP,CORN CROP,CORN CROP,CORN CROP,CORN CROP","120,176.17005807198245,140,178.21152679197132,179.636908453979,211.2921935611554,240.4240778349018,239.42504091611548","2,1,6,5,4,3,2,1","THISTLE WEED,THISTLE WEED,NETTLE WEED,NETTLE WEED,NETTLE WEED,NETTLE WEED,NETTLE WEED,NETTLE WEED","20,20,20,20,20,20,20,20","20,20,20,20,20,20,20,20","10,10,10,10,10,10,10,10","20,20,20,20,20,20,20,20","0,0,0,0,0,0,0,0","20,20,20,20,20,20,20,20","20,20,20,20,20,20,20,20","20,20,20,20,20,20,20,20","10,10,10,10,10,10,10,10","20,20,20,20,20,20,20,20","0,0,0,0,0,0,0,0","20,20,20,20,20,20,20,20","0,0,0,1,0,1,1,0","7108,2376,2361,755,652,601,1561,1107","18.433378411359055,59.310745937315744,43.583247002591676,-18.239623261732707,21.736050856565967,-16.836949627995878,-6.580878064771438,31.11962077399272","56.17005807198244,32.207524285078506,38.21152679197132,1.4253816620076665,31.655285107176397,29.1318842737464,-0.9990369187863273,9.987523343579882","0","0"
"430","86","text","0","87","1021376","0-0","","","","","","","","","","","","","","","","","","","","","","","","","","","","","","","","","","","","",""
"","","plant-game","0","88","1036318","0-0","","200","160","1","WHEAT CROP","Left","200","190","8","THISTLE WEED","experimental","31","1,2,3,4,5,6,7,8","160,130,136.3897262228327,160.10772872251746,181.94766651129174,223.70286714726114,207.88236561837556,248.6197287303702","1,7,6,5,4,3,2,1","WHEAT CROP,CORN CROP,CORN CROP,CORN CROP,CORN CROP,CORN CROP,CORN CROP,CORN CROP","190,207.19991125719008,194.5220630361859,225.346879499033,245.1867706854232,274.81882578614164,278.05487400387375,309.0501137671977","8,7,6,5,4,3,2,1","THISTLE WEED,THISTLE WEED,THISTLE WEED,THISTLE WEED,THISTLE WEED,THISTLE WEED,THISTLE WEED,THISTLE WEED","20,20,20,20,20,20,20,20","20,20,20,20,20,20,20,20","10,10,10,10,10,10,10,10","20,20,20,20,20,20,20,20","0,0,0,0,0,0,0,0","20,20,20,20,20,20,20,20","20,20,20,20,20,20,20,20","20,20,20,20,20,20,20,20","10,10,10,10,10,10,10,10","20,20,20,20,20,20,20,20","0,0,0,0,0,0,0,0","20,20,20,20,20,20,20,20","0,0,1,0,0,0,0,0","2293,1272,994,541,541,816,1335,682","21.710614693126853,6.389726222832712,23.71800249968477,21.83993778877428,41.75520063596939,-15.820501528885572,40.73736311199465,17.265193492988644","17.19991125719008,-12.677848221004183,30.82481646284711,19.83989118639018,29.63205510071846,3.2360482177321224,30.995239763323912,38.10221533925627","0","0"
"494","86","text","0","89","1036962","0-0","","","","","","","","","","","","","","","","","","","","","","","","","","","","","","","","","","","","",""
"","","plant-game","0","90","1049383","0-0","","200","190","1","WHEAT CROP","Right","200","120","4","THISTLE WEED","experimental","32","1,2,3,4","120,139.2720259545345,157.02425908987215,179.28047551880854","4,3,2,1","THISTLE WEED,THISTLE WEED,THISTLE WEED,THISTLE WEED","190,170,179.05768080020832,192.54346140157702","1,3,2,1","WHEAT CROP,CORN CROP,CORN CROP,CORN CROP","0,0,0,0","20,20,20,20","10,10,10,10","20,20,20,20","20,20,20,20","20,20,20,20","0,0,0,0","20,20,20,20","10,10,10,10","20,20,20,20","20,20,20,20","20,20,20,20","1,1,1,1","3570,2083,628,706","19.27202595453451,17.752233135337633,22.256216428936398,12.610327850049355","6.993715254757362,9.057680800208317,13.485780601368713,20.177765165340237","0","0"
"11728","86","text","0","91","1061251","0-0","","","","","","","","","","","","","","","","","","","","","","","","","","","","","","","","","","","","",""
"","","plant-game","0","92","1072005","0-0","","200","120","4","CORN CROP","Left","200","160","2","NETTLE WEED","experimental","33","1,2,3,4","120,122.57864190107261,131.94529865130727,147.42231291955682","4,3,2,1","CORN CROP,CORN CROP,CORN CROP,CORN CROP","160,164.00138907104963,180,203.84770047890646","2,1,2,1","NETTLE WEED,NETTLE WEED,THISTLE WEED,THISTLE WEED","20,20,20,20","20,20,20,20","10,10,10,10","20,20,20,20","0,0,0,0","20,20,20,20","20,20,20,20","20,20,20,20","10,10,10,10","20,20,20,20","0,0,0,0","20,20,20,20","1,1,0,1","2530,467,1626,943","2.578641901072613,9.366656750234641,15.477014268249533,5.912909945151643","4.001389071049632,3.393406698878363,23.84770047890646,33.42050317519402","0","0"
"457","86","text","0","93","1072599","0-0","","","","","","","","","","","","","","","","","","","","","","","","","","","","","","","","","","","","",""
"","","plant-game","0","94","1087198","0-0","","200","180","8","CORN CROP","Right","200","180","8","THISTLE WEED","experimental","34","1,2,3,4,5,6,7,8","180,194.24738230962694,200.4063396211264,184.3891425625057,220.70500033914712,246.3117307894696,276.9148979365331,287.31041921513577","8,7,6,5,4,3,2,1","THISTLE WEED,THISTLE WEED,THISTLE WEED,THISTLE WEED,THISTLE WEED,THISTLE WEED,THISTLE WEED,THISTLE WEED","180,183.1872392543327,166.89502699445103,148.30020524926152,172.96660609601756,182.83838747882152,219.96318768300887,254.33835741909195","8,7,6,5,4,3,2,1","CORN CROP,CORN CROP,CORN CROP,CORN CROP,CORN CROP,CORN CROP,CORN CROP,CORN CROP","0,0,0,0,0,0,0,0","20,20,20,20,20,20,20,20","10,10,10,10,10,10,10,10","20,20,20,20,20,20,20,20","20,20,20,20,20,20,20,20","20,20,20,20,20,20,20,20","0,0,0,0,0,0,0,0","20,20,20,20,20,20,20,20","10,10,10,10,10,10,10,10","20,20,20,20,20,20,20,20","20,20,20,20,20,20,20,20","20,20,20,20,20,20,20,20","1,0,0,1,1,1,1,1","2133,1690,2069,2251,574,366,1347,419","14.24738230962693,6.158957311499449,-16.017197058620695,36.31585777664142,25.6067304503225,30.603167147063537,10.395521278602637,34.97022217418177","3.1872392543326846,-16.292212259881666,-18.59482174518951,24.66640084675604,9.87178138280395,37.124800204187366,34.375169736083066,24.43747654671798","0","0"
"495","86","text","0","95","1087853","0-0","","","","","","","","","","","","","","","","","","","","","","","","","","","","","","","","","","","","",""
"","","plant-game","0","96","1099287","0-0","","200","160","2","CORN CROP","Right","200","190","2","THISTLE WEED","experimental","35","1,2","190,210.0712469252318","2,1","THISTLE WEED,THISTLE WEED","160,212.0628213314522","2,1","CORN CROP,CORN CROP","0,0","20,20","10,10","20,20","20,20","20,20","0,0","20,20","10,10","20,20","20,20","20,20","1,1","6463,1294","20.071246925231815,21.73702503472396","52.062821331452184,7.24002416135836","0","0"
"500","86","text","0","97","1099934","0-0","","","","","","","","","","","","","","","","","","","","","","","","","","","","","","","","","","","","",""
"","","plant-game","0","98","1106646","0-0","","200","120","2","WHEAT CROP","Left","200","120","2","NETTLE WEED","experimental","36","1,2","120,115.7853141750827","2,1","WHEAT CROP,WHEAT CROP","120,131.58643857595808","2,1","NETTLE WEED,NETTLE WEED","20,20","20,20","10,10","20,20","0,0","20,20","20,20","20,20","10,10","20,20","0,0","20,20","0,0","3000,749","-4.214685824917289,18.960859954724075","11.586438575958072,23.770976948986284","0","0"
"1618","86","text","0","99","1108422","0-0","","","","","","","","","","","","","","","","","","","","","","","","","","","","","","","","","","","","",""
"","","plant-game","0","100","1131375","0-0","","200","180","8","WHEAT CROP","Right","200","120","1","THISTLE WEED","experimental","37","1,2,3,4,5,6,7,8","120,130,153.58534856712333,171.76439461504125,122.48396526172542,133.9874479116658,174.68721718769663,181.49563814660763","1,7,6,5,4,3,2,1","THISTLE WEED,NETTLE WEED,NETTLE WEED,NETTLE WEED,NETTLE WEED,NETTLE WEED,NETTLE WEED,NETTLE WEED","180,209.10443920402028,235.888253324197,236.52117282443666,262.001414468441,243.9329605656337,248.98971252996552,250.20035038975684","8,7,6,5,4,3,2,1","WHEAT CROP,WHEAT CROP,WHEAT CROP,WHEAT CROP,WHEAT CROP,WHEAT CROP,WHEAT CROP,WHEAT CROP","0,0,0,0,0,0,0,0","20,20,20,20,20,20,20,20","10,10,10,10,10,10,10,10","20,20,20,20,20,20,20,20","20,20,20,20,20,20,20,20","20,20,20,20,20,20,20,20","0,0,0,0,0,0,0,0","20,20,20,20,20,20,20,20","10,10,10,10,10,10,10,10","20,20,20,20,20,20,20,20","20,20,20,20,20,20,20,20","20,20,20,20,20,20,20,20","1,1,0,1,0,1,0,0","3557,2840,3080,1276,1788,971,1214,825","15.736043143217946,23.58534856712334,18.179046047917925,-49.28042935331584,11.503482649940402,40.69976927603083,6.808420958911013,-52.19419603698519","29.104439204020288,26.783814120176725,0.6329195002396757,25.480241644004355,-18.06845390280731,5.056751964331838,1.2106378597913257,-11.867301958108635","0","0"
"489","86","text","0","101","1132005","0-0","","","","","","","","","","","","","","","","","","","","","","","","","","","","","","","","","","","","",""
"","","plant-game","0","102","1138772","0-0","","200","180","2","WHEAT CROP","Left","200","190","2","NETTLE WEED","experimental","38","1,2","180,195.6042852778525","2,1","WHEAT CROP,WHEAT CROP","190,221.34612945977318","2,1","NETTLE WEED,NETTLE WEED","20,20","20,20","10,10","20,20","0,0","20,20","20,20","20,20","10,10","20,20","0,0","20,20","1,1","2600,863","15.604285277852505,33.307690296821676","31.346129459773195,-11.352592638245426","0","0"
"511","86","text","0","103","1139413","0-0","","","","","","","","","","","","","","","","","","","","","","","","","","","","","","","","","","","","",""
"","","plant-game","0","104","1154903","0-0","","200","180","4","CORN CROP","Left","200","120","8","NETTLE WEED","experimental","39","1,2,3,4,5,6,7,8","180,192.53158044813696,201.2325882581712,224.10556241312975,160,159.5622695911971,174.12959885894222,153.20552856654555","4,3,2,1,4,3,2,1","CORN CROP,CORN CROP,CORN CROP,CORN CROP,WHEAT CROP,WHEAT CROP,WHEAT CROP,WHEAT CROP","120,160.25285518218726,201.51490120370332,185.57131753713452,210.461066077373,191.74197649701543,222.53507434151163,227.57500509682117","8,7,6,5,4,3,2,1","NETTLE WEED,NETTLE WEED,NETTLE WEED,NETTLE WEED,NETTLE WEED,NETTLE WEED,NETTLE WEED,NETTLE WEED","20,20,20,20,20,20,20,20","20,20,20,20,20,20,20,20","10,10,10,10,10,10,10,10","20,20,20,20,20,20,20,20","0,0,0,0,0,0,0,0","20,20,20,20,20,20,20,20","20,20,20,20,20,20,20,20","20,20,20,20,20,20,20,20","10,10,10,10,10,10,10,10","20,20,20,20,20,20,20,20","0,0,0,0,0,0,0,0","20,20,20,20,20,20,20,20","0,0,1,1,1,1,1,1","2080,764,2315,923,688,1067,668,463","12.531580448136955,8.701007810034245,22.872974154958538,34.713703397917534,-0.43773040880291797,14.567329267745118,-20.92407029239667,-19.954924476806323","40.25285518218726,41.262046021516056,-15.943583666568795,24.88974854023848,-18.719089580357572,30.793097844496188,5.039930755309547,44.201365739575856","0","0"
"627","86","text","0","105","1155670","0-0","","","","","","","","","","","","","","","","","","","","","","","","","","","","","","","","","","","","",""
"","","plant-game","0","106","1168155","0-0","","200","190","1","CORN CROP","Left","200","180","4","NETTLE WEED","experimental","40","1,2,3,4","190,170,163.75936078055727,175.7975256333988","1,3,2,1","CORN CROP,WHEAT CROP,WHEAT CROP,WHEAT CROP","180,204.53197848807093,227.10165359015818,249.42781318657896","4,3,2,1","NETTLE WEED,NETTLE WEED,NETTLE WEED,NETTLE WEED","20,20,20,20","20,20,20,20","10,10,10,10","20,20,20,20","0,0,0,0","20,20,20,20","20,20,20,20","20,20,20,20","10,10,10,10","20,20,20,20","0,0,0,0","20,20,20,20","0,0,0,0","2299,4663,545,532","-2.1361379671235703,-6.240639219442727,12.038164852841533,12.810601853890336","24.531978488070923,22.569675102087253,22.326159596420787,51.354620987613366","0","0"
"449","86","text","0","107","1168764","0-0","","","","","","","","","","","","","","","","","","","","","","","","","","","","","","","","","","","","",""
"","","plant-game","0","108","1176446","0-0","","200","120","2","WHEAT CROP","Right","200","190","2","THISTLE WEED","experimental","41","1,2","190,191.25515407686913","2,1","THISTLE WEED,THISTLE WEED","120,100.85319602377669","2,1","WHEAT CROP,WHEAT CROP","0,0","20,20","10,10","20,20","20,20","20,20","0,0","20,20","10,10","20,20","20,20","20,20","0,0","3338,805","1.2551540768691316,-11.319877755411312","-19.146803976223307,13.659893366937457","0","0"
"450","86","text","0","109","1177067","0-0","","","","","","","","","","","","","","","","","","","","","","","","","","","","","","","","","","","","",""
"","","plant-game","0","110","1184826","0-0","","200","190","4","WHEAT CROP","Right","200","180","4","THISTLE WEED","experimental","42","1,2,3,4","180,185.00608177518055,215.04937182278218,237.91678996434754","4,3,2,1","THISTLE WEED,THISTLE WEED,THISTLE WEED,THISTLE WEED","190,178.9327884141397,200.7265783048275,251.2652092318334","4,3,2,1","WHEAT CROP,WHEAT CROP,WHEAT CROP,WHEAT CROP","0,0,0,0","20,20,20,20","10,10,10,10","20,20,20,20","20,20,20,20","20,20,20,20","0,0,0,0","20,20,20,20","10,10,10,10","20,20,20,20","20,20,20,20","20,20,20,20","0,1,1,1","1711,862,883,1344","5.006081775180546,30.043290047601616,22.86741814156536,22.277557207098344","-11.0672115858603,21.793789890687798,50.53863092700591,1.0413327202453075","0","0"
"459","86","text","0","111","1185446","0-0","","","","","","","","","","","","","","","","","","","","","","","","","","","","","","","","","","","","",""
"","","plant-game","0","112","1194533","0-0","","200","180","1","WHEAT CROP","Left","200","180","2","NETTLE WEED","experimental","43","1,2","180,190","1,1","WHEAT CROP,CORN CROP","180,229.09016351830132","2,1","NETTLE WEED,NETTLE WEED","20,20","20,20","10,10","20,20","0,0","20,20","20,20","20,20","10,10","20,20","0,0","20,20","0,0","2939,1693","1.0981109323175104,58.19242349397922","49.09016351830134,0.7013352646578568","0","0"
"483","86","text","0","113","1195156","0-0","","","","","","","","","","","","","","","","","","","","","","","","","","","","","","","","","","","","",""
"","","plant-game","0","114","1210589","0-0","","200","180","2","CORN CROP","Right","200","190","1","NETTLE WEED","experimental","44","1,2","190,190","1,1","NETTLE WEED,THISTLE WEED","180,201.54516819181103","2,1","CORN CROP,CORN CROP","0,0","20,20","10,10","20,20","20,20","20,20","0,0","20,20","10,10","20,20","20,20","20,20","0,0","5352,4201","-5.704718710579838,-26.7964778652478","21.54516819181103,6.30742337656611","0","0"
"530","86","text","0","115","1211229","0-0","","","","","","","","","","","","","","","","","","","","","","","","","","","","","","","","","","","","",""
"","","plant-game","0","116","1235620","0-0","","200","120","4","WHEAT CROP","Left","200","180","2","THISTLE WEED","experimental","45","1,2,3,4","120,167.13154089325425,181.39993429405033,204.26020300003842","4,3,2,1","WHEAT CROP,WHEAT CROP,WHEAT CROP,WHEAT CROP","180,158.2817328675305,180,165.36266803704808","2,1,2,1","THISTLE WEED,THISTLE WEED,NETTLE WEED,NETTLE WEED","20,20,20,20","20,20,20,20","10,10,10,10","20,20,20,20","0,0,0,0","20,20,20,20","20,20,20,20","20,20,20,20","10,10,10,10","20,20,20,20","0,0,0,0","20,20,20,20","1,1,1,0","12975,1770,2892,2057","47.131540893254254,14.268393400796072,22.8602687059881,40.666117645846974","-21.7182671324695,-3.1374726238011563,-14.637331962951922,64.66238583248129","0","0"
"556","86","text","0","117","1236316","0-0","","","","","","","","","","","","","","","","","","","","","","","","","","","","","","","","","","","","",""
"","","plant-game","0","118","1254306","0-0","","200","120","4","CORN CROP","Right","200","180","4","NETTLE WEED","experimental","46","1,2,3,4","180,207.6479784947009,202.18467965934997,204.40934042519132","4,3,2,1","NETTLE WEED,NETTLE WEED,NETTLE WEED,NETTLE WEED","120,135.3318106775448,134.1223290048023,171.67128433304097","4,3,2,1","CORN CROP,CORN CROP,CORN CROP,CORN CROP","0,0,0,0","20,20,20,20","10,10,10,10","20,20,20,20","20,20,20,20","20,20,20,20","0,0,0,0","20,20,20,20","10,10,10,10","20,20,20,20","20,20,20,20","20,20,20,20","0,0,0,1","8592,983,1220,2787","27.647978494700915,-5.463298835350939,2.2246607658413606,-12.068367845582422","15.33181067754482,-1.2094816727425108,37.548955328238655,61.89496272043626","0","0"
"700","86","text","0","119","1255141","0-0","","","","","","","","","","","","","","","","","","","","","","","","","","","","","","","","","","","","",""
"","","plant-game","0","120","1281333","0-0","","200","180","2","CORN CROP","Right","200","160","8","THISTLE WEED","experimental","47","1,2,3,4,5,6,7,8","160,134.7864338256837,133.45836986642684,140.98840951354327,104.8315678580101,103.90396697353287,176.18288391592387,190.38643876437874","8,7,6,5,4,3,2,1","THISTLE WEED,THISTLE WEED,THISTLE WEED,THISTLE WEED,THISTLE WEED,THISTLE WEED,THISTLE WEED,THISTLE WEED","180,189.07125856364178,140,187.86875436919996,188.67751883609006,167.47655133363858,185.62077433944395,167.78349012687968","2,1,6,5,4,3,2,1","CORN CROP,CORN CROP,WHEAT CROP,WHEAT CROP,WHEAT CROP,WHEAT CROP,WHEAT CROP,WHEAT CROP","0,0,0,0,0,0,0,0","20,20,20,20,20,20,20,20","10,10,10,10,10,10,10,10","20,20,20,20,20,20,20,20","20,20,20,20,20,20,20,20","20,20,20,20,20,20,20,20","0,0,0,0,0,0,0,0","20,20,20,20,20,20,20,20","10,10,10,10,10,10,10,10","20,20,20,20,20,20,20,20","20,20,20,20,20,20,20,20","20,20,20,20,20,20,20,20","1,1,1,0,0,1,0,1","6276,734,3850,1800,2247,591,3516,1319","-25.2135661743163,-1.3280639592568555,7.530039647116432,-36.15684165553317,-0.927600884477225,72.278916942391,14.203554848454878,13.91114785636284","9.07125856364177,10.630625707444205,47.86875436919995,0.8087644668900835,-21.20096750245148,18.144223005805365,-17.837284212564267,-3.72903917776312","0","0"
"432","86","text","0","121","1281915","0-0","","","","","","","","","","","","","","","","","","","","","","","","","","","","","","","","","","","","",""
"","","plant-game","0","122","1302916","0-0","","200","120","1","CORN CROP","Right","200","160","8","THISTLE WEED","experimental","48","1,2,3,4,5,6,7,8","160,164.25713937250123,184.1122070066699,174.18743707897355,213.5488127353256,221.73715154723237,216.8660601630518,227.18293132876988","8,7,6,5,4,3,2,1","THISTLE WEED,THISTLE WEED,THISTLE WEED,THISTLE WEED,THISTLE WEED,THISTLE WEED,THISTLE WEED,THISTLE WEED","120,130,161.04112079125255,184.63715989154997,213.03629874165713,225.00708797821017,244.73933014355538,255.74531689638195","1,7,6,5,4,3,2,1","CORN CROP,WHEAT CROP,WHEAT CROP,WHEAT CROP,WHEAT CROP,WHEAT CROP,WHEAT CROP,WHEAT CROP","0,0,0,0,0,0,0,0","20,20,20,20,20,20,20,20","10,10,10,10,10,10,10,10","20,20,20,20,20,20,20,20","20,20,20,20,20,20,20,20","20,20,20,20,20,20,20,20","0,0,0,0,0,0,0,0","20,20,20,20,20,20,20,20","10,10,10,10,10,10,10,10","20,20,20,20,20,20,20,20","20,20,20,20,20,20,20,20","20,20,20,20,20,20,20,20","0,0,0,1,0,0,1,0","4919,2704,722,2248,1993,593,1546,442","4.257139372501239,19.855067634168684,-9.924769927696365,39.36137565635208,8.188338811906771,-4.871091384180568,10.31687116571809,-9.788771771233643","-18.090204511289866,31.04112079125255,23.59603910029741,28.39913885010717,11.97078923655302,19.732242165345227,11.005986752826585,-11.114633543394287","0","0"
"93","86","text","0","123","1303109","0-0","","","","","","","","","","","","","","","","","","","","","","","","","","","","","","","","","","","","",""
"","","plant-game","0","124","1323197","0-0","","200","180","4","WHEAT CROP","Right","200","190","8","NETTLE WEED","experimental","49","1,2,3,4,5,6,7,8","190,195.98275859202278,253.26102910684926,305.1742185297511,309.17346976965234,295.714545429829,301.36824408758673,336.6015731897102","8,7,6,5,4,3,2,1","NETTLE WEED,NETTLE WEED,NETTLE WEED,NETTLE WEED,NETTLE WEED,NETTLE WEED,NETTLE WEED,NETTLE WEED","180,179.05900798891446,210.94808084364158,219.54301070677582,160,178.87779265818273,192.1477262654526,220.24684036840466","4,3,2,1,4,3,2,1","WHEAT CROP,WHEAT CROP,WHEAT CROP,WHEAT CROP,CORN CROP,CORN CROP,CORN CROP,CORN CROP","0,0,0,0,0,0,0,0","20,20,20,20,20,20,20,20","10,10,10,10,10,10,10,10","20,20,20,20,20,20,20,20","20,20,20,20,20,20,20,20","20,20,20,20,20,20,20,20","0,0,0,0,0,0,0,0","20,20,20,20,20,20,20,20","10,10,10,10,10,10,10,10","20,20,20,20,20,20,20,20","20,20,20,20,20,20,20,20","20,20,20,20,20,20,20,20","1,1,1,0,1,1,1,1","2883,392,1538,755,4399,1078,794,3316","5.982758592022767,57.27827051482648,51.91318942290184,3.9992512399012234,-13.458924339823334,5.653698657757726,35.2333291021235,-3.292964165985005","-0.9409920110855339,31.889072854727107,8.59492986313423,-1.5993807840384908,18.877792658182717,13.269933607269863,28.099114102952043,30.437874550705242","0","0"
"676","86","text","0","125","1323993","0-0","","","","","","","","","","","","","","","","","","","","","","","","","","","","","","","","","","","","",""
"","","plant-game","0","126","1340884","0-0","","200","120","8","WHEAT CROP","Left","200","190","4","NETTLE WEED","experimental","50","1,2,3,4,5,6,7,8","120,122.98315400772427,142.47278992502385,119.84295844672792,71.53295941330245,48.853454724410014,83.70157965365951,86.07569773957162","8,7,6,5,4,3,2,1","WHEAT CROP,WHEAT CROP,WHEAT CROP,WHEAT CROP,WHEAT CROP,WHEAT CROP,WHEAT CROP,WHEAT CROP","190,167.90390734471208,204.7294199953585,235.91235162041352,160,195.21829104443978,226.38992038793668,250.93686257454215","4,3,2,1,4,3,2,1","NETTLE WEED,NETTLE WEED,NETTLE WEED,NETTLE WEED,THISTLE WEED,THISTLE WEED,THISTLE WEED,THISTLE WEED","20,20,20,20,20,20,20,20","20,20,20,20,20,20,20,20","10,10,10,10,10,10,10,10","20,20,20,20,20,20,20,20","0,0,0,0,0,0,0,0","20,20,20,20,20,20,20,20","20,20,20,20,20,20,20,20","20,20,20,20,20,20,20,20","10,10,10,10,10,10,10,10","20,20,20,20,20,20,20,20","0,0,0,0,0,0,0,0","20,20,20,20,20,20,20,20","1,1,1,1,0,0,1,0","4148,1797,885,692,1467,697,813,504","2.9831540077242713,19.48963591729959,-22.629831478295923,-48.30999903342547,-22.679504688892436,34.84812492924949,2.3741180859121176,59.77434340815008","-22.096092655287904,36.82551265064642,31.182931625055005,24.429819021939885,35.21829104443977,31.171629343496907,24.546942186605474,-6.982886957297076","0","0"
"96","86","text","0","127","1341068","0-0","","","","","","","","","","","","","","","","","","","","","","","","","","","","","","","","","","","","",""
"","","plant-game","0","128","1363612","0-0","","200","190","4","WHEAT CROP","Left","200","160","2","NETTLE WEED","experimental","51","1,2,3,4","190,218.22867401728615,151.7887702995987,157.49664511882477","4,3,2,1","WHEAT CROP,WHEAT CROP,WHEAT CROP,WHEAT CROP","160,203.19775911074692,180,189.06866998321604","2,1,2,1","NETTLE WEED,NETTLE WEED,THISTLE WEED,THISTLE WEED","20,20,20,20","20,20,20,20","10,10,10,10","20,20,20,20","0,0,0,0","20,20,20,20","20,20,20,20","20,20,20,20","10,10,10,10","20,20,20,20","0,0,0,0","20,20,20,20","0,1,1,1","9476,934,6552,1067","28.228674017286142,-66.43990371768746,5.707874819226087,-19.33520057143873","43.19775911074693,42.058130999772615,9.068669983216028,-4.104993556729436","0","0"
"548","86","text","0","129","1364260","0-0","","","","","","","","","","","","","","","","","","","","","","","","","","","","","","","","","","","","",""
"","","plant-game","0","130","1376945","0-0","","200","180","1","WHEAT CROP","Left","200","120","8","NETTLE WEED","experimental","52","1,2,3,4,5,6,7,8","180,130,113.61288087919513,133.72160807479918,133.0222703832595,121.66725781057627,118.2604520141804,80.89861129796017","1,7,6,5,4,3,2,1","WHEAT CROP,CORN CROP,CORN CROP,CORN CROP,CORN CROP,CORN CROP,CORN CROP,CORN CROP","120,135.3258773580619,136.95863843896265,105.97724079850391,142.7445911897318,131.0843552445446,89.69224058580839,107.18239776936598","8,7,6,5,4,3,2,1","NETTLE WEED,NETTLE WEED,NETTLE WEED,NETTLE WEED,NETTLE WEED,NETTLE WEED,NETTLE WEED,NETTLE WEED","20,20,20,20,20,20,20,20","20,20,20,20,20,20,20,20","10,10,10,10,10,10,10,10","20,20,20,20,20,20,20,20","0,0,0,0,0,0,0,0","20,20,20,20,20,20,20,20","20,20,20,20,20,20,20,20","20,20,20,20,20,20,20,20","10,10,10,10,10,10,10,10","20,20,20,20,20,20,20,20","0,0,0,0,0,0,0,0","20,20,20,20,20,20,20,20","0,1,1,0,1,1,0,0","1619,1330,611,1203,652,533,557,555","15.65063927218591,-16.387119120804865,20.10872719560405,-0.6993376915396894,-11.355012572683217,-3.4068057963958696,-37.361840716220236,19.043448703563847","15.325877358061897,1.6327610809007542,-30.981397640458738,36.76735039122789,-11.660235945187194,-41.39211465873622,17.49015718355758,60.11087040390227","0","0"
"628","86","text","0","131","1377745","0-0","","","","","","","","","","","","","","","","","","","","","","","","","","","","","","","","","","","","",""
"","","plant-game","0","132","1389446","0-0","","200","180","1","WHEAT CROP","Right","200","190","2","THISTLE WEED","experimental","53","1,2","190,189.92820147347737","2,1","THISTLE WEED,THISTLE WEED","180,190","1,1","WHEAT CROP,CORN CROP","0,0","20,20","10,10","20,20","20,20","20,20","0,0","20,20","10,10","20,20","20,20","20,20","1,0","3553,2385","-0.07179852652261332,-20.221063591221725","8.994746649148746,21.938550360578745","0","0"
"1154","86","text","0","133","1390718","0-0","","","","","","","","","","","","","","","","","","","","","","","","","","","","","","","","","","","","",""
"","","plant-game","0","134","1401789","0-0","","200","180","1","CORN CROP","Left","200","120","2","NETTLE WEED","experimental","54","1,2","180,190","1,1","CORN CROP,WHEAT CROP","120,129.51770060290426","2,1","NETTLE WEED,NETTLE WEED","20,20","20,20","10,10","20,20","0,0","20,20","20,20","20,20","10,10","20,20","0,0","20,20","1,0","3655,2396","9.66101496379545,56.70090722932907","9.517700602904249,6.751184480005815","0","0"
"658","86","text","0","135","1402607","0-0","","","","","","","","","","","","","","","","","","","","","","","","","","","","","","","","","","","","",""
"","","plant-game","0","136","1417736","0-0","","200","190","2","CORN CROP","Left","200","160","8","THISTLE WEED","experimental","55","1,2,3,4,5,6,7,8","190,196.5225436511696,140,154.1632478906759,159.37244159235257,140.4025359063029,183.16601768320012,171.1753617283262","2,1,6,5,4,3,2,1","CORN CROP,CORN CROP,WHEAT CROP,WHEAT CROP,WHEAT CROP,WHEAT CROP,WHEAT CROP,WHEAT CROP","160,178.6881471056208,177.60703531489557,179.03100691132087,201.51225937121444,211.86944467233033,274.25260754663,282.8047038880844","8,7,6,5,4,3,2,1","THISTLE WEED,THISTLE WEED,THISTLE WEED,THISTLE WEED,THISTLE WEED,THISTLE WEED,THISTLE WEED,THISTLE WEED","20,20,20,20,20,20,20,20","20,20,20,20,20,20,20,20","10,10,10,10,10,10,10,10","20,20,20,20,20,20,20,20","0,0,0,0,0,0,0,0","20,20,20,20,20,20,20,20","20,20,20,20,20,20,20,20","20,20,20,20,20,20,20,20","10,10,10,10,10,10,10,10","20,20,20,20,20,20,20,20","0,0,0,0,0,0,0,0","20,20,20,20,20,20,20,20","0,1,1,1,1,0,1,0","1553,723,2970,1431,1252,807,624,528","6.522543651169608,-13.120677215044639,14.163247890675905,5.209193701676672,-18.969905686049692,42.76348177689723,-11.990655954873917,-21.536688748236905","18.688147105620796,-1.0811117907252203,1.4239715964253148,22.481252459893575,10.35718530111588,62.383162874299664,8.552096341454424,12.246087698699913","0","0"
"501","86","text","0","137","1418377","0-0","","","","","","","","","","","","","","","","","","","","","","","","","","","","","","","","","","","","",""
"","","plant-game","0","138","1426811","0-0","","200","180","4","CORN CROP","Left","200","160","4","THISTLE WEED","experimental","56","1,2,3,4","180,195.81799477903166,206.556026098379,241.81774621904663","4,3,2,1","CORN CROP,CORN CROP,CORN CROP,CORN CROP","160,191.86757141792785,235.51869540788078,256.71086482209483","4,3,2,1","THISTLE WEED,THISTLE WEED,THISTLE WEED,THISTLE WEED","20,20,20,20","20,20,20,20","10,10,10,10","20,20,20,20","0,0,0,0","20,20,20,20","20,20,20,20","20,20,20,20","10,10,10,10","20,20,20,20","0,0,0,0","20,20,20,20","0,0,0,0","1814,363,2354,577","15.817994779031665,10.738031319347318,35.26172012066763,35.52779585234523","31.86757141792784,43.65112398995293,21.19216941421406,44.430054512786725","0","0"
"488","86","text","0","139","1427439","0-0","","","","","","","","","","","","","","","","","","","","","","","","","","","","","","","","","","","","",""
"","","plant-game","0","140","1434357","0-0","","200","180","4","CORN CROP","Left","200","190","4","NETTLE WEED","experimental","57","1,2,3,4","180,178.6391285307119,177.40262263875488,173.1194871892132","4,3,2,1","CORN CROP,CORN CROP,CORN CROP,CORN CROP","190,209.61099458481698,221.06126959094067,219.02596533491467","4,3,2,1","NETTLE WEED,NETTLE WEED,NETTLE WEED,NETTLE WEED","20,20,20,20","20,20,20,20","10,10,10,10","20,20,20,20","0,0,0,0","20,20,20,20","20,20,20,20","20,20,20,20","10,10,10,10","20,20,20,20","0,0,0,0","20,20,20,20","1,1,1,1","2343,687,559,494","-1.3608714692881039,-1.2365058919570096,-4.28313544954168,-26.601629049105146","19.610994584816986,11.450275006123691,-2.0353042560260044,13.351014128044492","0","0"
"453","86","text","0","141","1434953","0-0","","","","","","","","","","","","","","","","","","","","","","","","","","","","","","","","","","","","",""
"","","plant-game","0","142","1445565","0-0","","200","180","4","WHEAT CROP","Right","200","190","1","THISTLE WEED","experimental","58","1,2,3,4","190,170,187.2130656722382,233.25117061529343","1,3,2,1","THISTLE WEED,NETTLE WEED,NETTLE WEED,NETTLE WEED","180,182.70580157062497,195.05534627651596,193.9903085520504","4,3,2,1","WHEAT CROP,WHEAT CROP,WHEAT CROP,WHEAT CROP","0,0,0,0","20,20,20,20","10,10,10,10","20,20,20,20","20,20,20,20","20,20,20,20","0,0,0,0","20,20,20,20","10,10,10,10","20,20,20,20","20,20,20,20","20,20,20,20","0,1,1,1","3085,1401,420,544","14.777218745313121,17.213065672238212,46.038104943055224,14.979052577617948","2.7058015706249745,12.349544705891,-1.0650377244655544,26.22985324244917","0","0"
"484","86","text","0","143","1446209","0-0","","","","","","","","","","","","","","","","","","","","","","","","","","","","","","","","","","","","",""
"","","plant-game","0","144","1451890","0-0","","200","120","2","CORN CROP","Right","200","160","2","THISTLE WEED","experimental","59","1,2","160,217.5525423045901","2,1","THISTLE WEED,THISTLE WEED","120,151.852455906848","2,1","CORN CROP,CORN CROP","0,0","20,20","10,10","20,20","20,20","20,20","0,0","20,20","10,10","20,20","20,20","20,20","1,0","1730,854","57.552542304590105,33.85458188597732","31.852455906847997,-21.368731065045438","0","0"
"479","86","text","0","145","1452522","0-0","","","","","","","","","","","","","","","","","","","","","","","","","","","","","","","","","","","","",""
"","","plant-game","0","146","1461845","0-0","","200","120","4","CORN CROP","Left","200","120","2","NETTLE WEED","experimental","60","1,2,3,4","120,172.435353968555,230.12405220358227,268.1852965006516","4,3,2,1","CORN CROP,CORN CROP,CORN CROP,CORN CROP","120,124.27159841845568,180,205.8954082847138","2,1,2,1","NETTLE WEED,NETTLE WEED,THISTLE WEED,THISTLE WEED","20,20,20,20","20,20,20,20","10,10,10,10","20,20,20,20","0,0,0,0","20,20,20,20","20,20,20,20","20,20,20,20","10,10,10,10","20,20,20,20","0,0,0,0","20,20,20,20","0,0,0,1","1139,368,1182,653","52.435353968555,57.68869823502727,38.061244297069294,-33.0534088565019","4.271598418455675,-8.395952497213376,25.895408284713795,11.42103331961339","0","0"
"505","86","text","0","147","1462490","0-0","","","","","","","","","","","","","","","","","","","","","","","","","","","","","","","","","","","","",""
"","","plant-game","0","148","1471986","0-0","","200","190","2","CORN CROP","Right","200","120","1","THISTLE WEED","experimental","61","1,2","120,190","1,1","THISTLE WEED,NETTLE WEED","190,214.4135921495845","2,1","CORN CROP,CORN CROP","0,0","20,20","10,10","20,20","20,20","20,20","0,0","20,20","10,10","20,20","20,20","20,20","1,0","1207,2333","12.539093457816174,-4.719900473981661","24.413592149584492,-10.81669727133322","0","0"
"581","86","text","0","149","1472737","0-0","","","","","","","","","","","","","","","","","","","","","","","","","","","","","","","","","","","","",""
"","","plant-game","0","150","1501514","0-0","","200","180","8","WHEAT CROP","Right","200","190","2","NETTLE WEED","experimental","62","1,2,3,4,5,6,7,8","190,250.54961057003413,140,144.98540520887198,125.20638040905499,114.41978996382724,121.41380652829216,129.67657141036972","2,1,6,5,4,3,2,1","NETTLE WEED,NETTLE WEED,THISTLE WEED,THISTLE WEED,THISTLE WEED,THISTLE WEED,THISTLE WEED,THISTLE WEED","180,172.91480212497478,209.00359899022212,186.56237872938618,224.49942063218933,220.21158430266738,205.84979395584358,205.9546355647737","8,7,6,5,4,3,2,1","WHEAT CROP,WHEAT CROP,WHEAT CROP,WHEAT CROP,WHEAT CROP,WHEAT CROP,WHEAT CROP,WHEAT CROP","0,0,0,0,0,0,0,0","20,20,20,20,20,20,20,20","10,10,10,10,10,10,10,10","20,20,20,20,20,20,20,20","20,20,20,20,20,20,20,20","20,20,20,20,20,20,20,20","0,0,0,0,0,0,0,0","20,20,20,20,20,20,20,20","10,10,10,10,10,10,10,10","20,20,20,20,20,20,20,20","20,20,20,20,20,20,20,20","20,20,20,20,20,20,20,20","0,1,1,1,0,0,0,0","2813,6198,3829,2608,1625,1280,1765,2488","60.54961057003412,53.17938388201214,4.985405208871985,-19.779024799816987,-10.786590445227741,6.994016564464913,8.262764882077564,12.004343361319862","-7.085197875025212,36.088796865247325,-22.441220260835934,37.937041902803145,-4.287836329521943,-14.361790346823785,0.10484160893012509,-0.735308496051472","0","0"
"534","86","text","0","151","1502198","0-0","","","","","","","","","","","","","","","","","","","","","","","","","","","","","","","","","","","","",""
"","","plant-game","0","152","1519702","0-0","","200","180","4","WHEAT CROP","Left","200","120","1","NETTLE WEED","experimental","63","1,2,3,4","180,195.11283146458214,187.98418658805645,204.09778205561446","4,3,2,1","WHEAT CROP,WHEAT CROP,WHEAT CROP,WHEAT CROP","120,170,173.94269306149954,181.68529395398227","1,3,2,1","NETTLE WEED,THISTLE WEED,THISTLE WEED,THISTLE WEED","20,20,20,20","20,20,20,20","10,10,10,10","20,20,20,20","0,0,0,0","20,20,20,20","20,20,20,20","20,20,20,20","10,10,10,10","20,20,20,20","0,0,0,0","20,20,20,20","0,1,0,1","3382,4319,1805,2411","15.11283146458214,-7.128644876525709,16.113595467558017,16.875883299416707","-26.471865412379287,3.94269306149954,7.742600892482738,3.046786886020147","0","0"
"739","86","text","0","153","1520581","0-0","","","","","","","","","","","","","","","","","","","","","","","","","","","","","","","","","","","","",""
"","","plant-game","0","154","1539968","0-0","","200","190","2","CORN CROP","Left","200","180","4","THISTLE WEED","experimental","64","1,2,3,4","190,197.89946242021477,180,185.93479999494508","2,1,2,1","CORN CROP,CORN CROP,WHEAT CROP,WHEAT CROP","180,171.4413214455322,161.83297613747862,179.99558569987894","4,3,2,1","THISTLE WEED,THISTLE WEED,THISTLE WEED,THISTLE WEED","20,20,20,20","20,20,20,20","10,10,10,10","20,20,20,20","0,0,0,0","20,20,20,20","20,20,20,20","20,20,20,20","10,10,10,10","20,20,20,20","0,0,0,0","20,20,20,20","1,1,1,1","8196,4339,1402,900","7.89946242021477,-15.024756843856967,5.934799994945086,24.8427760022656","-8.558678554467797,-9.608345308053584,18.16260956240031,-9.238029848417233","0","0"
"5716","86","text","0","155","1545824","0-0","","","","","","","","","","","","","","","","","","","","","","","","","","","","","","","","","","","","",""
"","","plant-game","0","156","1563402","0-0","","200","120","8","WHEAT CROP","Left","200","160","4","THISTLE WEED","experimental","65","1,2,3,4,5,6,7,8","120,131.99732547496794,183.72442638500848,209.24674795942107,228.3475871524828,242.83886142276972,214.98529520051582,210.67082329059696","8,7,6,5,4,3,2,1","WHEAT CROP,WHEAT CROP,WHEAT CROP,WHEAT CROP,WHEAT CROP,WHEAT CROP,WHEAT CROP,WHEAT CROP","160,204.07543270580425,218.02061490150936,249.5514693783049,160,136.34303175633175,132.3924665269486,119.73096914332169","4,3,2,1,4,3,2,1","THISTLE WEED,THISTLE WEED,THISTLE WEED,THISTLE WEED,NETTLE WEED,NETTLE WEED,NETTLE WEED,NETTLE WEED","20,20,20,20,20,20,20,20","20,20,20,20,20,20,20,20","10,10,10,10,10,10,10,10","20,20,20,20,20,20,20,20","0,0,0,0,0,0,0,0","20,20,20,20,20,20,20,20","20,20,20,20,20,20,20,20","20,20,20,20,20,20,20,20","10,10,10,10,10,10,10,10","20,20,20,20,20,20,20,20","0,0,0,0,0,0,0,0","20,20,20,20,20,20,20,20","0,0,0,0,1,1,1,1","4331,554,516,1562,3313,577,1031,650","11.997325474967939,51.72710091004055,25.522321574412594,19.100839193061727,14.491274270286949,-27.853566222253914,-4.314471909918854,1.6080377920432114","44.07543270580423,13.945182195705108,31.53085447679551,27.37055013709647,-23.656968243668246,-3.950565229383172,-12.661497383626902,-16.266503674807087","0","0"
"427","86","text","0","157","1563959","0-0","","","","","","","","","","","","","","","","","","","","","","","","","","","","","","","","","","","","",""
"","","plant-game","0","158","1574527","0-0","","200","160","2","CORN CROP","Left","200","160","1","THISTLE WEED","experimental","66","1,2","160,157.67043428296137","2,1","CORN CROP,CORN CROP","160,190","1,1","THISTLE WEED,NETTLE WEED","20,20","20,20","10,10","20,20","0,0","20,20","20,20","20,20","10,10","20,20","0,0","20,20","0,1","2150,3156","-2.329565717038623,10.5183618782711","37.305362791997794,-0.3526204631266111","0","0"
"489","86","text","0","159","1575156","0-0","","","","","","","","","","","","","","","","","","","","","","","","","","","","","","","","","","","","",""
"","","plant-game","0","160","1587277","0-0","","200","180","4","CORN CROP","Right","200","160","1","NETTLE WEED","experimental","67","1,2,3,4","160,170,171.15179825766404,187.82189720099308","1,3,2,1","NETTLE WEED,THISTLE WEED,THISTLE WEED,THISTLE WEED","180,175.42353262381454,190.2748988279473,237.7163255234841","4,3,2,1","CORN CROP,CORN CROP,CORN CROP,CORN CROP","0,0,0,0","20,20,20,20","10,10,10,10","20,20,20,20","20,20,20,20","20,20,20,20","0,0,0,0","20,20,20,20","10,10,10,10","20,20,20,20","20,20,20,20","20,20,20,20","0,1,1,0","3666,1040,719,1884","7.686303315122009,1.1517982576640406,16.670098943329027,21.190401231429412","-4.576467376185473,14.851366204132777,47.44142669553678,65.30970769052288","0","0"
"530","86","text","0","161","1587927","0-0","","","","","","","","","","","","","","","","","","","","","","","","","","","","","","","","","","","","",""
"","","plant-game","0","162","1601227","0-0","","200","160","8","CORN CROP","Right","200","190","8","THISTLE WEED","experimental","68","1,2,3,4,5,6,7,8","190,195.57379483974847,223.61940214836392,265.3755176722258,252.78552022931035,292.8639903598839,303.8923380559329,361.92555785082664","8,7,6,5,4,3,2,1","THISTLE WEED,THISTLE WEED,THISTLE WEED,THISTLE WEED,THISTLE WEED,THISTLE WEED,THISTLE WEED,THISTLE WEED","160,169.08280159161825,182.70612427653825,218.16579456448818,234.53879414637763,277.08103697174204,329.3625725911405,354.8545648909443","8,7,6,5,4,3,2,1","CORN CROP,CORN CROP,CORN CROP,CORN CROP,CORN CROP,CORN CROP,CORN CROP,CORN CROP","0,0,0,0,0,0,0,0","20,20,20,20,20,20,20,20","10,10,10,10,10,10,10,10","20,20,20,20,20,20,20,20","20,20,20,20,20,20,20,20","20,20,20,20,20,20,20,20","0,0,0,0,0,0,0,0","20,20,20,20,20,20,20,20","10,10,10,10,10,10,10,10","20,20,20,20,20,20,20,20","20,20,20,20,20,20,20,20","20,20,20,20,20,20,20,20","1,1,1,1,1,1,1,1","4136,586,583,639,746,597,490,704","5.57379483974848,28.045607308615455,41.756115523861865,-12.58999744291544,40.078470130573606,11.02834769604897,58.03321979489373,42.16592511774587","9.082801591618264,13.62332268491999,35.45967028794993,16.372999581889445,42.54224282536439,52.28153561939847,25.491992299803776,5.448581865637577","0","0"
"874","86","text","0","163","1602231","0-0","","","","","","","","","","","","","","","","","","","","","","","","","","","","","","","","","","","","",""
"","","plant-game","0","164","1614622","0-0","","200","190","4","CORN CROP","Left","200","180","1","THISTLE WEED","experimental","69","1,2,3,4","190,145.6256744406194,113.95960260587378,112.05626895719836","4,3,2,1","CORN CROP,CORN CROP,CORN CROP,CORN CROP","180,170,178.82355696843132,159.0251507966933","1,3,2,1","THISTLE WEED,NETTLE WEED,NETTLE WEED,NETTLE WEED","20,20,20,20","20,20,20,20","10,10,10,10","20,20,20,20","0,0,0,0","20,20,20,20","20,20,20,20","20,20,20,20","10,10,10,10","20,20,20,20","0,0,0,0","20,20,20,20","1,0,1,1","3410,645,2388,418","-44.37432555938059,-31.666071834745622,-1.9033336486754213,-8.180843498819463","9.529691606448992,8.823556968431314,-19.798406171737998,-22.25931038436059","0","0"
"614","86","text","0","165","1615392","0-0","","","","","","","","","","","","","","","","","","","","","","","","","","","","","","","","","","","","",""
"","","plant-game","0","166","1639331","0-0","","200","160","1","WHEAT CROP","Right","200","180","4","NETTLE WEED","experimental","70","1,2,3,4","180,201.70261772791736,201.5892553841652,212.1318846050649","4,3,2,1","NETTLE WEED,NETTLE WEED,NETTLE WEED,NETTLE WEED","160,170,191.66805182933825,210.79073171146774","1,3,2,1","WHEAT CROP,CORN CROP,CORN CROP,CORN CROP","0,0,0,0","20,20,20,20","10,10,10,10","20,20,20,20","20,20,20,20","20,20,20,20","0,0,0,0","20,20,20,20","10,10,10,10","20,20,20,20","20,20,20,20","20,20,20,20","0,1,1,1","2154,12872,502,1128","21.702617727917346,-0.11336234375215781,10.542629220899688,18.317426819779794","37.23685847220156,21.66805182933825,19.122679882129482,44.582193594612264","0","0"
"470","86","text","0","167","1639984","0-0","","","","","","","","","","","","","","","","","","","","","","","","","","","","","","","","","","","","",""
"","","plant-game","0","168","1656590","0-0","","200","160","4","CORN CROP","Left","200","180","2","NETTLE WEED","experimental","71","1,2,3,4","160,165.01705659312955,158.8021145157942,178.6811651705391","4,3,2,1","CORN CROP,CORN CROP,CORN CROP,CORN CROP","180,198.99516048711024,180,204.06703462159788","2,1,2,1","NETTLE WEED,NETTLE WEED,THISTLE WEED,THISTLE WEED","20,20,20,20","20,20,20,20","10,10,10,10","20,20,20,20","0,0,0,0","20,20,20,20","20,20,20,20","20,20,20,20","10,10,10,10","20,20,20,20","0,0,0,0","20,20,20,20","1,1,1,0","4474,1692,3705,1102","5.017056593129555,-6.214942077335356,19.87905065474489,16.42870305092965","18.995160487110237,-10.427073422583899,24.067034621597877,2.691283025250314","0","0"
"503","86","text","0","169","1657235","0-0","","","","","","","","","","","","","","","","","","","","","","","","","","","","","","","","","","","","",""
"","","plant-game","0","170","1670906","0-0","","200","120","1","CORN CROP","Left","200","180","2","NETTLE WEED","experimental","72","1,2","120,190","1,1","CORN CROP,WHEAT CROP","180,180.98365408674337","2,1","NETTLE WEED,NETTLE WEED","20,20","20,20","10,10","20,20","0,0","20,20","20,20","20,20","10,10","20,20","0,0","20,20","1,0","4648,3675","26.057960035152643,27.11719393228837","0.9836540867433756,-0.8183738116550359","0","0"
"569","86","text","0","171","1671625","0-0","","","","","","","","","","","","","","","","","","","","","","","","","","","","","","","","","","","","",""
"","","plant-game","0","172","1694072","0-0","","200","190","8","WHEAT CROP","Right","200","190","2","NETTLE WEED","experimental","73","1,2,3,4,5,6,7,8","190,178.93949745325577,140,123.05091058868766,142.29954105327997,160.86047326934073,125.75070637018484,120.33761889353717","2,1,6,5,4,3,2,1","NETTLE WEED,NETTLE WEED,THISTLE WEED,THISTLE WEED,THISTLE WEED,THISTLE WEED,THISTLE WEED,THISTLE WEED","190,209.25516211960888,219.49980494499076,229.90665170774253,220.99598078939243,230.00006734989992,255.1691590790835,262.8420008634422","8,7,6,5,4,3,2,1","WHEAT CROP,WHEAT CROP,WHEAT CROP,WHEAT CROP,WHEAT CROP,WHEAT CROP,WHEAT CROP,WHEAT CROP","0,0,0,0,0,0,0,0","20,20,20,20,20,20,20,20","10,10,10,10,10,10,10,10","20,20,20,20,20,20,20,20","20,20,20,20,20,20,20,20","20,20,20,20,20,20,20,20","0,0,0,0,0,0,0,0","20,20,20,20,20,20,20,20","10,10,10,10,10,10,10,10","20,20,20,20,20,20,20,20","20,20,20,20,20,20,20,20","20,20,20,20,20,20,20,20","0,0,0,0,1,0,0,0","8577,902,2626,648,893,934,792,924","-11.060502546744232,30.858348909333802,-16.949089411312343,19.248630464592317,18.56093221606076,-35.10976689915588,-5.413087476647681,17.001688292923276","19.25516211960888,10.24464282538187,10.406846762751773,-8.910670918350093,9.004086560507481,25.169091729183563,7.672841784358716,-4.418267378858781","0","0"
"451","86","text","0","173","1694643","0-0","","","","","","","","","","","","","","","","","","","","","","","","","","","","","","","","","","","","",""
"","","plant-game","0","174","1701540","0-0","","200","160","1","WHEAT CROP","Left","200","120","1","NETTLE WEED","experimental","74","1","160","1","WHEAT CROP","120","1","NETTLE WEED","20","20","10","20","0","20","20","20","10","20","0","20","0","3631","-33.02310057869572","28.486484566605185","0","0"
"672","86","text","0","175","1702353","0-0","","","","","","","","","","","","","","","","","","","","","","","","","","","","","","","","","","","","",""
"","","plant-game","0","176","1713737","0-0","","200","190","1","CORN CROP","Left","200","160","4","NETTLE WEED","experimental","75","1,2,3,4","190,170,185.65815047140327,183.10465935808722","1,3,2,1","CORN CROP,WHEAT CROP,WHEAT CROP,WHEAT CROP","160,174.83897689686668,208.28282913267697,204.0168292305274","4,3,2,1","NETTLE WEED,NETTLE WEED,NETTLE WEED,NETTLE WEED","20,20,20,20","20,20,20,20","10,10,10,10","20,20,20,20","0,0,0,0","20,20,20,20","20,20,20,20","20,20,20,20","10,10,10,10","20,20,20,20","0,0,0,0","20,20,20,20","0,1,1,0","2260,3250,814,757","24.511103382618703,15.658150471403287,-2.55349111331606,1.4868246697109555","14.838976896866672,33.443852235810276,-4.265999902149554,4.9337261108310955","0","0"
"166","86","text","0","177","1714030","0-0","","","","","","","","","","","","","","","","","","","","","","","","","","","","","","","","","","","","",""
"","","plant-game","0","178","1734294","0-0","","200","160","2","CORN CROP","Left","200","190","8","THISTLE WEED","experimental","76","1,2,3,4,5,6,7,8","160,134.1110469643286,140,136.98778050237675,141.92150449125162,134.6174288592377,132.92497121074672,118.38042757184132","2,1,6,5,4,3,2,1","CORN CROP,CORN CROP,WHEAT CROP,WHEAT CROP,WHEAT CROP,WHEAT CROP,WHEAT CROP,WHEAT CROP","190,233.50424490286508,253.99166666017553,290.8150481144993,282.76292588521846,278.95863675394406,241.39678063688774,255.0075996190616","8,7,6,5,4,3,2,1","THISTLE WEED,THISTLE WEED,THISTLE WEED,THISTLE WEED,THISTLE WEED,THISTLE WEED,THISTLE WEED,THISTLE WEED","20,20,20,20,20,20,20,20","20,20,20,20,20,20,20,20","10,10,10,10,10,10,10,10","20,20,20,20,20,20,20,20","0,0,0,0,0,0,0,0","20,20,20,20,20,20,20,20","20,20,20,20,20,20,20,20","20,20,20,20,20,20,20,20","10,10,10,10,10,10,10,10","20,20,20,20,20,20,20,20","0,0,0,0,0,0,0,0","20,20,20,20,20,20,20,20","0,0,0,0,0,1,0,1","2604,1327,7562,613,413,661,1622,438","-25.888953035671385,6.25067603230606,-3.0122194976232564,4.933723988874874,-7.304075632013941,-1.6924576484909812,-14.544543638905395,9.000548856580554","43.50424490286507,20.487421757310432,36.823381454323744,-8.052122229280808,-3.8042891312743947,-37.561856117056315,13.61081898217386,35.367824215645115","0","0"
"488","86","text","0","179","1734918","0-0","","","","","","","","","","","","","","","","","","","","","","","","","","","","","","","","","","","","",""
"","","plant-game","0","180","1744785","0-0","","200","120","1","CORN CROP","Right","200","180","4","NETTLE WEED","experimental","77","1,2,3,4","180,161.76673399395946,175.2672478087027,242.11366742169005","4,3,2,1","NETTLE WEED,NETTLE WEED,NETTLE WEED,NETTLE WEED","120,170,200.6951726243188,236.25756044047668","1,3,2,1","CORN CROP,WHEAT CROP,WHEAT CROP,WHEAT CROP","0,0,0,0","20,20,20,20","10,10,10,10","20,20,20,20","20,20,20,20","20,20,20,20","0,0,0,0","20,20,20,20","10,10,10,10","20,20,20,20","20,20,20,20","20,20,20,20","0,1,1,1","1661,1123,1778,814","-18.233266006040548,13.500513814743247,66.84641961298735,-13.353579015867368","-25.75229436375263,30.695172624318772,35.5623878161579,43.16262333262196","0","0"
"140","86","text","0","181","1745045","0-0","","","","","","","","","","","","","","","","","","","","","","","","","","","","","","","","","","","","",""
"","","plant-game","0","182","1757856","0-0","","200","120","1","WHEAT CROP","Right","200","120","8","NETTLE WEED","experimental","78","1,2,3,4,5,6,7,8","120,110.58987446696922,106.57483909629413,100.76229673088946,116.08870460391526,89.56926520401558,158.7353693500379,167.15481155389656","8,7,6,5,4,3,2,1","NETTLE WEED,NETTLE WEED,NETTLE WEED,NETTLE WEED,NETTLE WEED,NETTLE WEED,NETTLE WEED,NETTLE WEED","120,130,116.84672636552284,139.77340635212423,172.30991434823022,191.29985019162427,201.87093161227747,242.7689020226656","1,7,6,5,4,3,2,1","WHEAT CROP,CORN CROP,CORN CROP,CORN CROP,CORN CROP,CORN CROP,CORN CROP,CORN CROP","0,0,0,0,0,0,0,0","20,20,20,20,20,20,20,20","10,10,10,10,10,10,10,10","20,20,20,20,20,20,20,20","20,20,20,20,20,20,20,20","20,20,20,20,20,20,20,20","0,0,0,0,0,0,0,0","20,20,20,20,20,20,20,20","10,10,10,10,10,10,10,10","20,20,20,20,20,20,20,20","20,20,20,20,20,20,20,20","20,20,20,20,20,20,20,20","0,0,1,1,0,1,1,1","2155,1076,706,339,546,450,1241,547","-9.410125533030785,-4.015035370675091,-5.81254236540466,15.326407873025794,-26.519439399899674,69.16610414602233,8.41944220385866,24.691503897052602","23.23435992203338,-13.15327363447716,22.926679986601386,32.53650799610601,18.98993584339405,10.571081420653194,40.89797041038814,30.252472864858156","0","0"
"597","86","text","0","183","1758593","0-0","","","","","","","","","","","","","","","","","","","","","","","","","","","","","","","","","","","","",""
"","","plant-game","0","184","1771726","0-0","","200","180","8","CORN CROP","Right","200","180","2","NETTLE WEED","experimental","79","1,2,3,4,5,6,7,8","180,163.84448580450095,140,148.83486235087776,152.55444206878605,215.65100034609446,217.9876436420121,235.0793991050169","2,1,6,5,4,3,2,1","NETTLE WEED,NETTLE WEED,THISTLE WEED,THISTLE WEED,THISTLE WEED,THISTLE WEED,THISTLE WEED,THISTLE WEED","180,186.5705899540121,205.54236407074967,239.01943306657427,264.4542386604757,293.0494388719229,293.66808098695213,316.7869640735333","8,7,6,5,4,3,2,1","CORN CROP,CORN CROP,CORN CROP,CORN CROP,CORN CROP,CORN CROP,CORN CROP,CORN CROP","0,0,0,0,0,0,0,0","20,20,20,20,20,20,20,20","10,10,10,10,10,10,10,10","20,20,20,20,20,20,20,20","20,20,20,20,20,20,20,20","20,20,20,20,20,20,20,20","0,0,0,0,0,0,0,0","20,20,20,20,20,20,20,20","10,10,10,10,10,10,10,10","20,20,20,20,20,20,20,20","20,20,20,20,20,20,20,20","20,20,20,20,20,20,20,20","0,0,1,1,1,0,0,1","2648,476,1649,753,586,781,435,619","-16.15551419549906,-1.9869685785495284,8.83486235087776,3.719579717908289,63.09655827730843,2.3366432959176513,17.09175546300479,28.263530153967697","6.570589954012103,18.97177411673757,33.47706899582461,25.43480559390144,28.595200211447235,0.6186421150292002,23.11888308658114,14.303314714755821","0","0"
"172","86","text","0","185","1772062","0-0","","","","","","","","","","","","","","","","","","","","","","","","","","","","","","","","","","","","",""
"","","plant-game","0","186","1778219","0-0","","200","180","2","WHEAT CROP","Right","200","160","1","NETTLE WEED","experimental","80","1,2","160,190","1,1","NETTLE WEED,THISTLE WEED","180,185.09472418598247","2,1","WHEAT CROP,WHEAT CROP","0,0","20,20","10,10","20,20","20,20","20,20","0,0","20,20","10,10","20,20","20,20","20,20","1,1","901,579","92.37333338623105,33.912084552614274","5.094724185982466,18.453127608081445","0","0"
"7780","86","text","0","187","1786139","0-0","","","","","","","","","","","","","","","","","","","","","","","","","","","","","","","","","","","","",""
"","","plant-game","0","188","1811581","0-0","","200","120","1","CORN CROP","Right","200","190","8","NETTLE WEED","experimental","81","1,2,3,4,5,6,7,8","190,170.74716529974404,199.14530748051573,207.33992098794084,212.1031038485087,209.10605736292356,200.55619301805282,204.12660956692721","8,7,6,5,4,3,2,1","NETTLE WEED,NETTLE WEED,NETTLE WEED,NETTLE WEED,NETTLE WEED,NETTLE WEED,NETTLE WEED,NETTLE WEED","120,130,122.65560557196011,141.0363520160048,168.82482210364856,166.32827480092305,147.0185692478944,135.8997233972942","1,7,6,5,4,3,2,1","CORN CROP,WHEAT CROP,WHEAT CROP,WHEAT CROP,WHEAT CROP,WHEAT CROP,WHEAT CROP,WHEAT CROP","0,0,0,0,0,0,0,0","20,20,20,20,20,20,20,20","10,10,10,10,10,10,10,10","20,20,20,20,20,20,20,20","20,20,20,20,20,20,20,20","20,20,20,20,20,20,20,20","0,0,0,0,0,0,0,0","20,20,20,20,20,20,20,20","10,10,10,10,10,10,10,10","20,20,20,20,20,20,20,20","20,20,20,20,20,20,20,20","20,20,20,20,20,20,20,20","0,0,0,0,0,1,1,1","13200,2284,869,640,713,488,382,1197","-19.252834700255953,28.39814218077169,8.19461350742513,4.763182860567869,-2.997046485585146,-8.549864344870741,3.570416548874398,47.364339882993974","-27.487845035291198,-7.344394428039889,18.38074644404468,27.78847008764376,-2.4965473027255043,-19.309705553028678,-11.118845850600195,16.220648712273114","0","0"
"267","86","text","0","189","1811918","0-0","","","","","","","","","","","","","","","","","","","","","","","","","","","","","","","","","","","","",""
"","","plant-game","0","190","1823820","0-0","","200","180","1","WHEAT CROP","Right","200","190","1","NETTLE WEED","experimental","82","1","190","1","NETTLE WEED","180","1","WHEAT CROP","0","20","10","20","20","20","0","20","10","20","20","20","0","6522","-3.27752259908606","-0.5384890726657433","0","0"
"568","86","text","0","191","1824544","0-0","","","","","","","","","","","","","","","","","","","","","","","","","","","","","","","","","","","","",""
"","","plant-game","0","192","1834292","0-0","","200","120","4","WHEAT CROP","Right","200","190","2","THISTLE WEED","experimental","83","1,2,3,4","190,204.66549333649937,180,174.93262071200294","2,1,2,1","THISTLE WEED,THISTLE WEED,NETTLE WEED,NETTLE WEED","120,132.1082705548978,112.35170313437314,119.24715559201607","4,3,2,1","WHEAT CROP,WHEAT CROP,WHEAT CROP,WHEAT CROP","0,0,0,0","20,20,20,20","10,10,10,10","20,20,20,20","20,20,20,20","20,20,20,20","0,0,0,0","20,20,20,20","10,10,10,10","20,20,20,20","20,20,20,20","20,20,20,20","1,0,1,1","1932,586,2137,1185","14.665493336499356,-14.2941958574539,-5.067379287997046,10.865568451450539","12.108270554897818,-19.756567420524668,6.89545245764293,-25.56651016106276","0","0"
"650","86","text","0","193","1835072","0-0","","","","","","","","","","","","","","","","","","","","","","","","","","","","","","","","","","","","",""
"","","plant-game","0","194","1851357","0-0","","200","180","2","CORN CROP","Left","200","120","1","THISTLE WEED","experimental","84","1,2","180,197.00845421736108","2,1","CORN CROP,CORN CROP","120,190","1,1","THISTLE WEED,NETTLE WEED","20,20","20,20","10,10","20,20","0,0","20,20","20,20","20,20","10,10","20,20","0,0","20,20","0,0","10501,742","17.00845421736107,42.54562019669302","29.507761257233298,46.24054329484689","0","0"
"795","86","text","0","195","1852312","0-0","","","","","","","","","","","","","","","","","","","","","","","","","","","","","","","","","","","","",""
"","","plant-game","0","196","1865325","0-0","","200","180","1","CORN CROP","Left","200","180","8","NETTLE WEED","experimental","85","1,2,3,4,5,6,7,8","180,130,112.91226969764982,132.23445154400721,132.58260197504538,158.68514992930415,176.29359236207077,191.15361271428827","1,7,6,5,4,3,2,1","CORN CROP,WHEAT CROP,WHEAT CROP,WHEAT CROP,WHEAT CROP,WHEAT CROP,WHEAT CROP,WHEAT CROP","180,204.98800846515297,164.49215028951096,169.1739144586169,203.69736853344892,202.1593543565915,198.87533492472105,194.12354315268612","8,7,6,5,4,3,2,1","NETTLE WEED,NETTLE WEED,NETTLE WEED,NETTLE WEED,NETTLE WEED,NETTLE WEED,NETTLE WEED,NETTLE WEED","20,20,20,20,20,20,20,20","20,20,20,20,20,20,20,20","10,10,10,10,10,10,10,10","20,20,20,20,20,20,20,20","0,0,0,0,0,0,0,0","20,20,20,20,20,20,20,20","20,20,20,20,20,20,20,20","20,20,20,20,20,20,20,20","10,10,10,10,10,10,10,10","20,20,20,20,20,20,20,20","0,0,0,0,0,0,0,0","20,20,20,20,20,20,20,20","0,1,1,1,1,1,1,1","2355,1612,809,570,873,607,776,566","54.85265933150104,-17.087730302350185,19.3221818463574,0.34815043103815196,26.102547954258753,17.608442432766623,14.860020352217507,1.8081963561884473","24.98800846515298,-40.49585817564201,4.681764169105941,34.52345407483202,-1.5380141768574294,-3.28401943187047,-4.751791772034926,19.21958522043175","0","0"
"610","86","text","0","197","1866095","0-0","","","","","","","","","","","","","","","","","","","","","","","","","","","","","","","","","","","","",""
"","","plant-game","0","198","1878660","0-0","","200","160","8","WHEAT CROP","Right","200","180","8","THISTLE WEED","experimental","86","1,2,3,4,5,6,7,8","180,179.78243861965373,166.1373043396437,170.69918597565982,174.523261825605,219.56862877802922,203.64719940637897,223.4482705242189","8,7,6,5,4,3,2,1","THISTLE WEED,THISTLE WEED,THISTLE WEED,THISTLE WEED,THISTLE WEED,THISTLE WEED,THISTLE WEED,THISTLE WEED","160,165.9410020096322,182.31727999096273,178.28328784895626,179.8512579753215,209.65008944254114,165.03301571001563,165.373898966549","8,7,6,5,4,3,2,1","WHEAT CROP,WHEAT CROP,WHEAT CROP,WHEAT CROP,WHEAT CROP,WHEAT CROP,WHEAT CROP,WHEAT CROP","0,0,0,0,0,0,0,0","20,20,20,20,20,20,20,20","10,10,10,10,10,10,10,10","20,20,20,20,20,20,20,20","20,20,20,20,20,20,20,20","20,20,20,20,20,20,20,20","0,0,0,0,0,0,0,0","20,20,20,20,20,20,20,20","10,10,10,10,10,10,10,10","20,20,20,20,20,20,20,20","20,20,20,20,20,20,20,20","20,20,20,20,20,20,20,20","0,0,1,0,1,0,1,1","2928,1312,570,719,484,1442,634,635","-0.21756138034627076,-13.645134280010032,4.561881636016112,3.8240758499451917,45.04536695242421,-15.921429371650252,19.80107111783994,24.41812295558555","5.941002009632203,16.376277981330546,-4.033992142006454,1.5679701263652164,29.79883146721965,-44.617073732525505,0.3408832565333846,55.89471934089653","0","0"
