"rt","key_press","trial_type","trial_index","trial_index_global","time_elapsed","internal_chunk_id","responses","experimental_goal_height","experimental_start_height","experimental_weeks_total","experimental_crop_type","experimental_crop_side","fixed_goal_height","fixed_start_height","fixed_weeks_total","fixed_crop_type","trial_kind","trial_number","stage","left_current_height","left_weeks_remaining","left_crop_type","right_current_height","right_weeks_remaining","right_crop_type","mean_left_growth_given_left","sd_left_growth_given_left","mean_left_growth_given_middle","sd_left_growth_given_middle","mean_left_growth_given_right","sd_left_growth_given_right","mean_right_growth_given_left","sd_right_growth_given_left","mean_right_growth_given_middle","sd_right_growth_given_middle","mean_right_growth_given_right","sd_right_growth_given_right","response","response_time","left_growth","right_growth","other_key_pressed","mouse_clicked"
"4922860","87","text","0","0","4923050","0-0","","","","","","","","","","","","","","","","","","","","","","","","","","","","","","","","","","","","",""
"5702","","survey-text","0","1","4929762","0-0","{""Q0"":""25""}","","","","","","","","","","","","","","","","","","","","","","","","","","","","","","","","","","","",""
"6555","86","text","0","2","6648","0-0","","","","","","","","","","","","","","","","","","","","","","","","","","","","","","","","","","","","",""
"","","plant-game","0","3","88647","0-0","","200","120","8","WHEAT CROP","Right","200","120","8","THISTLE WEED","practice","1","1,2,3,4,5,6,7,8","120,142.09566682886455,138.77972670823692,155.05960142047806,198.30924543677617,196.10588204337094,227.24113716007216,223.51790527611536","8,7,6,5,4,3,2,1","THISTLE WEED,THISTLE WEED,THISTLE WEED,THISTLE WEED,THISTLE WEED,THISTLE WEED,THISTLE WEED,THISTLE WEED","120,136.9772001594074,184.65596402077523,234.07683832307328,235.3368900679363,279.24512743702047,316.77407119574826,321.14936212433946","8,7,6,5,4,3,2,1","WHEAT CROP,WHEAT CROP,WHEAT CROP,WHEAT CROP,WHEAT CROP,WHEAT CROP,WHEAT CROP,WHEAT CROP","0,0,0,0,0,0,0,0","20,20,20,20,20,20,20,20","10,10,10,10,10,10,10,10","20,20,20,20,20,20,20,20","20,20,20,20,20,20,20,20","20,20,20,20,20,20,20,20","0,0,0,0,0,0,0,0","20,20,20,20,20,20,20,20","10,10,10,10,10,10,10,10","20,20,20,20,20,20,20,20","20,20,20,20,20,20,20,20","20,20,20,20,20,20,20,20","1,1,1,1,1,1,0,0","12623,523,1299,5112,640,538,9342,465","22.095666828864555,-3.3159401206276264,16.279874712241142,43.24964401629809,-2.203363393405237,31.13525511670121,-3.7232318839568035,-38.53458216533266","16.977200159407417,47.67876386136782,49.420874302298046,1.2600517448630235,43.90823736908414,37.528943758727806,4.3752909285911805,-22.15459083946118","0","0"
"1221","86","text","0","4","90071","0-0","","","","","","","","","","","","","","","","","","","","","","","","","","","","","","","","","","","","",""
"","","plant-game","0","5","127535","0-0","","200","160","4","WHEAT CROP","Left","200","160","4","THISTLE WEED","practice","2","1,2,3,4","160,164.72689027716675,195.69263327294615,179.09215048966945","4,3,2,1","WHEAT CROP,WHEAT CROP,WHEAT CROP,WHEAT CROP","160,194.4233949170188,198.19083696111068,188.65089872666206","4,3,2,1","THISTLE WEED,THISTLE WEED,THISTLE WEED,THISTLE WEED","20,20,20,20","20,20,20,20","10,10,10,10","20,20,20,20","0,0,0,0","20,20,20,20","20,20,20,20","20,20,20,20","10,10,10,10","20,20,20,20","0,0,0,0","20,20,20,20","0,1,1,0","5016,2520,1246,1313","4.726890277166753,30.96574299577942,-16.60048278327671,-3.489638974383311","34.4233949170188,3.767442044091852,-9.539938234448623,15.425600476211574","0","0"
"3669","86","text","0","6","131404","0-0","","","","","","","","","","","","","","","","","","","","","","","","","","","","","","","","","","","","",""
"","","plant-game","0","7","159018","0-0","","200","180","2","CORN CROP","Right","200","180","2","NETTLE WEED","practice","3","1,2","180,197.32334150276023","2,1","NETTLE WEED,NETTLE WEED","180,189.03337482695193","2,1","CORN CROP,CORN CROP","0,0","20,20","10,10","20,20","20,20","20,20","0,0","20,20","10,10","20,20","20,20","20,20","1,0","4351,6592","17.323341502760222,-28.868452012526053","9.033374826951936,41.055210068350036","0","0"
"1010","86","text","0","8","160208","0-0","","","","","","","","","","","","","","","","","","","","","","","","","","","","","","","","","","","","",""
"","","plant-game","0","9","181827","0-0","","200","190","1","CORN CROP","Left","200","190","1","THISTLE WEED","practice","4","1","190","1","CORN CROP","190","1","THISTLE WEED","20","20","10","20","0","20","20","20","10","20","0","20","0","1559","26.992299408946472","50.169593118110505","0","0"
"3326","86","text","0","10","185323","0-0","","","","","","","","","","","","","","","","","","","","","","","","","","","","","","","","","","","","",""
"","","plant-game","0","11","216359","0-0","","200","120","8","WHEAT CROP","Left","200","160","8","THISTLE WEED","practice","5","1,2,3,4,5,6,7,8","120,136.11347207168117,129.4105672660806,144.82049384194508,182.38813225186428,176.7435733439767,157.90925309580535,152.58689752379394","8,7,6,5,4,3,2,1","WHEAT CROP,WHEAT CROP,WHEAT CROP,WHEAT CROP,WHEAT CROP,WHEAT CROP,WHEAT CROP,WHEAT CROP","160,199.99124213989373,200.26311270588596,178.26809093550864,208.49953988047452,245.50320597197867,256.0784133817918,259.20672478128074","8,7,6,5,4,3,2,1","THISTLE WEED,THISTLE WEED,THISTLE WEED,THISTLE WEED,THISTLE WEED,THISTLE WEED,THISTLE WEED,THISTLE WEED","20,20,20,20,20,20,20,20","20,20,20,20,20,20,20,20","10,10,10,10,10,10,10,10","20,20,20,20,20,20,20,20","0,0,0,0,0,0,0,0","20,20,20,20,20,20,20,20","20,20,20,20,20,20,20,20","20,20,20,20,20,20,20,20","10,10,10,10,10,10,10,10","20,20,20,20,20,20,20,20","0,0,0,0,0,0,0,0","20,20,20,20,20,20,20,20","0,1,1,1,1,0,1,0","2347,2064,967,466,879,1889,1269,1668","16.113472071681173,-6.702904805600585,15.409926575864478,37.567638409919205,-5.644558907887588,-18.834320248171352,-5.322355572011404,-17.91133610249787","39.99124213989373,0.27187056599223763,-21.995021770377313,30.23144894496587,37.00366609150417,10.57520740981314,3.1283113994889455,0.15510147039352518","0","0"
"1000","86","text","0","12","217599","0-0","","","","","","","","","","","","","","","","","","","","","","","","","","","","","","","","","","","","",""
"","","plant-game","0","13","245554","0-0","","200","180","4","WHEAT CROP","Right","200","160","4","NETTLE WEED","practice","6","1,2,3,4","160,175.7136733400735,212.38884715294006,226.47197133210298","4,3,2,1","NETTLE WEED,NETTLE WEED,NETTLE WEED,NETTLE WEED","180,210.7672153706064,235.6153118741325,277.28102996723476","4,3,2,1","WHEAT CROP,WHEAT CROP,WHEAT CROP,WHEAT CROP","0,0,0,0","20,20,20,20","10,10,10,10","20,20,20,20","20,20,20,20","20,20,20,20","0,0,0,0","20,20,20,20","10,10,10,10","20,20,20,20","20,20,20,20","20,20,20,20","1,1,0,1","3197,2817,2045,1746","15.71367334007352,36.67517381286656,14.083124179162933,-12.632586818027953","30.767215370606404,24.84809650352609,41.6657180931023,56.28422512737122","0","0"
"1095","86","text","0","14","246859","0-0","","","","","","","","","","","","","","","","","","","","","","","","","","","","","","","","","","","","",""
"","","plant-game","0","15","265428","0-0","","200","180","2","CORN CROP","Right","200","190","2","NETTLE WEED","practice","7","1,2","190,208.16733967156506","2,1","NETTLE WEED,NETTLE WEED","180,216.61152347054895","2,1","CORN CROP,CORN CROP","0,0","20,20","10,10","20,20","20,20","20,20","0,0","20,20","10,10","20,20","20,20","20,20","1,0","1858,3434","18.167339671565067,-20.249628371917147","36.611523470548946,11.192139554662358","0","0"
"664","86","text","0","16","266282","0-0","","","","","","","","","","","","","","","","","","","","","","","","","","","","","","","","","","","","",""
"","","plant-game","0","17","309293","0-0","","200","120","4","WHEAT CROP","Left","200","120","8","THISTLE WEED","practice","8","1,2,3,4,5,6,7,8","120,147.6190868098115,157.40407342495692,226.0358098510933,160,171.21247858195525,211.3155527366149,217.50942911669267","4,3,2,1,4,3,2,1","WHEAT CROP,WHEAT CROP,WHEAT CROP,WHEAT CROP,CORN CROP,CORN CROP,CORN CROP,CORN CROP","120,119.75535990665993,117.52236674687425,154.33821463331003,158.3099805716047,153.71351235337278,176.7232911198496,202.02205894091344","8,7,6,5,4,3,2,1","THISTLE WEED,THISTLE WEED,THISTLE WEED,THISTLE WEED,THISTLE WEED,THISTLE WEED,THISTLE WEED,THISTLE WEED","20,20,20,20,20,20,20,20","20,20,20,20,20,20,20,20","10,10,10,10,10,10,10,10","20,20,20,20,20,20,20,20","0,0,0,0,0,0,0,0","20,20,20,20,20,20,20,20","20,20,20,20,20,20,20,20","20,20,20,20,20,20,20,20","10,10,10,10,10,10,10,10","20,20,20,20,20,20,20,20","0,0,0,0,0,0,0,0","20,20,20,20,20,20,20,20","0,0,0,0,0,0,0,1","1478,1049,571,1937,7844,662,835,2276","27.619086809811506,9.784986615145407,68.63173642613637,33.7847411289186,11.21247858195524,40.103074154659666,6.193876380077775,-26.467866090279607","-0.2446400933400703,-2.232993159785682,36.81584788643576,3.9717659382946806,-4.596468218231919,23.00977876647682,25.29876782106384,6.571258907720444","0","0"
"1871","86","text","0","18","311374","0-0","","","","","","","","","","","","","","","","","","","","","","","","","","","","","","","","","","","","",""
"","","plant-game","0","19","348613","0-0","","200","160","4","WHEAT CROP","Left","200","160","2","THISTLE WEED","practice","9","1,2,3,4","160,188.4388784383442,224.43002111665993,222.81772376124073","4,3,2,1","WHEAT CROP,WHEAT CROP,WHEAT CROP,WHEAT CROP","160,163.66772267691533,180,168.25782785717428","2,1,2,1","THISTLE WEED,THISTLE WEED,NETTLE WEED,NETTLE WEED","20,20,20,20","20,20,20,20","10,10,10,10","20,20,20,20","0,0,0,0","20,20,20,20","20,20,20,20","20,20,20,20","10,10,10,10","20,20,20,20","0,0,0,0","20,20,20,20","0,0,1,1","809,736,8227,964","28.43887843834422,35.991142678315725,-1.6122973554192066,8.42441500706525","3.6677226769153215,52.65317050577231,-11.742172142825734,16.719187978998328","0","0"
"1434","86","text","0","20","350218","0-0","","","","","","","","","","","","","","","","","","","","","","","","","","","","","","","","","","","","",""
"","","plant-game","0","21","388099","0-0","","200","180","2","WHEAT CROP","Right","200","180","1","NETTLE WEED","practice","10","1,2","180,190","1,1","NETTLE WEED,THISTLE WEED","180,198.59515171024813","2,1","WHEAT CROP,WHEAT CROP","0,0","20,20","10,10","20,20","20,20","20,20","0,0","20,20","10,10","20,20","20,20","20,20","1,1","1932,4979","-20.573060250413,29.560486974381412","18.59515171024814,42.10478871842356","0","0"
"2726","86","text","0","22","390935","0-0","","","","","","","","","","","","","","","","","","","","","","","","","","","","","","","","","","","","",""
"","","plant-game","0","23","428750","0-0","","200","120","8","WHEAT CROP","Right","200","160","4","NETTLE WEED","practice","11","1,2,3,4,5,6,7,8","160,170.98528526083038,204.0583175689488,234.19103172013095,160,207.66735763352895,232.1205051617698,265.4602871147656","4,3,2,1,4,3,2,1","NETTLE WEED,NETTLE WEED,NETTLE WEED,NETTLE WEED,THISTLE WEED,THISTLE WEED,THISTLE WEED,THISTLE WEED","120,146.80081904943495,177.4290636024453,179.74383263425045,172.4040221118418,204.24620020700578,233.21020472053692,242.97217147814416","8,7,6,5,4,3,2,1","WHEAT CROP,WHEAT CROP,WHEAT CROP,WHEAT CROP,WHEAT CROP,WHEAT CROP,WHEAT CROP,WHEAT CROP","0,0,0,0,0,0,0,0","20,20,20,20,20,20,20,20","10,10,10,10,10,10,10,10","20,20,20,20,20,20,20,20","20,20,20,20,20,20,20,20","20,20,20,20,20,20,20,20","0,0,0,0,0,0,0,0","20,20,20,20,20,20,20,20","10,10,10,10,10,10,10,10","20,20,20,20,20,20,20,20","20,20,20,20,20,20,20,20","20,20,20,20,20,20,20,20","1,1,0,1,1,0,1,1","1917,732,2832,1065,5278,1577,1077,3903","10.985285260830373,33.073032308118435,30.132714151182146,-1.32551889925114,47.66735763352895,24.453147528240855,33.33978195299578,-22.94847742358661","26.800819049434942,30.628244553010347,2.31476903180517,-7.339810522408634,31.842178095163966,28.964004513531126,9.761966757607235,2.2066531417949733","0","0"
"707","86","text","0","24","429677","0-0","","","","","","","","","","","","","","","","","","","","","","","","","","","","","","","","","","","","",""
"","","plant-game","0","25","472149","0-0","","200","180","2","CORN CROP","Left","200","160","4","NETTLE WEED","practice","12","1,2,3,4","180,209.76253678530162,180,204.32064388432826","2,1,2,1","CORN CROP,CORN CROP,WHEAT CROP,WHEAT CROP","160,169.75806729450554,207.0909277603847,218.4519615041541","4,3,2,1","NETTLE WEED,NETTLE WEED,NETTLE WEED,NETTLE WEED","20,20,20,20","20,20,20,20","10,10,10,10","20,20,20,20","0,0,0,0","20,20,20,20","20,20,20,20","20,20,20,20","10,10,10,10","20,20,20,20","0,0,0,0","20,20,20,20","0,0,1,0","1073,840,2995,3150","29.762536785301606,11.32556128834244,24.320643884328256,-9.49359164338814","9.758067294505546,37.33286046587916,11.36103374376942,23.9216728682824","0","0"
"692","86","text","0","26","473011","0-0","","","","","","","","","","","","","","","","","","","","","","","","","","","","","","","","","","","","",""
"19539","86","text","0","27","493700","0-0","","","","","","","","","","","","","","","","","","","","","","","","","","","","","","","","","","","","",""
"","","plant-game","0","28","532859","0-0","","200","190","8","CORN CROP","Left","200","120","2","THISTLE WEED","experimental","1","1,2,3,4,5,6,7,8","190,241.2516523662798,281.8085336936884,316.60524254960643,315.999604346446,351.40778169696375,365.19873897739257,338.4807780495185","8,7,6,5,4,3,2,1","CORN CROP,CORN CROP,CORN CROP,CORN CROP,CORN CROP,CORN CROP,CORN CROP,CORN CROP","120,173.01421545305922,140,187.0435099010975,211.95596678058843,206.02022461869177,254.39697237688108,255.95960703116342","2,1,6,5,4,3,2,1","THISTLE WEED,THISTLE WEED,NETTLE WEED,NETTLE WEED,NETTLE WEED,NETTLE WEED,NETTLE WEED,NETTLE WEED","20,20,20,20,20,20,20,20","20,20,20,20,20,20,20,20","10,10,10,10,10,10,10,10","20,20,20,20,20,20,20,20","0,0,0,0,0,0,0,0","20,20,20,20,20,20,20,20","20,20,20,20,20,20,20,20","20,20,20,20,20,20,20,20","10,10,10,10,10,10,10,10","20,20,20,20,20,20,20,20","0,0,0,0,0,0,0,0","20,20,20,20,20,20,20,20","0,0,0,1,0,0,1,1","12456,2443,3013,2764,1529,3046,989,977","51.25165236627981,40.556881327408576,34.79670885591803,-0.6056382031604314,35.40817735051776,13.790957280428835,-26.717960927874035,-8.092550743630627","53.014215453059215,30.710468935047114,47.0435099010975,24.91245687949093,-5.9357421618966555,48.3767477581893,1.5626346542823308,-4.9613226480735495","0","0"
"861","86","text","0","29","533940","0-0","","","","","","","","","","","","","","","","","","","","","","","","","","","","","","","","","","","","",""
"","","plant-game","0","30","566784","0-0","","200","180","4","WHEAT CROP","Right","200","120","1","NETTLE WEED","experimental","2","1,2,3,4","120,170,172.76136235713855,176.8697724481636","1,3,2,1","NETTLE WEED,THISTLE WEED,THISTLE WEED,THISTLE WEED","180,232.7012585088283,222.89877621309108,262.5437504729332","4,3,2,1","WHEAT CROP,WHEAT CROP,WHEAT CROP,WHEAT CROP","0,0,0,0","20,20,20,20","10,10,10,10","20,20,20,20","20,20,20,20","20,20,20,20","0,0,0,0","20,20,20,20","10,10,10,10","20,20,20,20","20,20,20,20","20,20,20,20","1,0,0,0","4855,6895,3606,2896","26.030596966328524,2.7613623571385624,4.108410091025043,5.313454344562399","52.701258508828296,-9.802482295737212,39.6449742598421,16.504775500108536","0","0"
"758","86","text","0","31","567761","0-0","","","","","","","","","","","","","","","","","","","","","","","","","","","","","","","","","","","","",""
"","","plant-game","0","32","596958","0-0","","200","190","1","CORN CROP","Left","200","190","2","NETTLE WEED","experimental","3","1,2","190,190","1,1","CORN CROP,WHEAT CROP","190,223.58778530848934","2,1","NETTLE WEED,NETTLE WEED","20,20","20,20","10,10","20,20","0,0","20,20","20,20","20,20","10,10","20,20","0,0","20,20","1,1","8964,7209","-29.09486521153817,21.34258365175953","33.58778530848936,14.17056196385154","0","0"
"968","86","text","0","33","598126","0-0","","","","","","","","","","","","","","","","","","","","","","","","","","","","","","","","","","","","",""
"","","plant-game","0","34","620289","0-0","","200","160","4","CORN CROP","Left","200","190","1","NETTLE WEED","experimental","4","1,2,3,4","160,175.49030190286538,193.79607266864625,209.42072494766288","4,3,2,1","CORN CROP,CORN CROP,CORN CROP,CORN CROP","190,170,177.7393351892865,142.64593867606422","1,3,2,1","NETTLE WEED,THISTLE WEED,THISTLE WEED,THISTLE WEED","20,20,20,20","20,20,20,20","10,10,10,10","20,20,20,20","0,0,0,0","20,20,20,20","20,20,20,20","20,20,20,20","10,10,10,10","20,20,20,20","0,0,0,0","20,20,20,20","1,0,1,1","6007,2687,3075,2483","15.490301902865387,18.305770765780863,15.62465227901663,2.7154639507572327","-9.298333240399245,7.739335189286482,-35.093396513222274,-8.837948353618868","0","0"
"703","86","text","0","35","621192","0-0","","","","","","","","","","","","","","","","","","","","","","","","","","","","","","","","","","","","",""
"","","plant-game","0","36","647668","0-0","","200","180","1","WHEAT CROP","Right","200","180","8","NETTLE WEED","experimental","5","1,2,3,4,5,6,7,8","180,225.798978390115,212.9934966710981,206.77504726627348,219.33454509181385,177.29995549701934,162.07218762900757,218.47800945266368","8,7,6,5,4,3,2,1","NETTLE WEED,NETTLE WEED,NETTLE WEED,NETTLE WEED,NETTLE WEED,NETTLE WEED,NETTLE WEED,NETTLE WEED","180,130,125.61679746502239,110.2210864532482,130.45619895804515,157.842450018743,133.79636621107903,153.67124548401696","1,7,6,5,4,3,2,1","WHEAT CROP,CORN CROP,CORN CROP,CORN CROP,CORN CROP,CORN CROP,CORN CROP,CORN CROP","0,0,0,0,0,0,0,0","20,20,20,20,20,20,20,20","10,10,10,10,10,10,10,10","20,20,20,20,20,20,20,20","20,20,20,20,20,20,20,20","20,20,20,20,20,20,20,20","0,0,0,0,0,0,0,0","20,20,20,20,20,20,20,20","10,10,10,10,10,10,10,10","20,20,20,20,20,20,20,20","20,20,20,20,20,20,20,20","20,20,20,20,20,20,20,20","1,0,0,0,0,0,1,0","2094,2209,709,609,3530,2106,1079,2470","45.79897839011501,-12.80548171901691,-6.218449404824625,12.559497825540385,-42.03458959479452,-15.227767868011755,56.4058218236561,-0.5692492249029322","21.256471261797483,-4.383202534977619,-15.395711011774182,20.23511250479695,27.38625106069785,-24.04608380766397,19.874879272937942,25.73780436623742","0","0"
"3521","86","text","0","37","651379","0-0","","","","","","","","","","","","","","","","","","","","","","","","","","","","","","","","","","","","",""
"","","plant-game","0","38","672607","0-0","","200","180","1","WHEAT CROP","Left","200","160","2","NETTLE WEED","experimental","6","1,2","180,190","1,1","WHEAT CROP,CORN CROP","160,162.9280416871375","2,1","NETTLE WEED,NETTLE WEED","20,20","20,20","10,10","20,20","0,0","20,20","20,20","20,20","10,10","20,20","0,0","20,20","0,0","5412,5553","-3.1377050725034827,6.1489434933289715","2.9280416871375046,17.572073684381934","0","0"
"650","86","text","0","39","673475","0-0","","","","","","","","","","","","","","","","","","","","","","","","","","","","","","","","","","","","",""
"","","plant-game","0","40","694988","0-0","","200","120","2","CORN CROP","Left","200","120","8","THISTLE WEED","experimental","7","1,2,3,4,5,6,7,8","120,131.35218704001684,140,141.26344352335664,118.45973303637706,115.04516420948163,169.85797612933266,188.21464371740217","2,1,6,5,4,3,2,1","CORN CROP,CORN CROP,WHEAT CROP,WHEAT CROP,WHEAT CROP,WHEAT CROP,WHEAT CROP,WHEAT CROP","120,157.33519407530218,151.76525614441294,182.14441431230725,170.9634801552037,172.38942879026172,215.28628463030725,211.2266965793999","8,7,6,5,4,3,2,1","THISTLE WEED,THISTLE WEED,THISTLE WEED,THISTLE WEED,THISTLE WEED,THISTLE WEED,THISTLE WEED,THISTLE WEED","20,20,20,20,20,20,20,20","20,20,20,20,20,20,20,20","10,10,10,10,10,10,10,10","20,20,20,20,20,20,20,20","0,0,0,0,0,0,0,0","20,20,20,20,20,20,20,20","20,20,20,20,20,20,20,20","20,20,20,20,20,20,20,20","10,10,10,10,10,10,10,10","20,20,20,20,20,20,20,20","0,0,0,0,0,0,0,0","20,20,20,20,20,20,20,20","0,1,0,1,1,0,0,1","6035,1402,3250,1052,629,926,103,343","11.352187040016837,16.65322628202716,1.2634435233566492,-22.803710486979575,-3.414568826895439,54.812811919851036,18.356667588069527,5.105444104420485","37.3351940753022,-5.5699379308892425,30.379158167894296,-11.18093415710353,1.4259486350580097,42.89685584004552,-4.059588050907333,-7.478802254774757","0","0"
"662","86","text","0","41","695841","0-0","","","","","","","","","","","","","","","","","","","","","","","","","","","","","","","","","","","","",""
"","","plant-game","0","42","707362","0-0","","200","180","2","CORN CROP","Right","200","160","2","NETTLE WEED","experimental","8","1,2","160,182.24054839445478","2,1","NETTLE WEED,NETTLE WEED","180,221.4902340282788","2,1","CORN CROP,CORN CROP","0,0","20,20","10,10","20,20","20,20","20,20","0,0","20,20","10,10","20,20","20,20","20,20","0,0","6093,1348","22.24054839445477,-32.86649620177576","41.49023402827879,4.937573696432279","0","0"
"789","86","text","0","43","708351","0-0","","","","","","","","","","","","","","","","","","","","","","","","","","","","","","","","","","","","",""
"","","plant-game","0","44","733281","0-0","","200","190","2","CORN CROP","Right","200","190","4","THISTLE WEED","experimental","9","1,2,3,4","190,209.07044024286174,237.91713362467124,228.5742814262253","4,3,2,1","THISTLE WEED,THISTLE WEED,THISTLE WEED,THISTLE WEED","190,150.92162923296172,180,204.4526918643481","2,1,2,1","CORN CROP,CORN CROP,WHEAT CROP,WHEAT CROP","0,0,0,0","20,20,20,20","10,10,10,10","20,20,20,20","20,20,20,20","20,20,20,20","0,0,0,0","20,20,20,20","10,10,10,10","20,20,20,20","20,20,20,20","20,20,20,20","0,0,0,0","5975,4232,5944,994","19.070440242861736,28.84669338180951,-9.342852198445929,8.935588197890372","-39.07837076703828,23.87871052542429,24.452691864348118,-3.1490346868533496","0","0"
"3439","86","text","0","45","736900","0-0","","","","","","","","","","","","","","","","","","","","","","","","","","","","","","","","","","","","",""
"","","plant-game","0","46","755778","0-0","","200","160","8","CORN CROP","Right","200","180","8","THISTLE WEED","experimental","10","1,2,3,4,5,6,7,8","180,181.05695485159808,210.3981228742057,253.05605773048538,230.19113770926697,244.48861671864995,252.29304424930118,253.94430497152558","8,7,6,5,4,3,2,1","THISTLE WEED,THISTLE WEED,THISTLE WEED,THISTLE WEED,THISTLE WEED,THISTLE WEED,THISTLE WEED,THISTLE WEED","160,150.5049065647908,140.51293487092246,173.14322290320354,172.6663073085721,171.69238627014536,185.7883680632575,228.35763523278985","8,7,6,5,4,3,2,1","CORN CROP,CORN CROP,CORN CROP,CORN CROP,CORN CROP,CORN CROP,CORN CROP,CORN CROP","0,0,0,0,0,0,0,0","20,20,20,20,20,20,20,20","10,10,10,10,10,10,10,10","20,20,20,20,20,20,20,20","20,20,20,20,20,20,20,20","20,20,20,20,20,20,20,20","0,0,0,0,0,0,0,0","20,20,20,20,20,20,20,20","10,10,10,10,10,10,10,10","20,20,20,20,20,20,20,20","20,20,20,20,20,20,20,20","20,20,20,20,20,20,20,20","0,0,1,0,0,0,1,1","5749,1389,1374,1078,468,1081,874,1024","1.0569548515980816,29.341168022607636,42.65793485627967,-22.864920021218396,14.297479009382988,7.804427530651222,1.6512607222244142,28.18824663296457","-9.495093435209206,-9.99197169386832,32.630288032281086,-0.4769155946314321,-0.973921038426738,14.095981793112156,42.56926716953235,-16.46040672113258","0","0"
"608","86","text","0","47","756596","0-0","","","","","","","","","","","","","","","","","","","","","","","","","","","","","","","","","","","","",""
"","","plant-game","0","48","770944","0-0","","200","120","1","WHEAT CROP","Left","200","120","4","THISTLE WEED","experimental","11","1,2,3,4","120,170,179.92423288637335,203.86861975364255","1,3,2,1","WHEAT CROP,CORN CROP,CORN CROP,CORN CROP","120,163.2394720672573,204.29189367231663,187.37629071986098","4,3,2,1","THISTLE WEED,THISTLE WEED,THISTLE WEED,THISTLE WEED","20,20,20,20","20,20,20,20","10,10,10,10","20,20,20,20","0,0,0,0","20,20,20,20","20,20,20,20","20,20,20,20","10,10,10,10","20,20,20,20","0,0,0,0","20,20,20,20","0,0,1,1","2827,2227,1046,1450","45.21570449758148,9.924232886373341,23.9443868672692,3.309265697480571","43.2394720672573,41.05242160505931,-16.91560295245566,9.675533594413556","0","0"
"749","86","text","0","49","771834","0-0","","","","","","","","","","","","","","","","","","","","","","","","","","","","","","","","","","","","",""
"","","plant-game","0","50","786762","0-0","","200","180","2","CORN CROP","Left","200","160","4","NETTLE WEED","experimental","12","1,2,3,4","180,175.98865554387342,180,207.92543393090506","2,1,2,1","CORN CROP,CORN CROP,WHEAT CROP,WHEAT CROP","160,173.0929011197911,168.05110729517452,209.8459813256941","4,3,2,1","NETTLE WEED,NETTLE WEED,NETTLE WEED,NETTLE WEED","20,20,20,20","20,20,20,20","10,10,10,10","20,20,20,20","0,0,0,0","20,20,20,20","20,20,20,20","20,20,20,20","10,10,10,10","20,20,20,20","0,0,0,0","20,20,20,20","0,1,0,1","1647,1015,3327,1187","-4.01134445612659,-15.092454491769505,27.92543393090505,10.281713006185008","13.092901119791094,-5.0417938246165885,41.794874030519594,18.077480740755014","0","0"
"743","86","text","0","51","787705","0-0","","","","","","","","","","","","","","","","","","","","","","","","","","","","","","","","","","","","",""
"","","plant-game","0","52","794041","0-0","","200","180","1","CORN CROP","Left","200","190","1","NETTLE WEED","experimental","13","1","180","1","CORN CROP","190","1","NETTLE WEED","20","20","10","20","0","20","20","20","10","20","0","20","0","2263","3.021788046895132","47.25808319769024","0","0"
"751","86","text","0","53","794975","0-0","","","","","","","","","","","","","","","","","","","","","","","","","","","","","","","","","","","","",""
"","","plant-game","0","54","817816","0-0","","200","160","8","WHEAT CROP","Right","200","120","4","NETTLE WEED","experimental","14","1,2,3,4,5,6,7,8","120,109.40145747479988,102.46444036450268,119.4170739876118,160,155.6479084692612,163.53442528766254,161.69365399349152","4,3,2,1,4,3,2,1","NETTLE WEED,NETTLE WEED,NETTLE WEED,NETTLE WEED,THISTLE WEED,THISTLE WEED,THISTLE WEED,THISTLE WEED","160,183.32256824303522,207.58327976337787,212.08389806117094,259.1489455197906,258.5727112179931,250.29282244885968,252.1112888381321","8,7,6,5,4,3,2,1","WHEAT CROP,WHEAT CROP,WHEAT CROP,WHEAT CROP,WHEAT CROP,WHEAT CROP,WHEAT CROP,WHEAT CROP","0,0,0,0,0,0,0,0","20,20,20,20,20,20,20,20","10,10,10,10,10,10,10,10","20,20,20,20,20,20,20,20","20,20,20,20,20,20,20,20","20,20,20,20,20,20,20,20","0,0,0,0,0,0,0,0","20,20,20,20,20,20,20,20","10,10,10,10,10,10,10,10","20,20,20,20,20,20,20,20","20,20,20,20,20,20,20,20","20,20,20,20,20,20,20,20","1,1,1,1,0,0,0,0","2380,1212,488,1487,4416,1293,1080,872","-10.598542525200116,-6.937017110297212,16.952633623109122,-15.908487927415614,-4.352091530738797,7.886516818401334,-1.8407712941710062,-18.266291581430064","23.322568243035214,24.260711520342646,4.500618297793066,47.06504745861962,-0.5762343017974763,-8.279888769133436,1.8184663892724195,13.426719667840999","0","0"
"469","86","text","0","55","818457","0-0","","","","","","","","","","","","","","","","","","","","","","","","","","","","","","","","","","","","",""
"","","plant-game","0","56","829961","0-0","","200","160","1","WHEAT CROP","Left","200","120","2","THISTLE WEED","experimental","15","1,2","160,190","1,1","WHEAT CROP,CORN CROP","120,117.6198354857494","2,1","THISTLE WEED,THISTLE WEED","20,20","20,20","10,10","20,20","0,0","20,20","20,20","20,20","10,10","20,20","0,0","20,20","0,0","2691,2869","16.787761162308982,8.790029272084556","-2.380164514250602,15.825055501633944","0","0"
"571","86","text","0","57","830719","0-0","","","","","","","","","","","","","","","","","","","","","","","","","","","","","","","","","","","","",""
"","","plant-game","0","58","842510","0-0","","200","180","2","CORN CROP","Left","200","180","1","THISTLE WEED","experimental","16","1,2","180,221.5712230446507","2,1","CORN CROP,CORN CROP","180,190","1,1","THISTLE WEED,NETTLE WEED","20,20","20,20","10,10","20,20","0,0","20,20","20,20","20,20","10,10","20,20","0,0","20,20","0,1","2701,3035","41.571223044650715,-7.354407651901723","-2.712347494763627,11.740234960846935","0","0"
"4574","86","text","0","59","847264","0-0","","","","","","","","","","","","","","","","","","","","","","","","","","","","","","","","","","","","",""
"","","plant-game","0","60","863664","0-0","","200","160","8","CORN CROP","Left","200","120","1","THISTLE WEED","experimental","17","1,2,3,4,5,6,7,8","160,182.16599967694026,179.83993946909402,181.62146737929064,180.6222503724696,191.2575466771093,180.37934099125857,166.16782407192042","8,7,6,5,4,3,2,1","CORN CROP,CORN CROP,CORN CROP,CORN CROP,CORN CROP,CORN CROP,CORN CROP,CORN CROP","120,130,196.36044298537672,171.2344819902688,185.49936572469358,227.03562779941765,215.56892891669352,221.9311173678409","1,7,6,5,4,3,2,1","THISTLE WEED,NETTLE WEED,NETTLE WEED,NETTLE WEED,NETTLE WEED,NETTLE WEED,NETTLE WEED,NETTLE WEED","20,20,20,20,20,20,20,20","20,20,20,20,20,20,20,20","10,10,10,10,10,10,10,10","20,20,20,20,20,20,20,20","0,0,0,0,0,0,0,0","20,20,20,20,20,20,20,20","20,20,20,20,20,20,20,20","20,20,20,20,20,20,20,20","10,10,10,10,10,10,10,10","20,20,20,20,20,20,20,20","0,0,0,0,0,0,0,0","20,20,20,20,20,20,20,20","0,0,1,1,0,1,1,0","1236,1672,951,1039,558,652,1094,761","22.16599967694027,-2.326060207846229,1.7815279101966033,-0.999217006821037,10.635296304639683,-10.878205685850732,-14.211516919338155,40.67112191723959","-12.097884699156445,66.36044298537672,-25.12596099510794,14.264883734424794,41.53626207472408,-11.46669888272414,6.36218845114737,10.328671099502698","0","0"
"655","86","text","0","61","864529","0-0","","","","","","","","","","","","","","","","","","","","","","","","","","","","","","","","","","","","",""
"","","plant-game","0","62","877783","0-0","","200","180","1","CORN CROP","Left","200","190","4","NETTLE WEED","experimental","18","1,2,3,4","180,170,211.39867114708355,271.5897492753751","1,3,2,1","CORN CROP,WHEAT CROP,WHEAT CROP,WHEAT CROP","190,181.4187598158558,189.79212359774914,188.77868574105173","4,3,2,1","NETTLE WEED,NETTLE WEED,NETTLE WEED,NETTLE WEED","20,20,20,20","20,20,20,20","10,10,10,10","20,20,20,20","0,0,0,0","20,20,20,20","20,20,20,20","20,20,20,20","10,10,10,10","20,20,20,20","0,0,0,0","20,20,20,20","0,0,0,0","1566,1244,2069,1639","5.151169825688367,41.39867114708355,60.19107812829151,-1.6799153418958213","-8.581240184144214,8.373363781893335,-1.0134378566974114,15.300322436954287","0","0"
"807","86","text","0","63","878765","0-0","","","","","","","","","","","","","","","","","","","","","","","","","","","","","","","","","","","","",""
"","","plant-game","0","64","899420","0-0","","200","190","8","WHEAT CROP","Left","200","120","4","THISTLE WEED","experimental","19","1,2,3,4,5,6,7,8","190,197.08348491355306,208.83014444072427,233.51214540711317,230.30974208524609,234.37547242289813,204.3044555917373,254.19906633933084","8,7,6,5,4,3,2,1","WHEAT CROP,WHEAT CROP,WHEAT CROP,WHEAT CROP,WHEAT CROP,WHEAT CROP,WHEAT CROP,WHEAT CROP","120,132.25223668676333,158.35247829250784,190.72505726588167,160,154.16539821839535,170.47962938188775,212.80838713453034","4,3,2,1,4,3,2,1","THISTLE WEED,THISTLE WEED,THISTLE WEED,THISTLE WEED,NETTLE WEED,NETTLE WEED,NETTLE WEED,NETTLE WEED","20,20,20,20,20,20,20,20","20,20,20,20,20,20,20,20","10,10,10,10,10,10,10,10","20,20,20,20,20,20,20,20","0,0,0,0,0,0,0,0","20,20,20,20,20,20,20,20","20,20,20,20,20,20,20,20","20,20,20,20,20,20,20,20","10,10,10,10,10,10,10,10","20,20,20,20,20,20,20,20","0,0,0,0,0,0,0,0","20,20,20,20,20,20,20,20","0,0,0,1,1,1,0,1","1434,362,552,3165,3011,628,1705,697","7.083484913553066,11.746659527171193,24.682000966388888,-3.202403321867087,4.065730337652039,-30.071016831160826,49.89461074759353,39.087081324857834","12.252236686763329,26.1002416057445,32.37257897337382,-11.576599084732095,-5.834601781604636,16.3142311634924,42.328757752642574,-11.730488197061371","0","0"
"695","86","text","0","65","900285","0-0","","","","","","","","","","","","","","","","","","","","","","","","","","","","","","","","","","","","",""
"","","plant-game","0","66","914379","0-0","","200","180","8","WHEAT CROP","Left","200","190","8","THISTLE WEED","experimental","20","1,2,3,4,5,6,7,8","180,201.36389402439772,199.02326077918954,144.02605446025376,151.48762827380457,191.98180912054306,223.28782419633538,204.762367659546","8,7,6,5,4,3,2,1","WHEAT CROP,WHEAT CROP,WHEAT CROP,WHEAT CROP,WHEAT CROP,WHEAT CROP,WHEAT CROP,WHEAT CROP","190,168.13799636696714,159.42367343372945,155.01054229896414,160.78433641833254,195.87493396177373,221.26376610761992,210.93422313306422","8,7,6,5,4,3,2,1","THISTLE WEED,THISTLE WEED,THISTLE WEED,THISTLE WEED,THISTLE WEED,THISTLE WEED,THISTLE WEED,THISTLE WEED","20,20,20,20,20,20,20,20","20,20,20,20,20,20,20,20","10,10,10,10,10,10,10,10","20,20,20,20,20,20,20,20","0,0,0,0,0,0,0,0","20,20,20,20,20,20,20,20","20,20,20,20,20,20,20,20","20,20,20,20,20,20,20,20","10,10,10,10,10,10,10,10","20,20,20,20,20,20,20,20","0,0,0,0,0,0,0,0","20,20,20,20,20,20,20,20","1,1,1,0,1,0,1,1","2111,1499,576,906,1116,964,977,1017","21.363894024397712,-2.3406332452081813,-54.997206318935795,7.46157381355081,40.49418084673849,31.306015075792306,-18.525456536789388,-1.8100292497750161","-21.862003633032856,-8.714322933237696,-4.413131134765322,5.773794119368411,35.09059754344119,25.388832145846195,-10.329542974555688,11.342293153666361","0","0"
"856","86","text","0","67","915395","0-0","","","","","","","","","","","","","","","","","","","","","","","","","","","","","","","","","","","","",""
"","","plant-game","0","68","935915","0-0","","200","190","1","CORN CROP","Left","200","190","8","THISTLE WEED","experimental","21","1,2,3,4,5,6,7,8","190,130,101.33758175858532,132.9496619582909,125.89229602961561,106.9247149820779,119.91204284710142,167.55997452050622","1,7,6,5,4,3,2,1","CORN CROP,WHEAT CROP,WHEAT CROP,WHEAT CROP,WHEAT CROP,WHEAT CROP,WHEAT CROP,WHEAT CROP","190,176.9614108667384,212.8899956480872,273.3216273611274,326.5195768553926,328.0020768832678,335.5629608004897,344.87904198096106","8,7,6,5,4,3,2,1","THISTLE WEED,THISTLE WEED,THISTLE WEED,THISTLE WEED,THISTLE WEED,THISTLE WEED,THISTLE WEED,THISTLE WEED","20,20,20,20,20,20,20,20","20,20,20,20,20,20,20,20","10,10,10,10,10,10,10,10","20,20,20,20,20,20,20,20","0,0,0,0,0,0,0,0","20,20,20,20,20,20,20,20","20,20,20,20,20,20,20,20","20,20,20,20,20,20,20,20","10,10,10,10,10,10,10,10","20,20,20,20,20,20,20,20","0,0,0,0,0,0,0,0","20,20,20,20,20,20,20,20","1,1,0,0,1,1,1,0","1833,2956,1482,1533,436,485,515,760","12.042671367212181,-28.662418241414688,31.61208019970558,-7.057365928675289,-18.967581047537706,12.987327865023515,47.647931673404784,34.60029367260625","-13.038589133261612,35.9285847813488,60.431631713040225,53.197949494265174,1.4825000278752136,7.5608839172218865,9.316081180471375,34.55248564200598","0","0"
"859","86","text","0","69","936964","0-0","","","","","","","","","","","","","","","","","","","","","","","","","","","","","","","","","","","","",""
"","","plant-game","0","70","948805","0-0","","200","160","1","CORN CROP","Left","200","190","4","NETTLE WEED","experimental","22","1,2,3,4","160,170,148.92589876243744,131.4574749410309","1,3,2,1","CORN CROP,WHEAT CROP,WHEAT CROP,WHEAT CROP","190,225.9747809031423,219.54950323927693,236.17398088621698","4,3,2,1","NETTLE WEED,NETTLE WEED,NETTLE WEED,NETTLE WEED","20,20,20,20","20,20,20,20","10,10,10,10","20,20,20,20","0,0,0,0","20,20,20,20","20,20,20,20","20,20,20,20","10,10,10,10","20,20,20,20","0,0,0,0","20,20,20,20","0,1,1,0","1507,2705,762,849","-7.350319406174073,-21.07410123756255,-17.46842382140653,-4.792298228779416","35.974780903142275,-6.4252776638653595,16.624477646940047,17.727775702545596","0","0"
"620","86","text","0","71","949645","0-0","","","","","","","","","","","","","","","","","","","","","","","","","","","","","","","","","","","","",""
"","","plant-game","0","72","960414","0-0","","200","160","1","CORN CROP","Left","200","180","4","THISTLE WEED","experimental","23","1,2,3,4","160,170,185.5145445218736,171.62326855823608","1,3,2,1","CORN CROP,WHEAT CROP,WHEAT CROP,WHEAT CROP","180,231.3900136386151,250.42569115812339,274.5962323771009","4,3,2,1","THISTLE WEED,THISTLE WEED,THISTLE WEED,THISTLE WEED","20,20,20,20","20,20,20,20","10,10,10,10","20,20,20,20","0,0,0,0","20,20,20,20","20,20,20,20","20,20,20,20","10,10,10,10","20,20,20,20","0,0,0,0","20,20,20,20","0,0,0,1","1173,1564,476,945","-15.83140747781065,15.51454452187361,-13.89127596363754,-4.167480381441271","51.3900136386151,19.035677519508294,24.17054121897747,-6.156164580919743","0","0"
"880","86","text","0","73","961494","0-0","","","","","","","","","","","","","","","","","","","","","","","","","","","","","","","","","","","","",""
"","","plant-game","0","74","986852","0-0","","200","190","4","CORN CROP","Left","200","180","8","THISTLE WEED","experimental","24","1,2,3,4,5,6,7,8","190,184.30775811163664,170.54633596009467,203.09006244116907,160,171.21625276051788,149.80608356033113,125.86324120013069","4,3,2,1,4,3,2,1","CORN CROP,CORN CROP,CORN CROP,CORN CROP,WHEAT CROP,WHEAT CROP,WHEAT CROP,WHEAT CROP","180,194.49058409260746,210.78933977516706,244.40025181255893,263.8917740121625,264.3422618509685,260.82155859565415,279.4679716518783","8,7,6,5,4,3,2,1","THISTLE WEED,THISTLE WEED,THISTLE WEED,THISTLE WEED,THISTLE WEED,THISTLE WEED,THISTLE WEED,THISTLE WEED","20,20,20,20,20,20,20,20","20,20,20,20,20,20,20,20","10,10,10,10,10,10,10,10","20,20,20,20,20,20,20,20","0,0,0,0,0,0,0,0","20,20,20,20,20,20,20,20","20,20,20,20,20,20,20,20","20,20,20,20,20,20,20,20","10,10,10,10,10,10,10,10","20,20,20,20,20,20,20,20","0,0,0,0,0,0,0,0","20,20,20,20,20,20,20,20","1,1,0,0,1,1,1,0","4822,2434,1445,1015,6097,724,815,904","-5.692241888363356,-13.761422151541973,32.5437264810744,-16.032787363972744,11.216252760517875,-21.410169200186747,-23.942842360200444,0.8662515688034027","14.490584092607474,16.298755682559612,33.61091203739186,19.49152219960359,0.4504878388059742,-3.52070325531433,18.646413056224166,15.923814721899156","0","0"
"470","86","text","0","75","987522","0-0","","","","","","","","","","","","","","","","","","","","","","","","","","","","","","","","","","","","",""
"","","plant-game","0","76","1001762","0-0","","200","120","4","WHEAT CROP","Left","200","120","2","NETTLE WEED","experimental","25","1,2,3,4","120,111.57137129664977,127.4949838765928,129.6973916256725","4,3,2,1","WHEAT CROP,WHEAT CROP,WHEAT CROP,WHEAT CROP","120,144.67769629004906,180,178.97341916459524","2,1,2,1","NETTLE WEED,NETTLE WEED,THISTLE WEED,THISTLE WEED","20,20,20,20","20,20,20,20","10,10,10,10","20,20,20,20","0,0,0,0","20,20,20,20","20,20,20,20","20,20,20,20","10,10,10,10","20,20,20,20","0,0,0,0","20,20,20,20","0,0,0,0","1571,379,3651,2181","-8.428628703350224,15.923612579943022,2.2024077490797005,13.308727211843907","24.677696290049056,8.02595343581779,-1.0265808354047579,36.361216453094286","0","0"
"601","86","text","0","77","1002573","0-0","","","","","","","","","","","","","","","","","","","","","","","","","","","","","","","","","","","","",""
"","","plant-game","0","78","1023878","0-0","","200","120","8","WHEAT CROP","Left","200","180","1","THISTLE WEED","experimental","26","1,2,3,4,5,6,7,8","120,107.43791087487153,128.12592273566736,155.8419242709858,158.21270566192845,189.50579840141842,155.20405896493048,202.8376414594406","8,7,6,5,4,3,2,1","WHEAT CROP,WHEAT CROP,WHEAT CROP,WHEAT CROP,WHEAT CROP,WHEAT CROP,WHEAT CROP,WHEAT CROP","180,130,125.25908599684394,181.4438465734887,145.88954648557086,193.63142157105437,194.18808673659424,216.71477197903326","1,7,6,5,4,3,2,1","THISTLE WEED,NETTLE WEED,NETTLE WEED,NETTLE WEED,NETTLE WEED,NETTLE WEED,NETTLE WEED,NETTLE WEED","20,20,20,20,20,20,20,20","20,20,20,20,20,20,20,20","10,10,10,10,10,10,10,10","20,20,20,20,20,20,20,20","0,0,0,0,0,0,0,0","20,20,20,20,20,20,20,20","20,20,20,20,20,20,20,20","20,20,20,20,20,20,20,20","10,10,10,10,10,10,10,10","20,20,20,20,20,20,20,20","0,0,0,0,0,0,0,0","20,20,20,20,20,20,20,20","0,0,0,1,0,1,1,1","1712,2355,801,1084,1006,561,2294,2905","-12.562089125128473,20.68801186079583,27.71600153531845,2.370781390942665,31.29309273948995,-34.30173943648792,47.6335824945101,2.0002441461769305","10.152094840034577,-4.740914003156057,56.18476057664478,-35.55430008791784,47.7418750854835,0.5566651655398765,22.526685242439022,-19.73060089462544","0","0"
"560","86","text","0","79","1024629","0-0","","","","","","","","","","","","","","","","","","","","","","","","","","","","","","","","","","","","",""
"","","plant-game","0","80","1038096","0-0","","200","120","2","CORN CROP","Left","200","160","8","THISTLE WEED","experimental","27","1,2,3,4,5,6,7,8","120,181.4402869319382,140,152.321852342905,162.4516380198392,147.13903880848878,130.23730498951608,129.23413099012043","2,1,6,5,4,3,2,1","CORN CROP,CORN CROP,WHEAT CROP,WHEAT CROP,WHEAT CROP,WHEAT CROP,WHEAT CROP,WHEAT CROP","160,206.50519505875704,222.30353138370998,267.0276085513068,301.84920344481816,303.1196958519692,336.39041141030674,338.93214331559443","8,7,6,5,4,3,2,1","THISTLE WEED,THISTLE WEED,THISTLE WEED,THISTLE WEED,THISTLE WEED,THISTLE WEED,THISTLE WEED,THISTLE WEED","20,20,20,20,20,20,20,20","20,20,20,20,20,20,20,20","10,10,10,10,10,10,10,10","20,20,20,20,20,20,20,20","0,0,0,0,0,0,0,0","20,20,20,20,20,20,20,20","20,20,20,20,20,20,20,20","20,20,20,20,20,20,20,20","10,10,10,10,10,10,10,10","20,20,20,20,20,20,20,20","0,0,0,0,0,0,0,0","20,20,20,20,20,20,20,20","0,0,0,1,1,1,0,1","1337,317,941,677,1549,358,376,602","61.44028693193821,28.853059296655204,12.321852342905018,10.129785676934208,-15.31259921135044,-16.901733818972716,-1.0031739993956421,6.952515290410881","46.50519505875704,15.798336324952935,44.72407716759684,34.821594893511374,1.2704924071510404,33.27071555833755,2.5417319052876692,-9.898342988644952","0","0"
"598","86","text","0","81","1038864","0-0","","","","","","","","","","","","","","","","","","","","","","","","","","","","","","","","","","","","",""
"","","plant-game","0","82","1053533","0-0","","200","190","1","CORN CROP","Right","200","120","2","NETTLE WEED","experimental","28","1,2","120,119.73907191324557","2,1","NETTLE WEED,NETTLE WEED","190,190","1,1","CORN CROP,WHEAT CROP","0,0","20,20","10,10","20,20","20,20","20,20","0,0","20,20","10,10","20,20","20,20","20,20","1,1","4382,3313","-0.2609280867544399,7.446980592078349","32.544259662402126,2.486336003306043","0","0"
"886","86","text","0","83","1054629","0-0","","","","","","","","","","","","","","","","","","","","","","","","","","","","","","","","","","","","",""
"","","plant-game","0","84","1077174","0-0","","200","120","4","WHEAT CROP","Right","200","120","8","THISTLE WEED","experimental","29","1,2,3,4,5,6,7,8","120,141.3870070673848,152.84737201803583,195.45321702138028,187.9155371927878,189.58056360579127,220.9264810005055,173.51340086056157","8,7,6,5,4,3,2,1","THISTLE WEED,THISTLE WEED,THISTLE WEED,THISTLE WEED,THISTLE WEED,THISTLE WEED,THISTLE WEED,THISTLE WEED","120,131.4817204168217,131.41543602979016,148.15536760445704,160,205.89700607584712,220.81756208520312,190.93758605692344","4,3,2,1,4,3,2,1","WHEAT CROP,WHEAT CROP,WHEAT CROP,WHEAT CROP,CORN CROP,CORN CROP,CORN CROP,CORN CROP","0,0,0,0,0,0,0,0","20,20,20,20,20,20,20,20","10,10,10,10,10,10,10,10","20,20,20,20,20,20,20,20","20,20,20,20,20,20,20,20","20,20,20,20,20,20,20,20","0,0,0,0,0,0,0,0","20,20,20,20,20,20,20,20","10,10,10,10,10,10,10,10","20,20,20,20,20,20,20,20","20,20,20,20,20,20,20,20","20,20,20,20,20,20,20,20","1,1,1,0,1,1,0,0","1506,375,347,2678,4787,792,3148,634","21.38700706738478,11.460364950651034,42.60584500334444,-7.537679828592471,1.66502641300346,31.345917394714235,-47.41308013994393,-36.75494101436528","11.481720416821716,-0.06628438703154771,16.73993157466689,13.331271068716287,45.89700607584711,14.920556009356005,-29.87997602827968,35.684249993526834","0","0"
"806","86","text","0","85","1078209","0-0","","","","","","","","","","","","","","","","","","","","","","","","","","","","","","","","","","","","",""
"","","plant-game","0","86","1087459","0-0","","200","190","2","WHEAT CROP","Right","200","120","2","NETTLE WEED","experimental","30","1,2","120,155.70946053401164","2,1","NETTLE WEED,NETTLE WEED","190,241.1423162016824","2,1","WHEAT CROP,WHEAT CROP","0,0","20,20","10,10","20,20","20,20","20,20","0,0","20,20","10,10","20,20","20,20","20,20","1,1","3874,1406","35.70946053401163,47.22045333699316","51.142316201682405,-28.795862247610422","0","0"
"809","86","text","0","87","1088496","0-0","","","","","","","","","","","","","","","","","","","","","","","","","","","","","","","","","","","","",""
"","","plant-game","0","88","1104008","0-0","","200","190","1","WHEAT CROP","Right","200","120","8","THISTLE WEED","experimental","31","1,2,3,4,5,6,7,8","120,114.16714470897631,114.85909371760658,115.73532098915838,134.457696068334,141.65057468355647,147.7707251685956,166.54963782506184","8,7,6,5,4,3,2,1","THISTLE WEED,THISTLE WEED,THISTLE WEED,THISTLE WEED,THISTLE WEED,THISTLE WEED,THISTLE WEED,THISTLE WEED","190,130,117.77273555721445,157.63797840565945,187.12555328559722,214.26045914752444,187.9806960671261,191.72255321335692","1,7,6,5,4,3,2,1","WHEAT CROP,CORN CROP,CORN CROP,CORN CROP,CORN CROP,CORN CROP,CORN CROP,CORN CROP","0,0,0,0,0,0,0,0","20,20,20,20,20,20,20,20","10,10,10,10,10,10,10,10","20,20,20,20,20,20,20,20","20,20,20,20,20,20,20,20","20,20,20,20,20,20,20,20","0,0,0,0,0,0,0,0","20,20,20,20,20,20,20,20","10,10,10,10,10,10,10,10","20,20,20,20,20,20,20,20","20,20,20,20,20,20,20,20","20,20,20,20,20,20,20,20","1,0,1,1,1,0,1,0","1325,2006,595,468,496,1710,892,805","-5.832855291023694,0.6919490086302744,0.876227271551798,18.722375079175624,7.192878615222478,6.120150485039119,18.77891265646625,-0.9389297603114852","24.955270830026826,-12.227264442785561,39.865242848445,29.487574879937767,27.13490586192723,-26.279763080398332,3.7418571462308066,-41.95645118106424","0","0"
"1296","86","text","0","89","1105504","0-0","","","","","","","","","","","","","","","","","","","","","","","","","","","","","","","","","","","","",""
"","","plant-game","0","90","1110831","0-0","","200","190","1","WHEAT CROP","Right","200","120","1","NETTLE WEED","experimental","32","1","120","1","NETTLE WEED","190","1","WHEAT CROP","0","20","10","20","20","20","0","20","10","20","20","20","1","1539","9.010962195876836","26.842146585856852","0","0"
"1396","86","text","0","91","1112439","0-0","","","","","","","","","","","","","","","","","","","","","","","","","","","","","","","","","","","","",""
"","","plant-game","0","92","1126096","0-0","","200","180","4","CORN CROP","Left","200","180","1","THISTLE WEED","experimental","33","1,2,3,4","180,192.67694021789325,199.6790476438168,207.4293139334809","4,3,2,1","CORN CROP,CORN CROP,CORN CROP,CORN CROP","180,170,184.20689270088917,203.3741027966016","1,3,2,1","THISTLE WEED,NETTLE WEED,NETTLE WEED,NETTLE WEED","20,20,20,20","20,20,20,20","10,10,10,10","20,20,20,20","0,0,0,0","20,20,20,20","20,20,20,20","20,20,20,20","10,10,10,10","20,20,20,20","0,0,0,0","20,20,20,20","0,0,0,1","2480,2280,864,1294","12.67694021789325,7.0021074259235565,7.750266289664097,-3.5221216889761613","-7.9543091339786685,14.20689270088916,19.16721009571242,-11.840934513790424","0","0"
"642","86","text","0","93","1126958","0-0","","","","","","","","","","","","","","","","","","","","","","","","","","","","","","","","","","","","",""
"","","plant-game","0","94","1143032","0-0","","200","160","4","WHEAT CROP","Left","200","180","8","THISTLE WEED","experimental","34","1,2,3,4,5,6,7,8","160,162.73592960354043,185.8912688064041,230.96135103552234,160,140.25908931434566,134.86330462989667,118.92840543153379","4,3,2,1,4,3,2,1","WHEAT CROP,WHEAT CROP,WHEAT CROP,WHEAT CROP,CORN CROP,CORN CROP,CORN CROP,CORN CROP","180,162.53226120682396,161.7693229061972,183.83616740006232,230.86257760117488,259.53980966260445,285.45826075117674,306.0510550848955","8,7,6,5,4,3,2,1","THISTLE WEED,THISTLE WEED,THISTLE WEED,THISTLE WEED,THISTLE WEED,THISTLE WEED,THISTLE WEED,THISTLE WEED","20,20,20,20,20,20,20,20","20,20,20,20,20,20,20,20","10,10,10,10,10,10,10,10","20,20,20,20,20,20,20,20","0,0,0,0,0,0,0,0","20,20,20,20,20,20,20,20","20,20,20,20,20,20,20,20","20,20,20,20,20,20,20,20","10,10,10,10,10,10,10,10","20,20,20,20,20,20,20,20","0,0,0,0,0,0,0,0","20,20,20,20,20,20,20,20","0,0,0,0,1,1,1,0","1597,247,155,120,3495,836,1978,742","2.7359296035404164,23.15533920286366,45.07008222911824,31.821499080347046,-19.740910685654335,-5.395784684448994,-15.93489919836288,48.54834670710083","-17.467738793176032,-0.7629383006267645,22.066844493865133,47.026410201112554,28.677232061429592,25.918451088572265,20.59279433371878,36.881821160649764","0","0"
"720","86","text","0","95","1143962","0-0","","","","","","","","","","","","","","","","","","","","","","","","","","","","","","","","","","","","",""
"","","plant-game","0","96","1156550","0-0","","200","160","4","CORN CROP","Left","200","120","1","THISTLE WEED","experimental","35","1,2,3,4","160,164.54153409124842,170.839576472206,188.31234969689007","4,3,2,1","CORN CROP,CORN CROP,CORN CROP,CORN CROP","120,170,196.4685668953378,205.70720529180926","1,3,2,1","THISTLE WEED,NETTLE WEED,NETTLE WEED,NETTLE WEED","20,20,20,20","20,20,20,20","10,10,10,10","20,20,20,20","0,0,0,0","20,20,20,20","20,20,20,20","20,20,20,20","10,10,10,10","20,20,20,20","0,0,0,0","20,20,20,20","0,0,1,0","1600,2342,1390,818","4.541534091248408,6.298042380957574,17.472773224684047,13.267343627136514","31.276604769627202,26.46856689533781,9.238638396471472,21.629303890854537","0","0"
"662","86","text","0","97","1157422","0-0","","","","","","","","","","","","","","","","","","","","","","","","","","","","","","","","","","","","",""
"","","plant-game","0","98","1167887","0-0","","200","190","2","WHEAT CROP","Right","200","160","1","NETTLE WEED","experimental","36","1,2","160,190","1,1","NETTLE WEED,THISTLE WEED","190,195.86531706147883","2,1","WHEAT CROP,WHEAT CROP","0,0","20,20","10,10","20,20","20,20","20,20","0,0","20,20","10,10","20,20","20,20","20,20","1,1","2405,1412","13.899348799746207,11.859086877930755","5.865317061478823,22.288356191048944","0","0"
"865","86","text","0","99","1168979","0-0","","","","","","","","","","","","","","","","","","","","","","","","","","","","","","","","","","","","",""
"","","plant-game","0","100","1186691","0-0","","200","160","1","CORN CROP","Right","200","180","8","THISTLE WEED","experimental","37","1,2,3,4,5,6,7,8","180,193.04020769507042,154.20074746713132,191.60428860595732,170.90744635524587,170.86185941551315,203.59154567582698,229.78183281374376","8,7,6,5,4,3,2,1","THISTLE WEED,THISTLE WEED,THISTLE WEED,THISTLE WEED,THISTLE WEED,THISTLE WEED,THISTLE WEED,THISTLE WEED","160,130,99.62222987861954,143.69052311443903,112.765837090337,72.61580185314776,107.39109464204792,146.53862646055595","1,7,6,5,4,3,2,1","CORN CROP,WHEAT CROP,WHEAT CROP,WHEAT CROP,WHEAT CROP,WHEAT CROP,WHEAT CROP,WHEAT CROP","0,0,0,0,0,0,0,0","20,20,20,20,20,20,20,20","10,10,10,10,10,10,10,10","20,20,20,20,20,20,20,20","20,20,20,20,20,20,20,20","20,20,20,20,20,20,20,20","0,0,0,0,0,0,0,0","20,20,20,20,20,20,20,20","10,10,10,10,10,10,10,10","20,20,20,20,20,20,20,20","20,20,20,20,20,20,20,20","20,20,20,20,20,20,20,20","0,0,1,0,0,1,0,1","1460,2462,1236,970,1381,664,1804,444","13.040207695070427,-38.8394602279391,37.40354113882601,-20.696842250711466,-0.04558693973271601,32.72968626031383,26.19028713791678,41.9347846626395","18.277087017780126,-30.37777012138047,44.06829323581948,-30.924686024102034,-40.15003523718925,34.77529278890016,39.14753181850803,33.21557199740768","0","0"
"264","86","text","0","101","1187115","0-0","","","","","","","","","","","","","","","","","","","","","","","","","","","","","","","","","","","","",""
"","","plant-game","0","102","1194797","0-0","","200","160","1","CORN CROP","Right","200","180","1","THISTLE WEED","experimental","38","1","180","1","THISTLE WEED","160","1","CORN CROP","0","20","10","20","20","20","0","20","10","20","20","20","1","3456","39.20396536173691","50.640314728161286","0","0"
"1422","86","text","0","103","1196413","0-0","","","","","","","","","","","","","","","","","","","","","","","","","","","","","","","","","","","","",""
"","","plant-game","0","104","1209257","0-0","","200","180","2","WHEAT CROP","Left","200","180","4","NETTLE WEED","experimental","39","1,2,3,4","180,238.18901415742852,180,191.8198957085322","2,1,2,1","WHEAT CROP,WHEAT CROP,CORN CROP,CORN CROP","180,192.98777172303485,216.31071255754188,243.9311426092841","4,3,2,1","NETTLE WEED,NETTLE WEED,NETTLE WEED,NETTLE WEED","20,20,20,20","20,20,20,20","10,10,10,10","20,20,20,20","0,0,0,0","20,20,20,20","20,20,20,20","20,20,20,20","10,10,10,10","20,20,20,20","0,0,0,0","20,20,20,20","0,0,0,0","1280,1239,2486,546","58.18901415742852,2.2890392095457663,11.819895708532174,14.255559186882515","12.98777172303485,23.322940834507015,27.620430051742243,42.778746446291436","0","0"
"730","86","text","0","105","1210211","0-0","","","","","","","","","","","","","","","","","","","","","","","","","","","","","","","","","","","","",""
"","","plant-game","0","106","1221083","0-0","","200","160","1","CORN CROP","Right","200","160","4","NETTLE WEED","experimental","40","1,2,3,4","160,194.98190099077124,218.03666853553295,225.2209296396354","4,3,2,1","NETTLE WEED,NETTLE WEED,NETTLE WEED,NETTLE WEED","160,170,228.25104400168718,217.6305679789921","1,3,2,1","CORN CROP,WHEAT CROP,WHEAT CROP,WHEAT CROP","0,0,0,0","20,20,20,20","10,10,10,10","20,20,20,20","20,20,20,20","20,20,20,20","0,0,0,0","20,20,20,20","10,10,10,10","20,20,20,20","20,20,20,20","20,20,20,20","0,1,0,0","974,1887,772,551","34.98190099077122,23.05476754476171,7.184261104102438,-0.8302430674280769","3.0753859835036375,58.251044001687184,-10.62047602269506,-9.01033887730447","0","0"
"836","86","text","0","107","1222119","0-0","","","","","","","","","","","","","","","","","","","","","","","","","","","","","","","","","","","","",""
"","","plant-game","0","108","1233442","0-0","","200","120","2","CORN CROP","Left","200","190","1","THISTLE WEED","experimental","41","1,2","120,172.48360648940502","2,1","CORN CROP,CORN CROP","190,190","1,1","THISTLE WEED,NETTLE WEED","20,20","20,20","10,10","20,20","0,0","20,20","20,20","20,20","10,10","20,20","0,0","20,20","0,1","1509,2364","52.48360648940502,-1.061562235145602","8.071727254610854,-8.309596155108254","0","0"
"633","86","text","0","109","1234305","0-0","","","","","","","","","","","","","","","","","","","","","","","","","","","","","","","","","","","","",""
"","","plant-game","0","110","1256235","0-0","","200","120","1","CORN CROP","Right","200","120","8","THISTLE WEED","experimental","42","1,2,3,4,5,6,7,8","120,152.4902911135523,201.43054473985805,197.17093535838515,208.38089005618636,246.79662315741325,263.3724434474409,318.09858885788907","8,7,6,5,4,3,2,1","THISTLE WEED,THISTLE WEED,THISTLE WEED,THISTLE WEED,THISTLE WEED,THISTLE WEED,THISTLE WEED,THISTLE WEED","120,130,139.5458070537129,113.1867240005952,150.6202939120424,173.63339897170806,178.28713128072008,214.8045759938251","1,7,6,5,4,3,2,1","CORN CROP,WHEAT CROP,WHEAT CROP,WHEAT CROP,WHEAT CROP,WHEAT CROP,WHEAT CROP,WHEAT CROP","0,0,0,0,0,0,0,0","20,20,20,20,20,20,20,20","10,10,10,10,10,10,10,10","20,20,20,20,20,20,20,20","20,20,20,20,20,20,20,20","20,20,20,20,20,20,20,20","0,0,0,0,0,0,0,0","20,20,20,20,20,20,20,20","10,10,10,10,10,10,10,10","20,20,20,20,20,20,20,20","20,20,20,20,20,20,20,20","20,20,20,20,20,20,20,20","1,1,0,0,1,1,1,1","4603,1942,2649,608,220,1937,1843,94","32.49029111355229,48.94025362630574,-4.259609381472905,11.209954697801205,38.41573310122689,16.57582029002766,54.72614541044819,-0.9231338843186307","4.471863236829172,9.545807053712911,-26.359083053117708,37.43356991144719,23.013105059665676,4.653732309012,36.51744471310503,21.754524911723614","0","0"
"685","86","text","0","111","1257116","0-0","","","","","","","","","","","","","","","","","","","","","","","","","","","","","","","","","","","","",""
"","","plant-game","0","112","1272585","0-0","","200","190","2","CORN CROP","Left","200","120","8","THISTLE WEED","experimental","43","1,2,3,4,5,6,7,8","190,229.2343264634786,140,157.98733492952843,134.7142758214579,120.40979793517386,156.61921883715686,152.93910289331228","2,1,6,5,4,3,2,1","CORN CROP,CORN CROP,WHEAT CROP,WHEAT CROP,WHEAT CROP,WHEAT CROP,WHEAT CROP,WHEAT CROP","120,160.42445526612755,208.32907600907942,187.84985435843765,208.39106748555534,201.42737330923381,232.9376248949024,201.01181478095592","8,7,6,5,4,3,2,1","THISTLE WEED,THISTLE WEED,THISTLE WEED,THISTLE WEED,THISTLE WEED,THISTLE WEED,THISTLE WEED,THISTLE WEED","20,20,20,20,20,20,20,20","20,20,20,20,20,20,20,20","10,10,10,10,10,10,10,10","20,20,20,20,20,20,20,20","0,0,0,0,0,0,0,0","20,20,20,20,20,20,20,20","20,20,20,20,20,20,20,20","20,20,20,20,20,20,20,20","10,10,10,10,10,10,10,10","20,20,20,20,20,20,20,20","0,0,0,0,0,0,0,0","20,20,20,20,20,20,20,20","0,0,1,1,1,0,1,1","1525,1107,1428,695,829,859,654,740","39.234326463478595,-0.4103366839264808,17.987334929528426,-23.27305910807052,-14.30447788628404,36.20942090198301,-3.6801159438445707,0.823727119491922","40.42445526612755,47.90462074295186,-20.479221650641772,20.541213127117686,-6.963694176321536,31.51025158566857,-31.925810113946472,-11.674612785740951","0","0"
"217","86","text","0","113","1272992","0-0","","","","","","","","","","","","","","","","","","","","","","","","","","","","","","","","","","","","",""
"","","plant-game","0","114","1287690","0-0","","200","120","2","WHEAT CROP","Right","200","120","1","NETTLE WEED","experimental","44","1,2","120,190","1,1","NETTLE WEED,THISTLE WEED","120,149.49987961799897","2,1","WHEAT CROP,WHEAT CROP","0,0","20,20","10,10","20,20","20,20","20,20","0,0","20,20","10,10","20,20","20,20","20,20","1,1","7465,1277","14.228272162526217,-1.7226793179664455","29.499879617998964,25.736619958548825","0","0"
"684","86","text","0","115","1288577","0-0","","","","","","","","","","","","","","","","","","","","","","","","","","","","","","","","","","","","",""
"","","plant-game","0","116","1302090","0-0","","200","190","4","CORN CROP","Right","200","120","2","NETTLE WEED","experimental","45","1,2,3,4","120,141.29252761638986,180,175.7747170079185","2,1,2,1","NETTLE WEED,NETTLE WEED,THISTLE WEED,THISTLE WEED","190,233.1146508650936,231.73865600682086,234.45331161823142","4,3,2,1","CORN CROP,CORN CROP,CORN CROP,CORN CROP","0,0,0,0","20,20,20,20","10,10,10,10","20,20,20,20","20,20,20,20","20,20,20,20","0,0,0,0","20,20,20,20","10,10,10,10","20,20,20,20","20,20,20,20","20,20,20,20","1,1,0,0","997,1805,3798,1306","21.292527616389847,17.058299452800917,-4.225282992081495,-0.144587063212031","43.1146508650936,-1.3759948582727368,2.7146556114105556,3.1373247812520315","0","0"
"891","86","text","0","117","1303161","0-0","","","","","","","","","","","","","","","","","","","","","","","","","","","","","","","","","","","","",""
"","","plant-game","0","118","1320928","0-0","","200","190","8","WHEAT CROP","Left","200","180","1","NETTLE WEED","experimental","46","1,2,3,4,5,6,7,8","190,202.1859721493849,239.40781792758736,242.96829682425636,235.66366268481298,232.43820535261318,264.3880283513015,208.09124603495607","8,7,6,5,4,3,2,1","WHEAT CROP,WHEAT CROP,WHEAT CROP,WHEAT CROP,WHEAT CROP,WHEAT CROP,WHEAT CROP,WHEAT CROP","180,130,155.31110636079612,179.65157596426582,180.15435790856225,211.7143789137544,229.36700315398798,238.1655023601394","1,7,6,5,4,3,2,1","NETTLE WEED,THISTLE WEED,THISTLE WEED,THISTLE WEED,THISTLE WEED,THISTLE WEED,THISTLE WEED,THISTLE WEED","20,20,20,20,20,20,20,20","20,20,20,20,20,20,20,20","10,10,10,10,10,10,10,10","20,20,20,20,20,20,20,20","0,0,0,0,0,0,0,0","20,20,20,20,20,20,20,20","20,20,20,20,20,20,20,20","20,20,20,20,20,20,20,20","10,10,10,10,10,10,10,10","20,20,20,20,20,20,20,20","0,0,0,0,0,0,0,0","20,20,20,20,20,20,20,20","0,0,0,1,1,0,1,0","1319,1785,1187,1356,1825,2026,616,997","12.185972149384899,37.221845778202464,3.5604788966689895,-7.304634139443379,-3.2254573321998006,31.949822998688326,-56.29678231634543,17.71923073925048","14.674769155421266,25.311106360796114,24.340469603469703,0.5027819442964366,31.560021005192137,17.65262424023358,8.798499206151426,38.35885019857317","0","0"
"610","86","text","0","119","1321688","0-0","","","","","","","","","","","","","","","","","","","","","","","","","","","","","","","","","","","","",""
"","","plant-game","0","120","1339275","0-0","","200","120","8","CORN CROP","Right","200","180","4","THISTLE WEED","experimental","47","1,2,3,4,5,6,7,8","180,272.48313670276485,333.6361729509457,369.2469436623376,160,143.51144979501186,167.6719489493343,201.4059792765605","4,3,2,1,4,3,2,1","THISTLE WEED,THISTLE WEED,THISTLE WEED,THISTLE WEED,NETTLE WEED,NETTLE WEED,NETTLE WEED,NETTLE WEED","120,174.42610453280372,145.350699981891,164.36375875812794,184.11595701249811,209.77232306459115,244.40276724135833,280.7942185359473","8,7,6,5,4,3,2,1","CORN CROP,CORN CROP,CORN CROP,CORN CROP,CORN CROP,CORN CROP,CORN CROP,CORN CROP","0,0,0,0,0,0,0,0","20,20,20,20,20,20,20,20","10,10,10,10,10,10,10,10","20,20,20,20,20,20,20,20","20,20,20,20,20,20,20,20","20,20,20,20,20,20,20,20","0,0,0,0,0,0,0,0","20,20,20,20,20,20,20,20","10,10,10,10,10,10,10,10","20,20,20,20,20,20,20,20","20,20,20,20,20,20,20,20","20,20,20,20,20,20,20,20","1,0,1,1,1,1,1,0","2138,1418,1017,477,2537,525,377,1274","92.48313670276487,61.15303624818086,35.610770711391936,27.965293853529083,-16.488550204988158,24.160499154322437,33.73403032722618,5.084732231795095","54.42610453280372,-29.075404550912715,19.013058776236942,19.752198254370168,25.656366052093023,34.6304441767672,36.391451294588975,-17.023031531645792","0","0"
"666","86","text","0","121","1340111","0-0","","","","","","","","","","","","","","","","","","","","","","","","","","","","","","","","","","","","",""
"","","plant-game","0","122","1353801","0-0","","200","190","8","WHEAT CROP","Left","200","180","2","THISTLE WEED","experimental","48","1,2,3,4,5,6,7,8","190,178.36662827112593,185.19691213376365,182.3841717016204,172.46741432397516,202.97187735939553,231.24050402076688,259.3711911521618","8,7,6,5,4,3,2,1","WHEAT CROP,WHEAT CROP,WHEAT CROP,WHEAT CROP,WHEAT CROP,WHEAT CROP,WHEAT CROP,WHEAT CROP","180,195.58058983797883,140,195.03120405102595,224.15373409541135,256.8190388577599,270.61222643817536,333.3368030330348","2,1,6,5,4,3,2,1","THISTLE WEED,THISTLE WEED,NETTLE WEED,NETTLE WEED,NETTLE WEED,NETTLE WEED,NETTLE WEED,NETTLE WEED","20,20,20,20,20,20,20,20","20,20,20,20,20,20,20,20","10,10,10,10,10,10,10,10","20,20,20,20,20,20,20,20","0,0,0,0,0,0,0,0","20,20,20,20,20,20,20,20","20,20,20,20,20,20,20,20","20,20,20,20,20,20,20,20","10,10,10,10,10,10,10,10","20,20,20,20,20,20,20,20","0,0,0,0,0,0,0,0","20,20,20,20,20,20,20,20","0,0,0,1,0,0,0,1","953,158,1360,641,1484,610,211,1188","-11.63337172887406,6.830283862637716,-2.812740432143258,-9.916757377645242,30.504463035420365,28.268626661371336,28.130687131394932,15.323448240422021","15.58058983797882,16.45779226872991,55.03120405102595,29.122530044385396,32.66530476234851,13.793187580415474,62.72457659485945,-10.128243276584","0","0"
"623","86","text","0","123","1354634","0-0","","","","","","","","","","","","","","","","","","","","","","","","","","","","","","","","","","","","",""
"","","plant-game","0","124","1369859","0-0","","200","190","1","CORN CROP","Left","200","180","8","THISTLE WEED","experimental","49","1,2,3,4,5,6,7,8","190,130,117.03786247018304,76.60808460029294,116.89683741672027,153.21131060343808,156.36220695944337,138.32003422341634","1,7,6,5,4,3,2,1","CORN CROP,WHEAT CROP,WHEAT CROP,WHEAT CROP,WHEAT CROP,WHEAT CROP,WHEAT CROP,WHEAT CROP","180,197.87721653672745,156.2928045432277,191.38313703793227,202.70905961555877,208.31136992211506,174.73300115910195,167.69400450114762","8,7,6,5,4,3,2,1","THISTLE WEED,THISTLE WEED,THISTLE WEED,THISTLE WEED,THISTLE WEED,THISTLE WEED,THISTLE WEED,THISTLE WEED","20,20,20,20,20,20,20,20","20,20,20,20,20,20,20,20","10,10,10,10,10,10,10,10","20,20,20,20,20,20,20,20","0,0,0,0,0,0,0,0","20,20,20,20,20,20,20,20","20,20,20,20,20,20,20,20","20,20,20,20,20,20,20,20","10,10,10,10,10,10,10,10","20,20,20,20,20,20,20,20","0,0,0,0,0,0,0,0","20,20,20,20,20,20,20,20","0,1,1,0,1,1,1,0","924,1250,995,782,686,1435,697,809","17.694120408853,-12.962137529816955,-40.4297778698901,40.28875281642734,36.314473186717805,3.150896356005286,-18.042172736027037,14.75539545508207","17.877216536727452,-41.58441199349976,35.09033249470456,11.325922577626498,5.602310306556304,-33.5783687630131,-7.038996657954316,6.4035082492430035","0","0"
"318","86","text","0","125","1370257","0-0","","","","","","","","","","","","","","","","","","","","","","","","","","","","","","","","","","","","",""
"","","plant-game","0","126","1385018","0-0","","200","190","2","WHEAT CROP","Left","200","180","4","THISTLE WEED","experimental","50","1,2,3,4","190,227.70642150539192,180,187.83606014145866","2,1,2,1","WHEAT CROP,WHEAT CROP,CORN CROP,CORN CROP","180,240.47582610084316,229.35205380034776,218.96416408871795","4,3,2,1","THISTLE WEED,THISTLE WEED,THISTLE WEED,THISTLE WEED","20,20,20,20","20,20,20,20","10,10,10,10","20,20,20,20","0,0,0,0","20,20,20,20","20,20,20,20","20,20,20,20","10,10,10,10","20,20,20,20","0,0,0,0","20,20,20,20","0,1,1,1","1038,1824,1887,630","37.70642150539191,-1.985579614922569,7.836060141458661,-14.771386359759438","60.47582610084316,-11.123772300495391,-10.387889711629814,-4.045895556979899","2","0"
"746","86","text","0","127","1385994","0-0","","","","","","","","","","","","","","","","","","","","","","","","","","","","","","","","","","","","",""
"","","plant-game","0","128","1397584","0-0","","200","190","2","CORN CROP","Left","200","180","1","NETTLE WEED","experimental","51","1,2","190,215.7353464519889","2,1","CORN CROP,CORN CROP","180,190","1,1","NETTLE WEED,THISTLE WEED","20,20","20,20","10,10","20,20","0,0","20,20","20,20","20,20","10,10","20,20","0,0","20,20","0,0","2544,2031","25.735346451988896,22.278023477460675","18.488766865792307,29.07581981191644","0","0"
"545","86","text","0","129","1398354","0-0","","","","","","","","","","","","","","","","","","","","","","","","","","","","","","","","","","","","",""
"","","plant-game","0","130","1415825","0-0","","200","120","1","WHEAT CROP","Right","200","160","4","NETTLE WEED","experimental","52","1,2,3,4","160,163.025122802452,211.42644462336665,186.30714566154654","4,3,2,1","NETTLE WEED,NETTLE WEED,NETTLE WEED,NETTLE WEED","120,170,179.49568362732865,163.10424955748724","1,3,2,1","WHEAT CROP,CORN CROP,CORN CROP,CORN CROP","0,0,0,0","20,20,20,20","10,10,10,10","20,20,20,20","20,20,20,20","20,20,20,20","0,0,0,0","20,20,20,20","10,10,10,10","20,20,20,20","20,20,20,20","20,20,20,20","0,1,0,1","1020,5711,927,1362","3.0251228024519943,48.40132182091465,-25.11929896182012,19.292868761311492","-15.73089540246154,9.495683627328642,-16.391434069841402,19.890369354810915","0","0"
"239","86","text","0","131","1416284","0-0","","","","","","","","","","","","","","","","","","","","","","","","","","","","","","","","","","","","",""
"","","plant-game","0","132","1426222","0-0","","200","180","1","CORN CROP","Right","200","180","4","THISTLE WEED","experimental","53","1,2,3,4","180,149.11431957044016,136.01319530397737,138.99860660310156","4,3,2,1","THISTLE WEED,THISTLE WEED,THISTLE WEED,THISTLE WEED","180,170,181.20701505526745,220.453145591645","1,3,2,1","CORN CROP,WHEAT CROP,WHEAT CROP,WHEAT CROP","0,0,0,0","20,20,20,20","10,10,10,10","20,20,20,20","20,20,20,20","20,20,20,20","0,0,0,0","20,20,20,20","10,10,10,10","20,20,20,20","20,20,20,20","20,20,20,20","0,1,1,1","740,1242,563,616","-30.885680429559855,-13.101124266462797,2.9854112991241877,11.552391052526556","-20.73596583035569,11.207015055267446,39.24613053637755,0.21161263879334768","0","0"
"596","86","text","0","133","1427008","0-0","","","","","","","","","","","","","","","","","","","","","","","","","","","","","","","","","","","","",""
"","","plant-game","0","134","1444553","0-0","","200","120","4","WHEAT CROP","Left","200","190","2","NETTLE WEED","experimental","54","1,2,3,4","120,103.43971335885848,107.3031667585444,109.89114641345097","4,3,2,1","WHEAT CROP,WHEAT CROP,WHEAT CROP,WHEAT CROP","190,199.72971454356025,180,176.01513342036702","2,1,2,1","NETTLE WEED,NETTLE WEED,THISTLE WEED,THISTLE WEED","20,20,20,20","20,20,20,20","10,10,10,10","20,20,20,20","0,0,0,0","20,20,20,20","20,20,20,20","20,20,20,20","10,10,10,10","20,20,20,20","0,0,0,0","20,20,20,20","1,0,1,0","4292,2357,2675,2520","-16.560286641141516,3.863453399685927,2.587979654906566,18.18878392427114","9.729714543560261,30.90507063032657,-3.9848665796329845,-5.841092754703212","0","0"
"574","86","text","0","135","1445357","0-0","","","","","","","","","","","","","","","","","","","","","","","","","","","","","","","","","","","","",""
"","","plant-game","0","136","1461255","0-0","","200","160","2","WHEAT CROP","Left","200","190","8","THISTLE WEED","experimental","55","1,2,3,4,5,6,7,8","160,121.86151475196077,140,160.87733141498012,176.07994827330688,171.09895292508128,181.0657338399925,186.1574828170646","2,1,6,5,4,3,2,1","WHEAT CROP,WHEAT CROP,CORN CROP,CORN CROP,CORN CROP,CORN CROP,CORN CROP,CORN CROP","190,207.43226155329637,212.8131645997912,208.8113535356771,231.23387397089323,223.5374063669735,211.99600883994208,253.71386549828682","8,7,6,5,4,3,2,1","THISTLE WEED,THISTLE WEED,THISTLE WEED,THISTLE WEED,THISTLE WEED,THISTLE WEED,THISTLE WEED,THISTLE WEED","20,20,20,20,20,20,20,20","20,20,20,20,20,20,20,20","10,10,10,10,10,10,10,10","20,20,20,20,20,20,20,20","0,0,0,0,0,0,0,0","20,20,20,20,20,20,20,20","20,20,20,20,20,20,20,20","20,20,20,20,20,20,20,20","10,10,10,10,10,10,10,10","20,20,20,20,20,20,20,20","0,0,0,0,0,0,0,0","20,20,20,20,20,20,20,20","1,0,0,0,1,0,0,1","2687,1434,796,438,642,1264,676,974","-38.13848524803923,28.7269853795445,20.877331414980134,15.20261685832676,-4.980995348225613,9.966780914911219,5.091748977072099,8.690269873926107","17.432261553296375,5.380903046494833,-4.001811064114094,22.422520435216114,-7.69646760391972,-11.541397527031435,41.71785665834475,10.982057157509196","0","0"
"251","86","text","0","137","1461696","0-0","","","","","","","","","","","","","","","","","","","","","","","","","","","","","","","","","","","","",""
"","","plant-game","0","138","1471285","0-0","","200","180","2","CORN CROP","Left","200","120","4","THISTLE WEED","experimental","56","1,2,3,4","180,194.07472493986523,180,191.96585888433063","2,1,2,1","CORN CROP,CORN CROP,WHEAT CROP,WHEAT CROP","120,177.14553675029148,207.38294072562311,178.17111283156504","4,3,2,1","THISTLE WEED,THISTLE WEED,THISTLE WEED,THISTLE WEED","20,20,20,20","20,20,20,20","10,10,10,10","20,20,20,20","0,0,0,0","20,20,20,20","20,20,20,20","20,20,20,20","10,10,10,10","20,20,20,20","0,0,0,0","20,20,20,20","0,0,1,1","771,350,1454,1037","14.074724939865234,28.031505513563665,11.965858884330636,-22.51939238751379","57.145536750291484,30.23740397533164,-29.211827894058068,-14.839995176867884","0","0"
"247","86","text","0","139","1471662","0-0","","","","","","","","","","","","","","","","","","","","","","","","","","","","","","","","","","","","",""
"","","plant-game","0","140","1493626","0-0","","200","180","8","CORN CROP","Right","200","160","1","NETTLE WEED","experimental","57","1,2,3,4,5,6,7,8","160,130,112.03747891854343,175.51711096135244,203.78502545782678,182.98598898528832,200.27963894052888,177.64235552898182","1,7,6,5,4,3,2,1","NETTLE WEED,THISTLE WEED,THISTLE WEED,THISTLE WEED,THISTLE WEED,THISTLE WEED,THISTLE WEED,THISTLE WEED","180,192.67104187763402,234.0754320069814,256.9744400542508,288.3290563599333,287.9007760999621,316.08936618371445,316.4785151255912","8,7,6,5,4,3,2,1","CORN CROP,CORN CROP,CORN CROP,CORN CROP,CORN CROP,CORN CROP,CORN CROP,CORN CROP","0,0,0,0,0,0,0,0","20,20,20,20,20,20,20,20","10,10,10,10,10,10,10,10","20,20,20,20,20,20,20,20","20,20,20,20,20,20,20,20","20,20,20,20,20,20,20,20","0,0,0,0,0,0,0,0","20,20,20,20,20,20,20,20","10,10,10,10,10,10,10,10","20,20,20,20,20,20,20,20","20,20,20,20,20,20,20,20","20,20,20,20,20,20,20,20","1,1,1,0,0,0,0,1","1067,1985,959,3298,1605,2156,980,2101","23.76992032267668,-17.962521081456572,63.479632042809016,28.267914496474326,-20.799036472538454,17.293649955240564,-22.63728341154705,31.713588190733613","12.671041877634012,41.404390129347384,22.89900804726943,31.35461630568249,-0.428280259971179,28.188590083752327,0.38914894187673965,9.564381857913524","0","0"
"215","86","text","0","141","1494041","0-0","","","","","","","","","","","","","","","","","","","","","","","","","","","","","","","","","","","","",""
"","","plant-game","0","142","1505023","0-0","","200","160","2","WHEAT CROP","Left","200","190","1","THISTLE WEED","experimental","58","1,2","160,186.7655972103815","2,1","WHEAT CROP,WHEAT CROP","190,190","1,1","THISTLE WEED,NETTLE WEED","20,20","20,20","10,10","20,20","0,0","20,20","20,20","20,20","10,10","20,20","0,0","20,20","1,0","3464,1722","26.765597210381475,47.03620518168508","4.71447889682124,37.74690289724123","0","0"
"751","86","text","0","143","1505984","0-0","","","","","","","","","","","","","","","","","","","","","","","","","","","","","","","","","","","","",""
"","","plant-game","0","144","1519746","0-0","","200","160","2","WHEAT CROP","Right","200","160","8","THISTLE WEED","experimental","59","1,2,3,4,5,6,7,8","160,159.72120978392516,198.3695540608432,252.3548668316175,257.7482204387389,288.47686189700266,293.27016934183456,308.2777445999496","8,7,6,5,4,3,2,1","THISTLE WEED,THISTLE WEED,THISTLE WEED,THISTLE WEED,THISTLE WEED,THISTLE WEED,THISTLE WEED,THISTLE WEED","160,163.9611767856254,140,167.06451916501098,135.82767912676218,153.7778461839032,148.97364486522298,143.15832181032053","2,1,6,5,4,3,2,1","WHEAT CROP,WHEAT CROP,CORN CROP,CORN CROP,CORN CROP,CORN CROP,CORN CROP,CORN CROP","0,0,0,0,0,0,0,0","20,20,20,20,20,20,20,20","10,10,10,10,10,10,10,10","20,20,20,20,20,20,20,20","20,20,20,20,20,20,20,20","20,20,20,20,20,20,20,20","0,0,0,0,0,0,0,0","20,20,20,20,20,20,20,20","10,10,10,10,10,10,10,10","20,20,20,20,20,20,20,20","20,20,20,20,20,20,20,20","20,20,20,20,20,20,20,20","0,0,1,0,1,0,0,1","688,855,1857,1513,465,421,435,12","-0.27879021607483406,38.64834427691805,53.98531277077429,5.393353607121365,30.72864145826378,4.793307444831881,15.00757525811502,18.847633730917366","3.9611767856253977,-34.32775777078835,27.064519165010978,-31.236840038248786,17.95016705714103,-4.804201318680207,-5.815323054902443,9.172733901144763","0","0"
"455","86","text","0","145","1520411","0-0","","","","","","","","","","","","","","","","","","","","","","","","","","","","","","","","","","","","",""
"","","plant-game","0","146","1531314","0-0","","200","180","2","WHEAT CROP","Left","200","120","1","NETTLE WEED","experimental","60","1,2","180,217.8649044286504","2,1","WHEAT CROP,WHEAT CROP","120,190","1,1","NETTLE WEED,THISTLE WEED","20,20","20,20","10,10","20,20","0,0","20,20","20,20","20,20","10,10","20,20","0,0","20,20","0,1","1149,2543","37.86490442865038,-37.26502798769487","5.354932211141403,-23.804336438139046","0","0"
"741","86","text","0","147","1532265","0-0","","","","","","","","","","","","","","","","","","","","","","","","","","","","","","","","","","","","",""
"","","plant-game","0","148","1542701","0-0","","200","180","8","WHEAT CROP","Left","200","160","8","THISTLE WEED","experimental","61","1,2,3,4,5,6,7,8","180,146.18458700775298,168.8636191416416,174.0341339028617,190.3802805720566,249.62703663306675,246.36218224155783,263.7163463485367","8,7,6,5,4,3,2,1","WHEAT CROP,WHEAT CROP,WHEAT CROP,WHEAT CROP,WHEAT CROP,WHEAT CROP,WHEAT CROP,WHEAT CROP","160,191.40243192938235,227.88162555800992,209.83179827201332,231.55049540163247,252.34914445129078,264.1651702401312,289.21900989389064","8,7,6,5,4,3,2,1","THISTLE WEED,THISTLE WEED,THISTLE WEED,THISTLE WEED,THISTLE WEED,THISTLE WEED,THISTLE WEED,THISTLE WEED","20,20,20,20,20,20,20,20","20,20,20,20,20,20,20,20","10,10,10,10,10,10,10,10","20,20,20,20,20,20,20,20","0,0,0,0,0,0,0,0","20,20,20,20,20,20,20,20","20,20,20,20,20,20,20,20","20,20,20,20,20,20,20,20","10,10,10,10,10,10,10,10","20,20,20,20,20,20,20,20","0,0,0,0,0,0,0,0","20,20,20,20,20,20,20,20","0,0,1,1,1,1,0,1","763,254,970,672,227,1032,529,751","-33.81541299224701,22.67903213388862,5.170514761220081,16.346146669194884,59.24675606101015,-3.2648543915089068,17.3541641069789,-20.689596538083414","31.402431929382352,36.47919362862756,-18.049827285996606,21.718697129619166,20.798649049658295,11.816025788840445,25.053839653759447,3.4266475851505374","0","0"
"623","86","text","0","149","1543504","0-0","","","","","","","","","","","","","","","","","","","","","","","","","","","","","","","","","","","","",""
"","","plant-game","0","150","1554662","0-0","","200","180","4","WHEAT CROP","Left","200","190","2","NETTLE WEED","experimental","62","1,2,3,4","180,159.57270795672173,120.95735684200581,96.2733048485128","4,3,2,1","WHEAT CROP,WHEAT CROP,WHEAT CROP,WHEAT CROP","190,207.1290675055215,180,176.07236765721592","2,1,2,1","NETTLE WEED,NETTLE WEED,THISTLE WEED,THISTLE WEED","20,20,20,20","20,20,20,20","10,10,10,10","20,20,20,20","0,0,0,0","20,20,20,20","20,20,20,20","20,20,20,20","10,10,10,10","20,20,20,20","0,0,0,0","20,20,20,20","1,1,1,1","2765,111,3042,430","-20.42729204327828,-38.61535111471592,-24.68405199349302,-17.048015093277385","17.12906750552151,13.76512409499444,-3.92763234278408,-1.9724736754282415","0","0"
"512","86","text","0","151","1555365","0-0","","","","","","","","","","","","","","","","","","","","","","","","","","","","","","","","","","","","",""
"","","plant-game","0","152","1573871","0-0","","200","120","8","WHEAT CROP","Right","200","180","2","NETTLE WEED","experimental","63","1,2,3,4,5,6,7,8","180,156.85389527940748,140,167.6101077692276,191.48774827295787,205.54689317158895,275.58754098079277,296.4409421053651","2,1,6,5,4,3,2,1","NETTLE WEED,NETTLE WEED,THISTLE WEED,THISTLE WEED,THISTLE WEED,THISTLE WEED,THISTLE WEED,THISTLE WEED","120,121.73971970720888,144.95700401006303,164.88807875900565,182.98266690600485,189.1739579674782,202.00981187180992,208.2555800629146","8,7,6,5,4,3,2,1","WHEAT CROP,WHEAT CROP,WHEAT CROP,WHEAT CROP,WHEAT CROP,WHEAT CROP,WHEAT CROP,WHEAT CROP","0,0,0,0,0,0,0,0","20,20,20,20,20,20,20,20","10,10,10,10,10,10,10,10","20,20,20,20,20,20,20,20","20,20,20,20,20,20,20,20","20,20,20,20,20,20,20,20","0,0,0,0,0,0,0,0","20,20,20,20,20,20,20,20","10,10,10,10,10,10,10,10","20,20,20,20,20,20,20,20","20,20,20,20,20,20,20,20","20,20,20,20,20,20,20,20","1,1,1,1,0,1,1,0","3615,910,3005,1175,736,664,550,470","-23.146104720592533,35.204464283075616,27.6101077692276,23.877640503730284,14.059144898631066,70.0406478092038,20.853401124572322,15.787344812338596","1.7397197072088844,23.21728430285415,19.931074748942613,18.094588146999214,6.191291061473347,12.835853904331717,6.245768191104677,-12.736535559437991","0","0"
"108","86","text","0","153","1574155","0-0","","","","","","","","","","","","","","","","","","","","","","","","","","","","","","","","","","","","",""
"","","plant-game","0","154","1589520","0-0","","200","160","8","CORN CROP","Right","200","120","8","NETTLE WEED","experimental","64","1,2,3,4,5,6,7,8","120,159.93812285906608,198.8850128926872,240.66554167662483,287.4782170690254,273.7903997240535,247.49903357195768,247.94333235706222","8,7,6,5,4,3,2,1","NETTLE WEED,NETTLE WEED,NETTLE WEED,NETTLE WEED,NETTLE WEED,NETTLE WEED,NETTLE WEED,NETTLE WEED","160,170.64089923777271,184.7252615788206,188.8442134950051,241.01695073769326,279.7618744001994,251.54419366892998,207.56279995209263","8,7,6,5,4,3,2,1","CORN CROP,CORN CROP,CORN CROP,CORN CROP,CORN CROP,CORN CROP,CORN CROP,CORN CROP","0,0,0,0,0,0,0,0","20,20,20,20,20,20,20,20","10,10,10,10,10,10,10,10","20,20,20,20,20,20,20,20","20,20,20,20,20,20,20,20","20,20,20,20,20,20,20,20","0,0,0,0,0,0,0,0","20,20,20,20,20,20,20,20","10,10,10,10,10,10,10,10","20,20,20,20,20,20,20,20","20,20,20,20,20,20,20,20","20,20,20,20,20,20,20,20","1,1,0,1,1,0,0,1","3994,492,517,1078,651,2485,402,636","39.938122859066084,38.946890033621116,41.780528783937626,46.812675392400536,-13.687817344971918,-26.2913661520958,0.44429878510454834,-18.620928846618177","10.6408992377727,14.084362341047887,4.118951916184503,52.17273724268817,38.74492366250613,-28.21768073126944,-43.98139371683734,32.12582978478204","0","0"
"120","86","text","0","155","1589810","0-0","","","","","","","","","","","","","","","","","","","","","","","","","","","","","","","","","","","","",""
"","","plant-game","0","156","1605171","0-0","","200","160","8","WHEAT CROP","Right","200","180","4","NETTLE WEED","experimental","65","1,2,3,4,5,6,7,8","180,160.04451865269635,184.6869019171237,212.71118965318834,160,182.83108480096584,241.16359355744254,252.8734495853547","4,3,2,1,4,3,2,1","NETTLE WEED,NETTLE WEED,NETTLE WEED,NETTLE WEED,THISTLE WEED,THISTLE WEED,THISTLE WEED,THISTLE WEED","160,163.20915040438356,184.03045718526056,172.9887185087511,168.2642460774902,185.2689142088666,222.44801419086596,166.99209977380195","8,7,6,5,4,3,2,1","WHEAT CROP,WHEAT CROP,WHEAT CROP,WHEAT CROP,WHEAT CROP,WHEAT CROP,WHEAT CROP,WHEAT CROP","0,0,0,0,0,0,0,0","20,20,20,20,20,20,20,20","10,10,10,10,10,10,10,10","20,20,20,20,20,20,20,20","20,20,20,20,20,20,20,20","20,20,20,20,20,20,20,20","0,0,0,0,0,0,0,0","20,20,20,20,20,20,20,20","10,10,10,10,10,10,10,10","20,20,20,20,20,20,20,20","20,20,20,20,20,20,20,20","20,20,20,20,20,20,20,20","1,1,1,1,1,1,0,1","1115,855,1395,1401,2281,351,1107,844","-19.95548134730366,24.642383264427345,28.024287736064636,25.85125049913689,22.831084800965844,58.332508756476685,11.709856027912174,0.9323084149516134","3.209150404383564,20.82130678087701,-11.04173867650944,-4.724472431260878,17.00466813137638,37.17909998199938,-55.45591441706401,17.130838963854558","0","0"
"260","86","text","0","157","1605651","0-0","","","","","","","","","","","","","","","","","","","","","","","","","","","","","","","","","","","","",""
"","","plant-game","0","158","1611431","0-0","","200","190","1","WHEAT CROP","Right","200","180","1","NETTLE WEED","experimental","66","1","180","1","NETTLE WEED","190","1","WHEAT CROP","0","20","10","20","20","20","0","20","10","20","20","20","1","1500","12.128098572454624","40.164680564198186","0","0"
"607","86","text","0","159","1612259","0-0","","","","","","","","","","","","","","","","","","","","","","","","","","","","","","","","","","","","",""
"","","plant-game","0","160","1622100","0-0","","200","120","4","WHEAT CROP","Right","200","160","1","NETTLE WEED","experimental","67","1,2,3,4","160,170,184.74985830169513,166.2608954463411","1,3,2,1","NETTLE WEED,THISTLE WEED,THISTLE WEED,THISTLE WEED","120,129.12590642802178,157.06854949780146,155.2436856140193","4,3,2,1","WHEAT CROP,WHEAT CROP,WHEAT CROP,WHEAT CROP","0,0,0,0","20,20,20,20","10,10,10,10","20,20,20,20","20,20,20,20","20,20,20,20","0,0,0,0","20,20,20,20","10,10,10,10","20,20,20,20","20,20,20,20","20,20,20,20","1,1,0,0","845,786,1603,687","42.740008977969744,14.74985830169512,-18.48896285535402,34.379394872710506","9.125906428021768,27.942643069779685,-1.8248638837821352,-41.193764242616204","0","0"
"167","86","text","0","161","1622447","0-0","","","","","","","","","","","","","","","","","","","","","","","","","","","","","","","","","","","","",""
"","","plant-game","0","162","1637516","0-0","","200","180","2","CORN CROP","Right","200","190","4","THISTLE WEED","experimental","68","1,2,3,4","190,198.7144270841696,197.36826207229194,195.5479798041392","4,3,2,1","THISTLE WEED,THISTLE WEED,THISTLE WEED,THISTLE WEED","180,192.38790143899718,180,194.80255647771253","2,1,2,1","CORN CROP,CORN CROP,WHEAT CROP,WHEAT CROP","0,0,0,0","20,20,20,20","10,10,10,10","20,20,20,20","20,20,20,20","20,20,20,20","0,0,0,0","20,20,20,20","10,10,10,10","20,20,20,20","20,20,20,20","20,20,20,20","0,1,0,0","4101,3004,1542,1079","8.714427084169607,-1.3461650118776838,-1.8202822681527495,-0.5776620859709498","12.387901438997165,-0.11197503898104344,14.802556477712514,12.365395733990653","0","0"
"255","86","text","0","163","1637951","0-0","","","","","","","","","","","","","","","","","","","","","","","","","","","","","","","","","","","","",""
"","","plant-game","0","164","1648901","0-0","","200","190","2","CORN CROP","Right","200","160","4","NETTLE WEED","experimental","69","1,2,3,4","160,219.69776195854925,223.61742666420838,252.36253062493807","4,3,2,1","NETTLE WEED,NETTLE WEED,NETTLE WEED,NETTLE WEED","190,225.88357134295723,180,182.30105460658717","2,1,2,1","CORN CROP,CORN CROP,WHEAT CROP,WHEAT CROP","0,0,0,0","20,20,20,20","10,10,10,10","20,20,20,20","20,20,20,20","20,20,20,20","0,0,0,0","20,20,20,20","10,10,10,10","20,20,20,20","20,20,20,20","20,20,20,20","1,0,1,0","1233,1201,1783,594","59.69776195854926,3.919664705659138,28.745103960729697,-2.2331423800788692","35.883571342957225,26.265977527713858,2.3010546065871864,46.74309988902068","0","0"
"2082","86","text","0","165","1651183","0-0","","","","","","","","","","","","","","","","","","","","","","","","","","","","","","","","","","","","",""
"","","plant-game","0","166","1656491","0-0","","200","190","2","CORN CROP","Right","200","160","2","THISTLE WEED","experimental","70","1,2","160,140.83196770626273","2,1","THISTLE WEED,THISTLE WEED","190,217.7439448778239","2,1","CORN CROP,CORN CROP","0,0","20,20","10,10","20,20","20,20","20,20","0,0","20,20","10,10","20,20","20,20","20,20","1,1","1617,567","-19.16803229373727,45.19558149594739","27.743944877823907,42.419995581255435","0","0"
"810","86","text","0","167","1657513","0-0","","","","","","","","","","","","","","","","","","","","","","","","","","","","","","","","","","","","",""
"","","plant-game","0","168","1667229","0-0","","200","180","1","WHEAT CROP","Left","200","120","4","THISTLE WEED","experimental","71","1,2,3,4","180,170,161.43274752851065,208.99572943340388","1,3,2,1","WHEAT CROP,CORN CROP,CORN CROP,CORN CROP","120,122.21285327976258,130.78093558409967,166.95652438333093","4,3,2,1","THISTLE WEED,THISTLE WEED,THISTLE WEED,THISTLE WEED","20,20,20,20","20,20,20,20","10,10,10,10","20,20,20,20","0,0,0,0","20,20,20,20","20,20,20,20","20,20,20,20","10,10,10,10","20,20,20,20","0,0,0,0","20,20,20,20","0,0,0,0","1620,1588,459,722","0.0858505272972927,-8.567252471489365,47.56298190489325,3.6615538173450197","2.212853279762591,8.568082304337086,36.175588799231264,19.093855888555368","0","0"
"649","86","text","0","169","1668095","0-0","","","","","","","","","","","","","","","","","","","","","","","","","","","","","","","","","","","","",""
"","","plant-game","0","170","1680401","0-0","","200","120","8","CORN CROP","Left","200","160","8","NETTLE WEED","experimental","72","1,2,3,4,5,6,7,8","120,121.65462843790785,134.46051132787633,110.66117483632677,178.83554545779944,176.02973340130706,158.4391337636443,160.82628042440444","8,7,6,5,4,3,2,1","CORN CROP,CORN CROP,CORN CROP,CORN CROP,CORN CROP,CORN CROP,CORN CROP,CORN CROP","160,195.1657137677643,173.81107653604425,161.78188466441844,176.56884891137312,167.16877183297555,200.0964939789827,220.16930570852583","8,7,6,5,4,3,2,1","NETTLE WEED,NETTLE WEED,NETTLE WEED,NETTLE WEED,NETTLE WEED,NETTLE WEED,NETTLE WEED,NETTLE WEED","20,20,20,20,20,20,20,20","20,20,20,20,20,20,20,20","10,10,10,10,10,10,10,10","20,20,20,20,20,20,20,20","0,0,0,0,0,0,0,0","20,20,20,20,20,20,20,20","20,20,20,20,20,20,20,20","20,20,20,20,20,20,20,20","10,10,10,10,10,10,10,10","20,20,20,20,20,20,20,20","0,0,0,0,0,0,0,0","20,20,20,20,20,20,20,20","0,1,1,0,1,0,1,0","1558,773,728,918,696,555,2025,424","1.6546284379078493,12.805882889968485,-23.79933649154957,68.17437062147268,-2.8058120564923823,-17.590599637662763,2.387146660760157,27.040414750050374","35.16571376776429,-21.354637231720023,-12.029191871625804,14.786964246954675,-9.400077078397562,32.927722146007135,20.07281172954314,47.9356846340566","0","0"
"244","86","text","0","171","1680805","0-0","","","","","","","","","","","","","","","","","","","","","","","","","","","","","","","","","","","","",""
"","","plant-game","0","172","1695006","0-0","","200","160","1","WHEAT CROP","Right","200","120","4","NETTLE WEED","experimental","73","1,2,3,4","120,105.6360860181928,129.63152847038285,175.3866645841215","4,3,2,1","NETTLE WEED,NETTLE WEED,NETTLE WEED,NETTLE WEED","160,170,182.15400829424334,173.47476227956972","1,3,2,1","WHEAT CROP,CORN CROP,CORN CROP,CORN CROP","0,0,0,0","20,20,20,20","10,10,10,10","20,20,20,20","20,20,20,20","20,20,20,20","0,0,0,0","20,20,20,20","10,10,10,10","20,20,20,20","20,20,20,20","20,20,20,20","1,1,1,0","4151,1837,589,810","-14.363913981807201,23.99544245219004,45.755136113738644,-0.4174004248898395","-1.499469956108527,12.154008294243326,-8.679246014673613,8.562110332037854","0","0"
"122","86","text","0","173","1695316","0-0","","","","","","","","","","","","","","","","","","","","","","","","","","","","","","","","","","","","",""
"","","plant-game","0","174","1709424","0-0","","200","160","8","WHEAT CROP","Right","200","190","4","THISTLE WEED","experimental","74","1,2,3,4,5,6,7,8","190,189.63069873447387,197.4629371658044,210.94887955016134,160,181.71385220688978,224.32289161744922,202.24189106776072","4,3,2,1,4,3,2,1","THISTLE WEED,THISTLE WEED,THISTLE WEED,THISTLE WEED,NETTLE WEED,NETTLE WEED,NETTLE WEED,NETTLE WEED","160,167.72399646737134,170.67588573660532,201.2252462474484,169.05251371081292,213.07020341073172,278.53982036260777,249.05670261660228","8,7,6,5,4,3,2,1","WHEAT CROP,WHEAT CROP,WHEAT CROP,WHEAT CROP,WHEAT CROP,WHEAT CROP,WHEAT CROP,WHEAT CROP","0,0,0,0,0,0,0,0","20,20,20,20,20,20,20,20","10,10,10,10,10,10,10,10","20,20,20,20,20,20,20,20","20,20,20,20,20,20,20,20","20,20,20,20,20,20,20,20","0,0,0,0,0,0,0,0","20,20,20,20,20,20,20,20","10,10,10,10,10,10,10,10","20,20,20,20,20,20,20,20","20,20,20,20,20,20,20,20","20,20,20,20,20,20,20,20","0,0,1,0,1,1,0,0","2545,491,811,627,931,611,497,556","-0.36930126552614384,7.832238431330518,13.485942384356953,-34.69841132586141,21.71385220688979,42.60903941055945,-22.081000549688486,-6.0288281387491205","7.723996467371336,2.951889269233993,30.54936051084308,-32.1727325366355,44.017689699918805,65.46961695187608,-29.48311774600548,7.88550515104352","0","0"
"1097","86","text","0","175","1710701","0-0","","","","","","","","","","","","","","","","","","","","","","","","","","","","","","","","","","","","",""
"","","plant-game","0","176","1717296","0-0","","200","180","2","WHEAT CROP","Left","200","120","2","THISTLE WEED","experimental","75","1,2","180,186.14053761988572","2,1","WHEAT CROP,WHEAT CROP","120,138.04857940947838","2,1","THISTLE WEED,THISTLE WEED","20,20","20,20","10,10","20,20","0,0","20,20","20,20","20,20","10,10","20,20","0,0","20,20","0,0","2465,460","6.140537619885716,14.77185657394622","18.048579409478382,34.06815728985863","0","0"
"2642","86","text","0","177","1720148","0-0","","","","","","","","","","","","","","","","","","","","","","","","","","","","","","","","","","","","",""
"","","plant-game","0","178","1733406","0-0","","200","190","2","CORN CROP","Right","200","120","4","THISTLE WEED","experimental","76","1,2,3,4","120,142.4660366725925,182.99998404803725,188.6536379914514","4,3,2,1","THISTLE WEED,THISTLE WEED,THISTLE WEED,THISTLE WEED","190,241.77930313093472,180,129.46000586083628","2,1,2,1","CORN CROP,CORN CROP,WHEAT CROP,WHEAT CROP","0,0,0,0","20,20,20,20","10,10,10,10","20,20,20,20","20,20,20,20","20,20,20,20","0,0,0,0","20,20,20,20","10,10,10,10","20,20,20,20","20,20,20,20","20,20,20,20","1,1,0,0","2689,908,1324,1910","22.466036672592516,40.53394737544473,5.653653943414163,17.267390147891398","51.779303130934714,-5.135970238444866,-50.53999413916373,-25.804088414019123","0","0"
"645","86","text","0","179","1734241","0-0","","","","","","","","","","","","","","","","","","","","","","","","","","","","","","","","","","","","",""
"","","plant-game","0","180","1749572","0-0","","200","190","8","WHEAT CROP","Left","200","120","1","NETTLE WEED","experimental","77","1,2,3,4,5,6,7,8","190,230.18737745774462,210.7063201304603,247.05341502647696,253.408143368287,271.7875908402758,244.71452256545794,271.52659464275047","8,7,6,5,4,3,2,1","WHEAT CROP,WHEAT CROP,WHEAT CROP,WHEAT CROP,WHEAT CROP,WHEAT CROP,WHEAT CROP,WHEAT CROP","120,130,180.504287323233,192.43205675514756,178.38776958809848,215.9521566583201,211.21650721292332,227.88123526004816","1,7,6,5,4,3,2,1","NETTLE WEED,THISTLE WEED,THISTLE WEED,THISTLE WEED,THISTLE WEED,THISTLE WEED,THISTLE WEED,THISTLE WEED","20,20,20,20,20,20,20,20","20,20,20,20,20,20,20,20","10,10,10,10,10,10,10,10","20,20,20,20,20,20,20,20","0,0,0,0,0,0,0,0","20,20,20,20,20,20,20,20","20,20,20,20,20,20,20,20","20,20,20,20,20,20,20,20","10,10,10,10,10,10,10,10","20,20,20,20,20,20,20,20","0,0,0,0,0,0,0,0","20,20,20,20,20,20,20,20","0,0,0,1,0,1,1,1","1206,2075,698,1286,1035,705,791,764","40.18737745774462,-19.481057327284297,36.34709489601664,6.354728341810052,18.379447471988787,-27.073068274817878,26.812072077292513,-41.175729360987646","49.72505016734235,50.50428732323301,11.927769431914557,-14.044287167049065,37.564387070221606,-4.7356494453967715,16.664728047124843,0.8574149386764257","0","0"
"669","86","text","0","181","1750411","0-0","","","","","","","","","","","","","","","","","","","","","","","","","","","","","","","","","","","","",""
"","","plant-game","0","182","1755287","0-0","","200","190","2","WHEAT CROP","Left","200","180","2","THISTLE WEED","experimental","78","1,2","190,192.5989801747788","2,1","WHEAT CROP,WHEAT CROP","180,162.3152474731219","2,1","THISTLE WEED,THISTLE WEED","20,20","20,20","10,10","20,20","0,0","20,20","20,20","20,20","10,10","20,20","0,0","20,20","0,0","1147,480","2.5989801747787986,42.624664050079375","-17.684752526878093,15.072912101151552","0","0"
"148","86","text","0","183","1755595","0-0","","","","","","","","","","","","","","","","","","","","","","","","","","","","","","","","","","","","",""
"","","plant-game","0","184","1774216","0-0","","200","180","2","CORN CROP","Right","200","190","8","NETTLE WEED","experimental","79","1,2,3,4,5,6,7,8","190,206.15003447633538,177.71045900860526,193.44069242311073,224.55043674505905,196.39584770955594,234.2621343536274,238.3619578458341","8,7,6,5,4,3,2,1","NETTLE WEED,NETTLE WEED,NETTLE WEED,NETTLE WEED,NETTLE WEED,NETTLE WEED,NETTLE WEED,NETTLE WEED","180,235.69014903148076,140,136.95309226471886,140.536897543623,163.34596174832916,171.60668465458278,141.598439662745","2,1,6,5,4,3,2,1","CORN CROP,CORN CROP,WHEAT CROP,WHEAT CROP,WHEAT CROP,WHEAT CROP,WHEAT CROP,WHEAT CROP","0,0,0,0,0,0,0,0","20,20,20,20,20,20,20,20","10,10,10,10,10,10,10,10","20,20,20,20,20,20,20,20","20,20,20,20,20,20,20,20","20,20,20,20,20,20,20,20","0,0,0,0,0,0,0,0","20,20,20,20,20,20,20,20","10,10,10,10,10,10,10,10","20,20,20,20,20,20,20,20","20,20,20,20,20,20,20,20","20,20,20,20,20,20,20,20","1,0,0,1,0,0,0,1","2745,3352,2054,669,1163,798,541,474","16.150034476335378,-28.43957546773012,15.730233414505479,31.109744321948305,-28.154589035503122,37.86628664407145,4.099823492206694,-2.5927277771480526","55.69014903148075,25.925539565538305,-3.0469077352811524,3.5838052789041406,22.809064204706143,8.260722906253607,-30.00824499183779,12.7503756388668","0","0"
"110","86","text","0","185","1774474","0-0","","","","","","","","","","","","","","","","","","","","","","","","","","","","","","","","","","","","",""
"","","plant-game","0","186","1786972","0-0","","200","120","1","WHEAT CROP","Left","200","190","8","THISTLE WEED","experimental","80","1,2,3,4,5,6,7,8","120,130,102.34965696632003,112.12922014491978,115.75356410497892,86.77185715916855,68.38942500337762,85.39682149483905","1,7,6,5,4,3,2,1","WHEAT CROP,CORN CROP,CORN CROP,CORN CROP,CORN CROP,CORN CROP,CORN CROP,CORN CROP","190,241.5455422859389,226.4322826366888,240.66856082548105,224.79491363472354,201.62563690886327,204.92073135113205,185.76788423365352","8,7,6,5,4,3,2,1","THISTLE WEED,THISTLE WEED,THISTLE WEED,THISTLE WEED,THISTLE WEED,THISTLE WEED,THISTLE WEED,THISTLE WEED","20,20,20,20,20,20,20,20","20,20,20,20,20,20,20,20","10,10,10,10,10,10,10,10","20,20,20,20,20,20,20,20","0,0,0,0,0,0,0,0","20,20,20,20,20,20,20,20","20,20,20,20,20,20,20,20","20,20,20,20,20,20,20,20","10,10,10,10,10,10,10,10","20,20,20,20,20,20,20,20","0,0,0,0,0,0,0,0","20,20,20,20,20,20,20,20","0,1,1,1,1,1,1,1","1329,1135,533,461,442,379,488,489","36.360259778710045,-27.65034303367998,9.779563178599753,3.6243439600591416,-28.981706945810373,-18.382432155790923,17.007396491461417,-12.366974760912363","51.54554228593889,-15.11325964925009,14.236278188792246,-15.87364719075751,-23.169276725860286,3.295094442268785,-19.15284711747854,4.385505231469319","0","0"
"8992","86","text","0","187","1796167","0-0","","","","","","","","","","","","","","","","","","","","","","","","","","","","","","","","","","","","",""
"","","plant-game","0","188","1805501","0-0","","200","180","4","CORN CROP","Right","200","120","4","NETTLE WEED","experimental","81","1,2,3,4","120,134.7371344365998,184.11095555866683,199.64814946631932","4,3,2,1","NETTLE WEED,NETTLE WEED,NETTLE WEED,NETTLE WEED","180,214.8692963839241,215.9519063134586,211.25028154499952","4,3,2,1","CORN CROP,CORN CROP,CORN CROP,CORN CROP","0,0,0,0","20,20,20,20","10,10,10,10","20,20,20,20","20,20,20,20","20,20,20,20","0,0,0,0","20,20,20,20","10,10,10,10","20,20,20,20","20,20,20,20","20,20,20,20","1,1,0,1","2433,1214,1343,916","14.737134436599813,49.37382112206704,15.537193907652496,14.711086963344918","34.869296383924095,1.082609929534513,-4.701624768459087,32.732221953221185","0","0"
"567","86","text","0","189","1806298","0-0","","","","","","","","","","","","","","","","","","","","","","","","","","","","","","","","","","","","",""
"","","plant-game","0","190","1818873","0-0","","200","120","4","WHEAT CROP","Left","200","190","1","THISTLE WEED","experimental","82","1,2,3,4","120,109.82704511291138,127.8302343479034,112.38623980022541","4,3,2,1","WHEAT CROP,WHEAT CROP,WHEAT CROP,WHEAT CROP","190,170,175.96092720014607,217.4943556031322","1,3,2,1","THISTLE WEED,NETTLE WEED,NETTLE WEED,NETTLE WEED","20,20,20,20","20,20,20,20","10,10,10,10","20,20,20,20","0,0,0,0","20,20,20,20","20,20,20,20","20,20,20,20","10,10,10,10","20,20,20,20","0,0,0,0","20,20,20,20","1,1,1,1","3335,1259,462,1921","-10.172954887088624,18.003189234992018,-15.443994547677995,6.325717838772457","3.4440462400497824,5.9609272001460765,41.53342840298612,-12.438997800611943","0","0"
"672","86","text","0","191","1819767","0-0","","","","","","","","","","","","","","","","","","","","","","","","","","","","","","","","","","","","",""
