"rt","key_press","trial_type","trial_index","trial_index_global","time_elapsed","internal_chunk_id","responses","experimental_goal_height","experimental_start_height","experimental_weeks_total","experimental_crop_type","experimental_crop_side","fixed_goal_height","fixed_start_height","fixed_weeks_total","fixed_crop_type","trial_kind","trial_number","stage","left_current_height","left_weeks_remaining","left_crop_type","right_current_height","right_weeks_remaining","right_crop_type","mean_left_growth_given_left","sd_left_growth_given_left","mean_left_growth_given_middle","sd_left_growth_given_middle","mean_left_growth_given_right","sd_left_growth_given_right","mean_right_growth_given_left","sd_right_growth_given_left","mean_right_growth_given_middle","sd_right_growth_given_middle","mean_right_growth_given_right","sd_right_growth_given_right","response","response_time","left_growth","right_growth","other_key_pressed","mouse_clicked"
"2839727","87","text","0","0","2839870","0-0","","","","","","","","","","","","","","","","","","","","","","","","","","","","","","","","","","","","",""
"3559","","survey-text","0","1","2844436","0-0","{""Q0"":""18""}","","","","","","","","","","","","","","","","","","","","","","","","","","","","","","","","","","","",""
"5794","86","text","0","2","5981","0-0","","","","","","","","","","","","","","","","","","","","","","","","","","","","","","","","","","","","",""
"","","plant-game","0","3","56032","0-0","","200","120","8","WHEAT CROP","Right","200","120","8","NETTLE WEED","practice","1","1,2,3,4,5,6,7,8","120,103.02758898567026,105.88216283572974,63.098621359325605,83.16295824188917,83.79715571966311,102.23308711461567,129.78350149683763","8,7,6,5,4,3,2,1","NETTLE WEED,NETTLE WEED,NETTLE WEED,NETTLE WEED,NETTLE WEED,NETTLE WEED,NETTLE WEED,NETTLE WEED","120,122.80406197994876,160.22801916917433,167.06196010148295,163.06570658990782,149.73849702597002,163.50953851104367,188.19794933140903","8,7,6,5,4,3,2,1","WHEAT CROP,WHEAT CROP,WHEAT CROP,WHEAT CROP,WHEAT CROP,WHEAT CROP,WHEAT CROP,WHEAT CROP","0,0,0,0,0,0,0,0","20,20,20,20,20,20,20,20","10,10,10,10,10,10,10,10","20,20,20,20,20,20,20,20","20,20,20,20,20,20,20,20","20,20,20,20,20,20,20,20","0,0,0,0,0,0,0,0","20,20,20,20,20,20,20,20","10,10,10,10,10,10,10,10","20,20,20,20,20,20,20,20","20,20,20,20,20,20,20,20","20,20,20,20,20,20,20,20","0,0,0,0,0,1,1,1","14064,3948,1954,1605,1972,1479,2460,576","-16.97241101432973,2.8545738500594786,-42.78354147640414,20.064336882563563,0.6341974777739379,18.435931394952558,27.550414382221945,19.944826711041912","2.804061979948754,37.423957189225575,6.833940932308612,-3.9962535115751234,-13.327209563937796,13.771041485073654,24.688410820365355,22.601750630946665","0","2"
"686","86","text","0","4","56858","0-0","","","","","","","","","","","","","","","","","","","","","","","","","","","","","","","","","","","","",""
"","","plant-game","0","5","73296","0-0","","200","160","4","WHEAT CROP","Right","200","160","4","NETTLE WEED","practice","2","1,2,3,4","160,164.36601794475968,147.80472096762472,146.8211955571351","4,3,2,1","NETTLE WEED,NETTLE WEED,NETTLE WEED,NETTLE WEED","160,144.96301344177104,141.23183772362836,144.5522580278051","4,3,2,1","WHEAT CROP,WHEAT CROP,WHEAT CROP,WHEAT CROP","0,0,0,0","20,20,20,20","10,10,10,10","20,20,20,20","20,20,20,20","20,20,20,20","0,0,0,0","20,20,20,20","10,10,10,10","20,20,20,20","20,20,20,20","20,20,20,20","1,0,0,0","2019,592,729,404","4.366017944759681,-16.56129697713495,-0.9835254104896184,-15.742099513944648","-15.03698655822896,-3.731175718142672,3.3204203041767477,-35.22932487657094","0","0"
"502","86","text","0","6","74001","0-0","","","","","","","","","","","","","","","","","","","","","","","","","","","","","","","","","","","","",""
"","","plant-game","0","7","88395","0-0","","200","180","2","CORN CROP","Left","200","180","2","NETTLE WEED","practice","3","1,2","180,183.79436141737386","2,1","CORN CROP,CORN CROP","180,189.2726199092722","2,1","NETTLE WEED,NETTLE WEED","20,20","20,20","10,10","20,20","0,0","20,20","20,20","20,20","10,10","20,20","0,0","20,20","1,1","3314,2175","3.794361417373877,20.63963178103958","9.272619909272201,19.697835608173314","0","0"
"1040","86","text","0","8","89595","0-0","","","","","","","","","","","","","","","","","","","","","","","","","","","","","","","","","","","","",""
"","","plant-game","0","9","98175","0-0","","200","190","1","WHEAT CROP","Left","200","190","1","NETTLE WEED","practice","4","1","190","1","WHEAT CROP","190","1","NETTLE WEED","20","20","10","20","0","20","20","20","10","20","0","20","0","2193","26.34266343962898","44.42169315397335","0","0"
"520","86","text","0","10","98835","0-0","","","","","","","","","","","","","","","","","","","","","","","","","","","","","","","","","","","","",""
"","","plant-game","0","11","116945","0-0","","200","120","8","WHEAT CROP","Right","200","160","8","THISTLE WEED","practice","5","1,2,3,4,5,6,7,8","160,164.31748251256454,182.45869366597094,200.9352951130639,243.58253212886186,281.4739466384647,299.91499719629195,324.1152335393958","8,7,6,5,4,3,2,1","THISTLE WEED,THISTLE WEED,THISTLE WEED,THISTLE WEED,THISTLE WEED,THISTLE WEED,THISTLE WEED,THISTLE WEED","120,105.52216487458111,67.89242995573744,117.69802192958451,153.59198723707212,193.19720267411273,224.74820449983403,237.1090530391976","8,7,6,5,4,3,2,1","WHEAT CROP,WHEAT CROP,WHEAT CROP,WHEAT CROP,WHEAT CROP,WHEAT CROP,WHEAT CROP,WHEAT CROP","0,0,0,0,0,0,0,0","20,20,20,20,20,20,20,20","10,10,10,10,10,10,10,10","20,20,20,20,20,20,20,20","20,20,20,20,20,20,20,20","20,20,20,20,20,20,20,20","0,0,0,0,0,0,0,0","20,20,20,20,20,20,20,20","10,10,10,10,10,10,10,10","20,20,20,20,20,20,20,20","20,20,20,20,20,20,20,20","20,20,20,20,20,20,20,20","0,0,1,1,1,1,1,1","1875,2580,700,873,340,514,743,390","4.317482512564553,18.14121115340641,18.47660144709296,42.64723701579798,37.89141450960287,18.441050557827204,24.200236343103843,-1.2698353416133514","-14.477835125418896,-37.629734918843674,49.80559197384707,35.89396530748761,39.60521543704062,31.551001825721308,12.360848539363545,-17.325738396101272","0","0"
"210","86","text","0","12","117245","0-0","","","","","","","","","","","","","","","","","","","","","","","","","","","","","","","","","","","","",""
"","","plant-game","0","13","142515","0-0","","200","180","4","CORN CROP","Left","200","160","4","NETTLE WEED","practice","6","1,2,3,4","180,203.81474564773777,212.2412884517094,262.06022128499194","4,3,2,1","CORN CROP,CORN CROP,CORN CROP,CORN CROP","160,158.92217038283817,207.14067185641818,237.41410561264072","4,3,2,1","NETTLE WEED,NETTLE WEED,NETTLE WEED,NETTLE WEED","20,20,20,20","20,20,20,20","10,10,10,10","20,20,20,20","0,0,0,0","20,20,20,20","20,20,20,20","20,20,20,20","10,10,10,10","20,20,20,20","0,0,0,0","20,20,20,20","1,0,0,1","4066,2227,3120,3141","23.81474564773778,8.426542803971639,49.81893283328255,-25.70989757670324","-1.0778296171618182,48.21850147358001,30.273433756222552,-19.450920395717585","0","0"
"416","86","text","0","14","143061","0-0","","","","","","","","","","","","","","","","","","","","","","","","","","","","","","","","","","","","",""
"","","plant-game","0","15","157159","0-0","","200","180","2","CORN CROP","Right","200","190","2","THISTLE WEED","practice","7","1,2","190,221.7825626758241","2,1","THISTLE WEED,THISTLE WEED","180,187.81474827061217","2,1","CORN CROP,CORN CROP","0,0","20,20","10,10","20,20","20,20","20,20","0,0","20,20","10,10","20,20","20,20","20,20","0,0","3889,1397","31.78256267582409,29.077931394575998","7.814748270612157,-17.03246757068304","0","0"
"413","86","text","0","16","157782","0-0","","","","","","","","","","","","","","","","","","","","","","","","","","","","","","","","","","","","",""
"","","plant-game","0","17","201511","0-0","","200","120","4","CORN CROP","Left","200","120","8","NETTLE WEED","practice","8","1,2,3,4,5,6,7,8","120,115.34247195191625,122.74601113862184,128.92942797583322,160,157.45158782268533,171.97096024454723,140.79263191708844","4,3,2,1,4,3,2,1","CORN CROP,CORN CROP,CORN CROP,CORN CROP,WHEAT CROP,WHEAT CROP,WHEAT CROP,WHEAT CROP","120,128.12551404379946,109.194245070145,94.50222916845689,136.7730991677706,121.25789185431113,142.2547132935699,153.50971258273597","8,7,6,5,4,3,2,1","NETTLE WEED,NETTLE WEED,NETTLE WEED,NETTLE WEED,NETTLE WEED,NETTLE WEED,NETTLE WEED,NETTLE WEED","20,20,20,20,20,20,20,20","20,20,20,20,20,20,20,20","10,10,10,10,10,10,10,10","20,20,20,20,20,20,20,20","0,0,0,0,0,0,0,0","20,20,20,20,20,20,20,20","20,20,20,20,20,20,20,20","20,20,20,20,20,20,20,20","10,10,10,10,10,10,10,10","20,20,20,20,20,20,20,20","0,0,0,0,0,0,0,0","20,20,20,20,20,20,20,20","1,1,0,0,1,0,1,1","5786,2498,2468,1622,2781,1768,1698,1400","-4.657528048083743,7.4035391867055855,6.183416837211395,28.07517265126734,-2.548412177314678,14.51937242186189,-31.178328327458793,19.609799080288106","8.125514043799466,-18.93126897365445,-14.692015901688102,42.27086999931371,-15.515207313459465,20.996821439258767,11.254999289166076,44.55278404353549","0","0"
"484","86","text","0","18","202213","0-0","","","","","","","","","","","","","","","","","","","","","","","","","","","","","","","","","","","","",""
"","","plant-game","0","19","235144","0-0","","200","160","4","WHEAT CROP","Right","200","160","2","NETTLE WEED","practice","9","1,2,3,4","160,155.98977741549777,180,236.57711601295594","2,1,2,1","NETTLE WEED,NETTLE WEED,THISTLE WEED,THISTLE WEED","160,152.45323892886404,163.63153963683428,177.23744025729792","4,3,2,1","WHEAT CROP,WHEAT CROP,WHEAT CROP,WHEAT CROP","0,0,0,0","20,20,20,20","10,10,10,10","20,20,20,20","20,20,20,20","20,20,20,20","0,0,0,0","20,20,20,20","10,10,10,10","20,20,20,20","20,20,20,20","20,20,20,20","0,0,1,0","564,2302,1817,2461","-4.010222584502219,33.736568352808945,56.57711601295593,47.20861896715789","-7.546761071135952,11.178300707970237,13.60590062046365,1.6550098042461803","0","0"
"880","86","text","0","20","236214","0-0","","","","","","","","","","","","","","","","","","","","","","","","","","","","","","","","","","","","",""
"","","plant-game","0","21","257308","0-0","","200","180","2","WHEAT CROP","Left","200","180","1","THISTLE WEED","practice","10","1,2","180,185.86870661817156","2,1","WHEAT CROP,WHEAT CROP","180,190","1,1","THISTLE WEED,NETTLE WEED","20,20","20,20","10,10","20,20","0,0","20,20","20,20","20,20","10,10","20,20","0,0","20,20","1,0","3599,872","5.868706618171547,-4.4267984252187205","-23.6162428321348,18.78363772804518","0","0"
"482","86","text","0","22","257987","0-0","","","","","","","","","","","","","","","","","","","","","","","","","","","","","","","","","","","","",""
"","","plant-game","0","23","286372","0-0","","200","120","8","WHEAT CROP","Right","200","160","4","THISTLE WEED","practice","11","1,2,3,4,5,6,7,8","160,162.848842144227,164.51456807155452,193.94518680154562,160,129.1883357583017,138.8150088846602,144.379473486655","4,3,2,1,4,3,2,1","THISTLE WEED,THISTLE WEED,THISTLE WEED,THISTLE WEED,NETTLE WEED,NETTLE WEED,NETTLE WEED,NETTLE WEED","120,129.56124017276449,107.1211390027799,161.68561201805025,128.50412240822436,142.37526224791088,169.6415042133743,174.29576608513688","8,7,6,5,4,3,2,1","WHEAT CROP,WHEAT CROP,WHEAT CROP,WHEAT CROP,WHEAT CROP,WHEAT CROP,WHEAT CROP,WHEAT CROP","0,0,0,0,0,0,0,0","20,20,20,20,20,20,20,20","10,10,10,10,10,10,10,10","20,20,20,20,20,20,20,20","20,20,20,20,20,20,20,20","20,20,20,20,20,20,20,20","0,0,0,0,0,0,0,0","20,20,20,20,20,20,20,20","10,10,10,10,10,10,10,10","20,20,20,20,20,20,20,20","20,20,20,20,20,20,20,20","20,20,20,20,20,20,20,20","0,0,0,0,0,1,0,1","882,1260,1931,1584,2533,1747,2367,1009","2.8488421442270067,1.6657259273275107,29.430618729991103,0.3138292282844665,-30.8116642416983,9.626673126358508,5.564464601994824,8.22491365785707","9.561240172764483,-22.44010116998458,54.564473015270345,-33.1814896098259,13.871139839686531,27.266241965463422,4.654261871762565,44.751264460816444","0","0"
"480","86","text","0","24","286993","0-0","","","","","","","","","","","","","","","","","","","","","","","","","","","","","","","","","","","","",""
"","","plant-game","0","25","309768","0-0","","200","180","2","CORN CROP","Left","200","160","4","NETTLE WEED","practice","12","1,2,3,4","180,183.2326147446784,180,180.61389240098214","2,1,2,1","CORN CROP,CORN CROP,WHEAT CROP,WHEAT CROP","160,155.3648722451678,204.39116868222487,184.70367812063103","4,3,2,1","NETTLE WEED,NETTLE WEED,NETTLE WEED,NETTLE WEED","20,20,20,20","20,20,20,20","10,10,10,10","20,20,20,20","0,0,0,0","20,20,20,20","20,20,20,20","20,20,20,20","10,10,10,10","20,20,20,20","0,0,0,0","20,20,20,20","1,0,1,0","3411,1660,3397,2658","3.23261474467838,2.307577664251937,0.6138924009821447,17.64937119946169","-4.635127754832213,49.02629643705709,-19.68749056159386,1.5491201977563165","0","0"
"823","86","text","0","26","310711","0-0","","","","","","","","","","","","","","","","","","","","","","","","","","","","","","","","","","","","",""
"11239","86","text","0","27","323132","0-0","","","","","","","","","","","","","","","","","","","","","","","","","","","","","","","","","","","","",""
"","","plant-game","0","28","345503","0-0","","200","160","2","WHEAT CROP","Left","200","120","1","NETTLE WEED","experimental","1","1,2","160,156.51808064407467","2,1","WHEAT CROP,WHEAT CROP","120,190","1,1","NETTLE WEED,THISTLE WEED","20,20","20,20","10,10","20,20","0,0","20,20","20,20","20,20","10,10","20,20","0,0","20,20","1,1","3841,6805","-3.4819193559253243,-21.712784455367803","-24.079223946970462,-10.643823617961406","0","0"
"495","86","text","0","29","346170","0-0","","","","","","","","","","","","","","","","","","","","","","","","","","","","","","","","","","","","",""
"","","plant-game","0","30","361637","0-0","","200","180","4","WHEAT CROP","Left","200","120","2","THISTLE WEED","experimental","2","1,2,3,4","180,187.54359385402023,184.97425775323543,190.1536778272115","4,3,2,1","WHEAT CROP,WHEAT CROP,WHEAT CROP,WHEAT CROP","120,115.97770763415903,180,175.21555104207337","2,1,2,1","THISTLE WEED,THISTLE WEED,NETTLE WEED,NETTLE WEED","20,20,20,20","20,20,20,20","10,10,10,10","20,20,20,20","0,0,0,0","20,20,20,20","20,20,20,20","20,20,20,20","10,10,10,10","20,20,20,20","0,0,0,0","20,20,20,20","1,0,1,1","1928,1902,2578,1012","7.543593854020244,-2.569336100784785,5.179420073976065,-0.7144775320585973","-4.022292365840968,19.20059312903865,-4.784448957926616,24.711582684958785","0","0"
"616","86","text","0","31","362425","0-0","","","","","","","","","","","","","","","","","","","","","","","","","","","","","","","","","","","","",""
"","","plant-game","0","32","378494","0-0","","200","160","1","WHEAT CROP","Right","200","190","2","THISTLE WEED","experimental","3","1,2","190,196.21433029731537","2,1","THISTLE WEED,THISTLE WEED","160,190","1,1","WHEAT CROP,CORN CROP","0,0","20,20","10,10","20,20","20,20","20,20","0,0","20,20","10,10","20,20","20,20","20,20","1,1","891,4597","6.214330297315376,8.51032993585849","37.60095053438249,34.35025145540262","0","0"
"876","86","text","0","33","379550","0-0","","","","","","","","","","","","","","","","","","","","","","","","","","","","","","","","","","","","",""
"","","plant-game","0","34","409735","0-0","","200","160","8","CORN CROP","Left","200","190","2","THISTLE WEED","experimental","4","1,2,3,4,5,6,7,8","160,206.91497102019142,218.80728317912957,244.59559706748814,251.15817405050433,261.9612981114257,261.36918053323325,252.87907714768357","8,7,6,5,4,3,2,1","CORN CROP,CORN CROP,CORN CROP,CORN CROP,CORN CROP,CORN CROP,CORN CROP,CORN CROP","190,205.57855047153544,140,150.0232993576761,123.07753128317772,105.4486260126926,123.25960346470112,125.94387985017548","2,1,6,5,4,3,2,1","THISTLE WEED,THISTLE WEED,NETTLE WEED,NETTLE WEED,NETTLE WEED,NETTLE WEED,NETTLE WEED,NETTLE WEED","20,20,20,20,20,20,20,20","20,20,20,20,20,20,20,20","10,10,10,10,10,10,10,10","20,20,20,20,20,20,20,20","0,0,0,0,0,0,0,0","20,20,20,20,20,20,20,20","20,20,20,20,20,20,20,20","20,20,20,20,20,20,20,20","10,10,10,10,10,10,10,10","20,20,20,20,20,20,20,20","0,0,0,0,0,0,0,0","20,20,20,20,20,20,20,20","1,1,1,1,1,1,1,1","4591,1423,4634,1752,6299,1855,1171,774","46.91497102019141,11.892312158938168,25.788313888358573,6.562576983016198,10.803124060921368,-0.5921175781924635,-8.49010338554966,-12.09962305389893","15.578550471535449,-17.11027338375981,10.023299357676112,-26.945768074498385,-17.62890527048512,17.810977452008515,2.6842763854743588,6.869162639101592","0","0"
"452","86","text","0","35","410358","0-0","","","","","","","","","","","","","","","","","","","","","","","","","","","","","","","","","","","","",""
"","","plant-game","0","36","422502","0-0","","200","180","2","WHEAT CROP","Left","200","190","1","THISTLE WEED","experimental","5","1,2","180,154.40912417464304","2,1","WHEAT CROP,WHEAT CROP","190,190","1,1","THISTLE WEED,NETTLE WEED","20,20","20,20","10,10","20,20","0,0","20,20","20,20","20,20","10,10","20,20","0,0","20,20","1,0","3443,2948","-25.590875825356964,28.36392367462897","10.900678469942042,10.074474554967432","0","0"
"469","86","text","0","37","423131","0-0","","","","","","","","","","","","","","","","","","","","","","","","","","","","","","","","","","","","",""
"","","plant-game","0","38","438489","0-0","","200","180","1","WHEAT CROP","Left","200","190","8","NETTLE WEED","experimental","6","1,2,3,4,5,6,7,8","180,130,124.29829341803148,95.33816696982709,84.45754146350272,98.40865478699894,93.51863831313503,153.68199773746636","1,7,6,5,4,3,2,1","WHEAT CROP,CORN CROP,CORN CROP,CORN CROP,CORN CROP,CORN CROP,CORN CROP,CORN CROP","190,162.38194097440064,145.34447950159014,118.09020198662675,139.2203904387023,128.72484668739213,123.21964473413578,179.2738753809395","8,7,6,5,4,3,2,1","NETTLE WEED,NETTLE WEED,NETTLE WEED,NETTLE WEED,NETTLE WEED,NETTLE WEED,NETTLE WEED,NETTLE WEED","20,20,20,20,20,20,20,20","20,20,20,20,20,20,20,20","10,10,10,10,10,10,10,10","20,20,20,20,20,20,20,20","0,0,0,0,0,0,0,0","20,20,20,20,20,20,20,20","20,20,20,20,20,20,20,20","20,20,20,20,20,20,20,20","10,10,10,10,10,10,10,10","20,20,20,20,20,20,20,20","0,0,0,0,0,0,0,0","20,20,20,20,20,20,20,20","1,1,1,0,1,1,0,1","1610,2848,558,404,542,370,897,729","27.0088988052034,-5.7017065819685255,-28.960126448204385,-10.880625506324368,13.951113323496214,-4.890016473863909,60.16335942433133,8.072522054377885","-27.618059025599354,-17.03746147281049,-27.254277514963388,21.130188452075565,-10.49554375131019,-5.505201953256343,56.054230646803724,14.029610228736406","0","0"
"374","86","text","0","39","439003","0-0","","","","","","","","","","","","","","","","","","","","","","","","","","","","","","","","","","","","",""
"","","plant-game","0","40","463825","0-0","","200","180","1","CORN CROP","Right","200","120","8","THISTLE WEED","experimental","7","1,2,3,4,5,6,7,8","120,127.73896156222408,136.0307620355561,152.89729285851175,133.80713291821792,140.74688420154155,179.0266187538195,187.04164125704335","8,7,6,5,4,3,2,1","THISTLE WEED,THISTLE WEED,THISTLE WEED,THISTLE WEED,THISTLE WEED,THISTLE WEED,THISTLE WEED,THISTLE WEED","180,130,129.11991999647552,146.16179993227257,152.78301678559973,178.73013157149006,182.940153136796,188.51548619791495","1,7,6,5,4,3,2,1","CORN CROP,WHEAT CROP,WHEAT CROP,WHEAT CROP,WHEAT CROP,WHEAT CROP,WHEAT CROP,WHEAT CROP","0,0,0,0,0,0,0,0","20,20,20,20,20,20,20,20","10,10,10,10,10,10,10,10","20,20,20,20,20,20,20,20","20,20,20,20,20,20,20,20","20,20,20,20,20,20,20,20","0,0,0,0,0,0,0,0","20,20,20,20,20,20,20,20","10,10,10,10,10,10,10,10","20,20,20,20,20,20,20,20","20,20,20,20,20,20,20,20","20,20,20,20,20,20,20,20","0,1,0,0,1,1,0,1","3007,5517,695,1318,1301,1022,659,739","7.738961562224072,8.291800473332032,16.866530822955635,-19.090159940293823,6.939751283323632,38.27973455227796,8.015022503223872,-4.055990983463751","-36.85474428791749,-0.8800800035244833,17.041879935797056,6.621216853327142,25.947114785890335,4.210021565305947,5.5753330611189424,56.499292879037135","0","0"
"534","86","text","0","41","464482","0-0","","","","","","","","","","","","","","","","","","","","","","","","","","","","","","","","","","","","",""
"","","plant-game","0","42","474806","0-0","","200","180","1","CORN CROP","Right","200","120","2","NETTLE WEED","experimental","8","1,2","120,161.35341068391773","2,1","NETTLE WEED,NETTLE WEED","180,190","1,1","CORN CROP,WHEAT CROP","0,0","20,20","10,10","20,20","20,20","20,20","0,0","20,20","10,10","20,20","20,20","20,20","1,1","2291,1633","41.353410683917716,43.65465871590165","14.655137827580695,16.652693437933795","0","0"
"506","86","text","0","43","475482","0-0","","","","","","","","","","","","","","","","","","","","","","","","","","","","","","","","","","","","",""
"","","plant-game","0","44","480595","0-0","","200","190","1","WHEAT CROP","Left","200","160","1","THISTLE WEED","experimental","9","1","190","1","WHEAT CROP","160","1","THISTLE WEED","20","20","10","20","0","20","20","20","10","20","0","20","1","1591","-7.214706537571187","-2.4417850310693723","0","0"
"350","86","text","0","45","481115","0-0","","","","","","","","","","","","","","","","","","","","","","","","","","","","","","","","","","","","",""
"","","plant-game","0","46","495146","0-0","","200","190","2","CORN CROP","Right","200","190","1","NETTLE WEED","experimental","10","1,2","190,190","1,1","NETTLE WEED,THISTLE WEED","190,192.88991588651427","2,1","CORN CROP,CORN CROP","0,0","20,20","10,10","20,20","20,20","20,20","0,0","20,20","10,10","20,20","20,20","20,20","0,1","4967,1756","-27.32381583239186,48.615000468373026","2.889915886514286,17.80862891452489","0","0"
"413","86","text","0","47","495684","0-0","","","","","","","","","","","","","","","","","","","","","","","","","","","","","","","","","","","","",""
"","","plant-game","0","48","526756","0-0","","200","190","2","WHEAT CROP","Left","200","120","8","THISTLE WEED","experimental","11","1,2,3,4,5,6,7,8","190,224.80876837111472,140,155.69461151757616,169.66661014792805,200.2963387555117,197.47678615663034,181.1717769574871","2,1,6,5,4,3,2,1","WHEAT CROP,WHEAT CROP,CORN CROP,CORN CROP,CORN CROP,CORN CROP,CORN CROP,CORN CROP","120,112.86770700107496,88.09200148725095,53.29879663085252,44.199487000370894,49.17779997865727,60.78496771228116,69.44632154265128","8,7,6,5,4,3,2,1","THISTLE WEED,THISTLE WEED,THISTLE WEED,THISTLE WEED,THISTLE WEED,THISTLE WEED,THISTLE WEED,THISTLE WEED","20,20,20,20,20,20,20,20","20,20,20,20,20,20,20,20","10,10,10,10,10,10,10,10","20,20,20,20,20,20,20,20","0,0,0,0,0,0,0,0","20,20,20,20,20,20,20,20","20,20,20,20,20,20,20,20","20,20,20,20,20,20,20,20","10,10,10,10,10,10,10,10","20,20,20,20,20,20,20,20","0,0,0,0,0,0,0,0","20,20,20,20,20,20,20,20","1,1,1,0,1,0,1,1","3459,4411,7110,1335,580,1271,540,2064","34.80876837111473,26.309052784322983,15.694611517576169,13.97199863035189,30.629728607583644,-2.8195525988813657,-16.305009199143225,37.30010635012998","-7.13229299892504,-24.775705513824008,-34.79320485639843,-9.099309630481631,4.978312978286378,11.607167733623893,8.661353830370114,13.834830340996877","0","0"
"454","86","text","0","49","527270","0-0","","","","","","","","","","","","","","","","","","","","","","","","","","","","","","","","","","","","",""
"","","plant-game","0","50","535300","0-0","","200","180","1","CORN CROP","Right","200","160","1","NETTLE WEED","experimental","12","1","160","1","NETTLE WEED","180","1","CORN CROP","0","20","10","20","20","20","0","20","10","20","20","20","1","4855","40.678376391848204","42.285759811781844","0","0"
"399","86","text","0","51","535829","0-0","","","","","","","","","","","","","","","","","","","","","","","","","","","","","","","","","","","","",""
"","","plant-game","0","52","543059","0-0","","200","190","1","CORN CROP","Right","200","190","1","THISTLE WEED","experimental","13","1","190","1","THISTLE WEED","190","1","CORN CROP","0","20","10","20","20","20","0","20","10","20","20","20","0","2975","32.258535025670106","-20.39330564336882","0","0"
"424","86","text","0","53","543668","0-0","","","","","","","","","","","","","","","","","","","","","","","","","","","","","","","","","","","","",""
"","","plant-game","0","54","567677","0-0","","200","180","1","WHEAT CROP","Right","200","180","8","NETTLE WEED","experimental","14","1,2,3,4,5,6,7,8","180,183.440498886907,163.84717460212536,190.53700411122117,169.46397455816776,184.8004123832054,236.62398430781298,244.9480911703371","8,7,6,5,4,3,2,1","NETTLE WEED,NETTLE WEED,NETTLE WEED,NETTLE WEED,NETTLE WEED,NETTLE WEED,NETTLE WEED,NETTLE WEED","180,130,120.80631628909457,86.3380058731056,107.26489418139657,124.29242817304205,161.682030154898,185.08885640887308","1,7,6,5,4,3,2,1","WHEAT CROP,CORN CROP,CORN CROP,CORN CROP,CORN CROP,CORN CROP,CORN CROP,CORN CROP","0,0,0,0,0,0,0,0","20,20,20,20,20,20,20,20","10,10,10,10,10,10,10,10","20,20,20,20,20,20,20,20","20,20,20,20,20,20,20,20","20,20,20,20,20,20,20,20","0,0,0,0,0,0,0,0","20,20,20,20,20,20,20,20","10,10,10,10,10,10,10,10","20,20,20,20,20,20,20,20","20,20,20,20,20,20,20,20","20,20,20,20,20,20,20,20","0,0,0,0,0,1,1,0","7796,2803,689,743,1912,604,649,377","3.4404988869070054,-19.59332428478164,26.689829509095816,-21.073029553053388,15.336437825037649,51.823571924607556,8.324106862524124,-1.4803755939008152","-3.570966955598451,-9.193683710905434,-34.46831041598897,20.926888308290973,17.027533991645477,37.389601981855954,23.406826253975094,-16.29130375711889","0","0"
"450","86","text","0","55","568287","0-0","","","","","","","","","","","","","","","","","","","","","","","","","","","","","","","","","","","","",""
"","","plant-game","0","56","580327","0-0","","200","120","1","CORN CROP","Left","200","160","2","NETTLE WEED","experimental","15","1,2","120,190","1,1","CORN CROP,WHEAT CROP","160,133.44207514938017","2,1","NETTLE WEED,NETTLE WEED","20,20","20,20","10,10","20,20","0,0","20,20","20,20","20,20","10,10","20,20","0,0","20,20","1,0","1172,3097","-8.993267391395554,56.782529813683524","-26.557924850619834,58.857811151848594","0","0"
"610","86","text","0","57","581067","0-0","","","","","","","","","","","","","","","","","","","","","","","","","","","","","","","","","","","","",""
"","","plant-game","0","58","601390","0-0","","200","160","1","WHEAT CROP","Left","200","120","8","THISTLE WEED","experimental","16","1,2,3,4,5,6,7,8","160,130,162.5165950782662,162.7992099064661,198.1098599549356,254.33157319131737,269.7591777923065,269.88738384785603","1,7,6,5,4,3,2,1","WHEAT CROP,CORN CROP,CORN CROP,CORN CROP,CORN CROP,CORN CROP,CORN CROP,CORN CROP","120,162.52106721415592,172.2729326382427,188.15287925364987,190.3849992173028,240.7827263618492,276.3401162982388,248.67337293079504","8,7,6,5,4,3,2,1","THISTLE WEED,THISTLE WEED,THISTLE WEED,THISTLE WEED,THISTLE WEED,THISTLE WEED,THISTLE WEED,THISTLE WEED","20,20,20,20,20,20,20,20","20,20,20,20,20,20,20,20","10,10,10,10,10,10,10,10","20,20,20,20,20,20,20,20","0,0,0,0,0,0,0,0","20,20,20,20,20,20,20,20","20,20,20,20,20,20,20,20","20,20,20,20,20,20,20,20","10,10,10,10,10,10,10,10","20,20,20,20,20,20,20,20","0,0,0,0,0,0,0,0","20,20,20,20,20,20,20,20","0,0,0,0,0,1,1,1","1915,1800,2971,1178,753,491,1207,362","28.850808659957302,32.5165950782662,0.2826148281999217,35.3106500484695,56.22171323638179,15.42760460098915,0.12820605554951506,-7.8296295286952216","42.52106721415593,9.751865424086777,15.879946615407164,2.232119963652938,50.397727144546394,35.55738993638959,-27.666743367443743,3.1654788983155786","1","0"
"5516","86","text","0","59","607078","0-0","","","","","","","","","","","","","","","","","","","","","","","","","","","","","","","","","","","","",""
"","","plant-game","0","60","614577","0-0","","200","180","2","CORN CROP","Left","200","180","2","NETTLE WEED","experimental","17","1,2","180,177.7900575595582","2,1","CORN CROP,CORN CROP","180,206.86370403126384","2,1","NETTLE WEED,NETTLE WEED","20,20","20,20","10,10","20,20","0,0","20,20","20,20","20,20","10,10","20,20","0,0","20,20","0,1","1377,556","-2.2099424404418,-3.9995864712594797","26.863704031263847,-16.994570433254314","0","0"
"510","86","text","0","61","615247","0-0","","","","","","","","","","","","","","","","","","","","","","","","","","","","","","","","","","","","",""
"","","plant-game","0","62","632577","0-0","","200","160","4","WHEAT CROP","Right","200","120","8","THISTLE WEED","experimental","18","1,2,3,4,5,6,7,8","120,106.23138070584159,124.67150260611739,122.1603409427601,155.59870853797565,187.46199063428764,196.92841925858394,170.24495810576414","8,7,6,5,4,3,2,1","THISTLE WEED,THISTLE WEED,THISTLE WEED,THISTLE WEED,THISTLE WEED,THISTLE WEED,THISTLE WEED,THISTLE WEED","160,216.3238548765387,231.12232534967237,273.1671373930592,160,188.95334048482158,218.13467714664597,232.71308133993043","4,3,2,1,4,3,2,1","WHEAT CROP,WHEAT CROP,WHEAT CROP,WHEAT CROP,CORN CROP,CORN CROP,CORN CROP,CORN CROP","0,0,0,0,0,0,0,0","20,20,20,20,20,20,20,20","10,10,10,10,10,10,10,10","20,20,20,20,20,20,20,20","20,20,20,20,20,20,20,20","20,20,20,20,20,20,20,20","0,0,0,0,0,0,0,0","20,20,20,20,20,20,20,20","10,10,10,10,10,10,10,10","20,20,20,20,20,20,20,20","20,20,20,20,20,20,20,20","20,20,20,20,20,20,20,20","1,1,0,0,1,0,0,0","1207,1324,902,676,2280,816,1919,1893","-13.768619294158412,18.440121900275802,-2.5111616633572864,33.43836759521557,31.863282096312005,9.466428624296292,-26.683461152819813,-16.90869248920031","56.3238548765387,14.798470473133666,42.044812043386806,-1.8027603290637029,28.953340484821595,29.18133666182438,14.578404193284465,3.6172453912649827","0","0"
"510","86","text","0","63","633237","0-0","","","","","","","","","","","","","","","","","","","","","","","","","","","","","","","","","","","","",""
"","","plant-game","0","64","641463","0-0","","200","120","4","CORN CROP","Right","200","180","4","THISTLE WEED","experimental","19","1,2,3,4","180,154.02794061081244,166.32773502952978,164.08383352417738","4,3,2,1","THISTLE WEED,THISTLE WEED,THISTLE WEED,THISTLE WEED","120,89.87239851820559,93.9432240506319,95.966004369014","4,3,2,1","CORN CROP,CORN CROP,CORN CROP,CORN CROP","0,0,0,0","20,20,20,20","10,10,10,10","20,20,20,20","20,20,20,20","20,20,20,20","0,0,0,0","20,20,20,20","10,10,10,10","20,20,20,20","20,20,20,20","20,20,20,20","0,0,1,0","2132,599,444,1266","-25.97205938918755,12.299794418717347,-2.2439015053523867,-15.459067316398258","-30.12760148179442,4.070825532426308,2.0227803183821074,17.56397805147519","0","0"
"467","86","text","0","65","642070","0-0","","","","","","","","","","","","","","","","","","","","","","","","","","","","","","","","","","","","",""
"","","plant-game","0","66","655350","0-0","","200","190","4","WHEAT CROP","Left","200","160","2","THISTLE WEED","experimental","20","1,2,3,4","190,225.07896339169918,246.49578882740906,237.6292571116666","4,3,2,1","WHEAT CROP,WHEAT CROP,WHEAT CROP,WHEAT CROP","160,162.36963861249876,180,184.33254593330278","2,1,2,1","THISTLE WEED,THISTLE WEED,NETTLE WEED,NETTLE WEED","20,20,20,20","20,20,20,20","10,10,10,10","20,20,20,20","0,0,0,0","20,20,20,20","20,20,20,20","20,20,20,20","10,10,10,10","20,20,20,20","0,0,0,0","20,20,20,20","1,0,1,1","2380,1127,2231,1419","35.07896339169919,21.416825435709878,-8.86653171574247,-25.509370694745744","2.369638612498758,21.65709640884761,4.332545933302774,-18.04540411940921","0","0"
"433","86","text","0","67","655903","0-0","","","","","","","","","","","","","","","","","","","","","","","","","","","","","","","","","","","","",""
"","","plant-game","0","68","669417","0-0","","200","120","1","WHEAT CROP","Right","200","120","4","NETTLE WEED","experimental","21","1,2,3,4","120,151.22337407183875,170.9531789473777,165.7380304026054","4,3,2,1","NETTLE WEED,NETTLE WEED,NETTLE WEED,NETTLE WEED","120,170,220.19732861146144,232.15207510074032","1,3,2,1","WHEAT CROP,CORN CROP,CORN CROP,CORN CROP","0,0,0,0","20,20,20,20","10,10,10,10","20,20,20,20","20,20,20,20","20,20,20,20","0,0,0,0","20,20,20,20","10,10,10,10","20,20,20,20","20,20,20,20","20,20,20,20","1,1,0,0","916,2839,2091,1370","31.223374071838755,19.729804875538935,-5.215148544772284,39.09747575444816","-15.321786866148287,50.19732861146146,11.954746489278866,12.186322403823368","0","0"
"130","86","text","0","69","669647","0-0","","","","","","","","","","","","","","","","","","","","","","","","","","","","","","","","","","","","",""
"","","plant-game","0","70","676374","0-0","","200","180","2","CORN CROP","Right","200","120","2","NETTLE WEED","experimental","22","1,2","120,142.5094938700487","2,1","NETTLE WEED,NETTLE WEED","180,211.49027705545825","2,1","CORN CROP,CORN CROP","0,0","20,20","10,10","20,20","20,20","20,20","0,0","20,20","10,10","20,20","20,20","20,20","1,1","922,685","22.509493870048672,43.550178258711306","31.490277055458257,31.108068119801118","0","0"
"424","86","text","0","71","676978","0-0","","","","","","","","","","","","","","","","","","","","","","","","","","","","","","","","","","","","",""
"","","plant-game","0","72","693544","0-0","","200","120","1","WHEAT CROP","Right","200","190","2","THISTLE WEED","experimental","23","1,2","190,211.53878722599057","2,1","THISTLE WEED,THISTLE WEED","120,190","1,1","WHEAT CROP,CORN CROP","0,0","20,20","10,10","20,20","20,20","20,20","0,0","20,20","10,10","20,20","20,20","20,20","1,0","3167,3948","21.538787225990575,-22.03851240623591","22.95316926598727,-19.164122170615226","2","0"
"424","86","text","0","73","694108","0-0","","","","","","","","","","","","","","","","","","","","","","","","","","","","","","","","","","","","",""
"","","plant-game","0","74","703047","0-0","","200","190","2","WHEAT CROP","Left","200","160","2","NETTLE WEED","experimental","24","1,2","190,189.0620971751565","2,1","WHEAT CROP,WHEAT CROP","160,184.38514198039036","2,1","NETTLE WEED,NETTLE WEED","20,20","20,20","10,10","20,20","0,0","20,20","20,20","20,20","10,10","20,20","0,0","20,20","1,0","2103,1891","-0.9379028248435041,12.307305481329415","24.385141980390365,12.934539011298497","0","0"
"367","86","text","0","75","703614","0-0","","","","","","","","","","","","","","","","","","","","","","","","","","","","","","","","","","","","",""
"","","plant-game","0","76","720957","0-0","","200","120","4","CORN CROP","Right","200","190","8","THISTLE WEED","experimental","25","1,2,3,4,5,6,7,8","190,226.86474820609266,229.54582484963484,243.00166489601799,284.8780612296482,279.6552433518755,286.61379503467833,311.8265233595249","8,7,6,5,4,3,2,1","THISTLE WEED,THISTLE WEED,THISTLE WEED,THISTLE WEED,THISTLE WEED,THISTLE WEED,THISTLE WEED,THISTLE WEED","120,124.8052913584817,139.89556111463048,137.66773541329806,160,171.56005145867346,146.11881933007254,132.29447037115833","4,3,2,1,4,3,2,1","CORN CROP,CORN CROP,CORN CROP,CORN CROP,WHEAT CROP,WHEAT CROP,WHEAT CROP,WHEAT CROP","0,0,0,0,0,0,0,0","20,20,20,20,20,20,20,20","10,10,10,10,10,10,10,10","20,20,20,20,20,20,20,20","20,20,20,20,20,20,20,20","20,20,20,20,20,20,20,20","0,0,0,0,0,0,0,0","20,20,20,20,20,20,20,20","10,10,10,10,10,10,10,10","20,20,20,20,20,20,20,20","20,20,20,20,20,20,20,20","20,20,20,20,20,20,20,20","1,1,1,1,0,0,0,0","1489,683,217,103,5262,357,584,440","36.86474820609267,2.6810766435421876,13.455840046383146,41.87639633363021,-5.222817877772657,6.958551682802812,25.21272832484658,7.826554796950578","4.805291358481691,15.090269756148793,-2.22782570133241,41.639764623265016,11.560051458673453,-25.441232128600927,-13.824348958914225,1.223491214197904","0","0"
"504","86","text","0","77","721621","0-0","","","","","","","","","","","","","","","","","","","","","","","","","","","","","","","","","","","","",""
"","","plant-game","0","78","728794","0-0","","200","160","4","WHEAT CROP","Left","200","190","4","NETTLE WEED","experimental","26","1,2,3,4","160,123.89093637024371,139.9092526965319,146.042492013778","4,3,2,1","WHEAT CROP,WHEAT CROP,WHEAT CROP,WHEAT CROP","190,148.42867593092024,178.68212781370787,227.38370061492867","4,3,2,1","NETTLE WEED,NETTLE WEED,NETTLE WEED,NETTLE WEED","20,20,20,20","20,20,20,20","10,10,10,10","20,20,20,20","0,0,0,0","20,20,20,20","20,20,20,20","20,20,20,20","10,10,10,10","20,20,20,20","0,0,0,0","20,20,20,20","1,0,0,1","994,698,370,584","-36.1090636297563,16.018316326288172,6.133239317246105,-15.566948183900973","-41.57132406907976,30.25345188278763,48.701572801220806,-16.65980515085151","0","0"
"550","86","text","0","79","729540","0-0","","","","","","","","","","","","","","","","","","","","","","","","","","","","","","","","","","","","",""
"","","plant-game","0","80","740717","0-0","","200","180","2","CORN CROP","Right","200","190","2","THISTLE WEED","experimental","27","1,2","190,163.25875440319328","2,1","THISTLE WEED,THISTLE WEED","180,200.2778015904031","2,1","CORN CROP,CORN CROP","0,0","20,20","10,10","20,20","20,20","20,20","0,0","20,20","10,10","20,20","20,20","20,20","0,0","2786,1844","-26.741245596806735,27.996268817019217","20.277801590403115,-15.13316162882607","1","0"
"463","86","text","0","81","741350","0-0","","","","","","","","","","","","","","","","","","","","","","","","","","","","","","","","","","","","",""
"","","plant-game","0","82","761953","0-0","","200","120","1","WHEAT CROP","Right","200","160","8","THISTLE WEED","experimental","28","1,2,3,4,5,6,7,8","160,190.0110509257787,218.11601765930592,210.7722222411799,189.76997170176318,210.8095331974356,196.20735015448417,236.78423627503133","8,7,6,5,4,3,2,1","THISTLE WEED,THISTLE WEED,THISTLE WEED,THISTLE WEED,THISTLE WEED,THISTLE WEED,THISTLE WEED,THISTLE WEED","120,130,176.8013789863353,187.35485816410022,204.32750254487888,199.2738239191138,174.42173644661662,188.1884442107185","1,7,6,5,4,3,2,1","WHEAT CROP,CORN CROP,CORN CROP,CORN CROP,CORN CROP,CORN CROP,CORN CROP,CORN CROP","0,0,0,0,0,0,0,0","20,20,20,20,20,20,20,20","10,10,10,10,10,10,10,10","20,20,20,20,20,20,20,20","20,20,20,20,20,20,20,20","20,20,20,20,20,20,20,20","0,0,0,0,0,0,0,0","20,20,20,20,20,20,20,20","10,10,10,10,10,10,10,10","20,20,20,20,20,20,20,20","20,20,20,20,20,20,20,20","20,20,20,20,20,20,20,20","1,1,0,0,0,0,1,0","1648,4234,1903,397,1586,631,717,581","30.011050925778704,28.10496673352722,-7.3437954181260325,-21.002250539416714,21.0395614956724,-14.602183042951438,40.57688612054716,25.286229008827913","39.936082517518344,46.801378986335294,10.553479177764935,16.972644380778664,-5.0536786257650865,-24.852087472497168,13.766707764101879,11.483421077733322","0","0"
"357","86","text","0","83","762470","0-0","","","","","","","","","","","","","","","","","","","","","","","","","","","","","","","","","","","","",""
"","","plant-game","0","84","777193","0-0","","200","160","2","CORN CROP","Right","200","180","8","NETTLE WEED","experimental","29","1,2,3,4,5,6,7,8","180,174.6481456311523,218.51116250777093,268.515661811382,294.074600281505,319.44202731071033,329.03661485192686,354.67683726669264","8,7,6,5,4,3,2,1","NETTLE WEED,NETTLE WEED,NETTLE WEED,NETTLE WEED,NETTLE WEED,NETTLE WEED,NETTLE WEED,NETTLE WEED","160,159.90503832773402,140,175.04151669312668,239.9777550599949,237.60595688335553,240.1136863939775,242.3118852458989","2,1,6,5,4,3,2,1","CORN CROP,CORN CROP,WHEAT CROP,WHEAT CROP,WHEAT CROP,WHEAT CROP,WHEAT CROP,WHEAT CROP","0,0,0,0,0,0,0,0","20,20,20,20,20,20,20,20","10,10,10,10,10,10,10,10","20,20,20,20,20,20,20,20","20,20,20,20,20,20,20,20","20,20,20,20,20,20,20,20","0,0,0,0,0,0,0,0","20,20,20,20,20,20,20,20","10,10,10,10,10,10,10,10","20,20,20,20,20,20,20,20","20,20,20,20,20,20,20,20","20,20,20,20,20,20,20,20","1,0,1,1,0,0,0,0","1246,600,1352,1083,730,496,1321,750","-5.351854368847707,43.863016876618644,50.00449930361107,25.558938470122985,25.367427029205313,9.594587541216505,25.64022241476577,22.930936628347524","-0.09496167226599184,7.266996582512125,35.04151669312668,64.93623836686822,-2.3717981766393823,2.5077295106219704,2.1981988519214064,-9.344200222114994","0","0"
"190","86","text","0","85","777523","0-0","","","","","","","","","","","","","","","","","","","","","","","","","","","","","","","","","","","","",""
"","","plant-game","0","86","787413","0-0","","200","120","4","CORN CROP","Left","200","120","4","THISTLE WEED","experimental","30","1,2,3,4","120,151.90694866553048,160.15730101208413,146.355582272109","4,3,2,1","CORN CROP,CORN CROP,CORN CROP,CORN CROP","120,121.77020216879846,127.94913101116474,164.88168729605627","4,3,2,1","THISTLE WEED,THISTLE WEED,THISTLE WEED,THISTLE WEED","20,20,20,20","20,20,20,20","10,10,10,10","20,20,20,20","0,0,0,0","20,20,20,20","20,20,20,20","20,20,20,20","10,10,10,10","20,20,20,20","0,0,0,0","20,20,20,20","1,1,1,0","1257,1178,539,2360","31.90694866553047,8.25035234655364,-13.801718739975154,48.740568317234285","1.7702021687984684,6.178928842366272,36.93255628489152,30.150787212385907","0","0"
"393","86","text","0","87","787926","0-0","","","","","","","","","","","","","","","","","","","","","","","","","","","","","","","","","","","","",""
"","","plant-game","0","88","797990","0-0","","200","160","4","WHEAT CROP","Right","200","160","4","THISTLE WEED","experimental","31","1,2,3,4","160,176.44882848194126,172.8444635584125,211.04384064003955","4,3,2,1","THISTLE WEED,THISTLE WEED,THISTLE WEED,THISTLE WEED","160,215.94446185613486,241.28466758046247,255.15992732340712","4,3,2,1","WHEAT CROP,WHEAT CROP,WHEAT CROP,WHEAT CROP","0,0,0,0","20,20,20,20","10,10,10,10","20,20,20,20","20,20,20,20","20,20,20,20","0,0,0,0","20,20,20,20","10,10,10,10","20,20,20,20","20,20,20,20","20,20,20,20","1,0,0,0","1028,1819,1197,1395","16.448828481941252,-3.6043649235287423,38.199377081627034,-16.843445925564062","55.94446185613488,25.340205724327607,13.875259742944648,14.096239558186522","0","0"
"12281","86","text","0","89","810371","0-0","","","","","","","","","","","","","","","","","","","","","","","","","","","","","","","","","","","","",""
"","","plant-game","0","90","820654","0-0","","200","160","4","CORN CROP","Left","200","180","4","NETTLE WEED","experimental","32","1,2,3,4","160,169.84426876351364,165.90377269484526,156.5322539382668","4,3,2,1","CORN CROP,CORN CROP,CORN CROP,CORN CROP","180,190.6337893944528,199.93486124538464,222.56855191299002","4,3,2,1","NETTLE WEED,NETTLE WEED,NETTLE WEED,NETTLE WEED","20,20,20,20","20,20,20,20","10,10,10,10","20,20,20,20","0,0,0,0","20,20,20,20","20,20,20,20","20,20,20,20","10,10,10,10","20,20,20,20","0,0,0,0","20,20,20,20","0,1,1,1","850,2586,1224,602","9.844268763513638,-3.940496068668371,-9.371518756578466,-47.45528736820313","10.633789394452815,9.301071850931823,22.63369066760539,-22.21160578765808","0","0"
"1485","86","text","0","91","822309","0-0","","","","","","","","","","","","","","","","","","","","","","","","","","","","","","","","","","","","",""
"","","plant-game","0","92","833828","0-0","","200","120","4","CORN CROP","Left","200","160","2","NETTLE WEED","experimental","33","1,2,3,4","120,137.27947408460898,129.39445628937295,132.3589206681559","4,3,2,1","CORN CROP,CORN CROP,CORN CROP,CORN CROP","160,168.68562073649736,180,185.84867936620418","2,1,2,1","NETTLE WEED,NETTLE WEED,THISTLE WEED,THISTLE WEED","20,20,20,20","20,20,20,20","10,10,10,10","20,20,20,20","0,0,0,0","20,20,20,20","20,20,20,20","20,20,20,20","10,10,10,10","20,20,20,20","0,0,0,0","20,20,20,20","1,1,0,1","886,734,2117,1750","17.27947408460899,-7.885017795236028,2.964464378782946,-18.202216433593335","8.685620736497365,13.668202136768087,5.848679366204179,-14.395076719745187","2","0"
"408","86","text","0","93","834361","0-0","","","","","","","","","","","","","","","","","","","","","","","","","","","","","","","","","","","","",""
"","","plant-game","0","94","854216","0-0","","200","190","1","WHEAT CROP","Right","200","190","8","NETTLE WEED","experimental","34","1,2,3,4,5,6,7,8","190,242.55496168882155,298.53361348296426,293.3526079847865,295.5237056815851,287.50876097429284,313.0717590327123,342.5251820555238","8,7,6,5,4,3,2,1","NETTLE WEED,NETTLE WEED,NETTLE WEED,NETTLE WEED,NETTLE WEED,NETTLE WEED,NETTLE WEED,NETTLE WEED","190,130,168.5081739786367,186.9910739404167,199.6618932950496,213.47436663425043,229.98380403803728,227.18505189108984","1,7,6,5,4,3,2,1","WHEAT CROP,CORN CROP,CORN CROP,CORN CROP,CORN CROP,CORN CROP,CORN CROP,CORN CROP","0,0,0,0,0,0,0,0","20,20,20,20,20,20,20,20","10,10,10,10,10,10,10,10","20,20,20,20,20,20,20,20","20,20,20,20,20,20,20,20","20,20,20,20,20,20,20,20","0,0,0,0,0,0,0,0","20,20,20,20,20,20,20,20","10,10,10,10,10,10,10,10","20,20,20,20,20,20,20,20","20,20,20,20,20,20,20,20","20,20,20,20,20,20,20,20","1,1,0,0,0,0,0,0","907,3714,2393,1080,1053,830,717,829","52.55496168882155,55.978651794142706,-5.181005498177732,2.1710976967985993,-8.01494470729229,25.562998058419424,29.45342302281151,-15.889500611026566","21.49518531221837,38.50817397863669,18.482899961780006,12.670819354632904,13.812473339200825,16.50943740378685,-2.7987521469474492,-9.104658454901426","0","0"
"420","86","text","0","95","854776","0-0","","","","","","","","","","","","","","","","","","","","","","","","","","","","","","","","","","","","",""
"","","plant-game","0","96","873042","0-0","","200","180","8","WHEAT CROP","Left","200","120","1","THISTLE WEED","experimental","35","1,2,3,4,5,6,7,8","180,168.39915079608525,160.5095026132722,170.2969144862002,165.07626757973605,217.67142707901792,227.57779448872896,217.48693288994158","8,7,6,5,4,3,2,1","WHEAT CROP,WHEAT CROP,WHEAT CROP,WHEAT CROP,WHEAT CROP,WHEAT CROP,WHEAT CROP,WHEAT CROP","120,130,130.21246017417639,122.7827235559302,152.7450629387995,132.40524628393734,167.35064626580515,190.93552735758783","1,7,6,5,4,3,2,1","THISTLE WEED,NETTLE WEED,NETTLE WEED,NETTLE WEED,NETTLE WEED,NETTLE WEED,NETTLE WEED,NETTLE WEED","20,20,20,20,20,20,20,20","20,20,20,20,20,20,20,20","10,10,10,10,10,10,10,10","20,20,20,20,20,20,20,20","0,0,0,0,0,0,0,0","20,20,20,20,20,20,20,20","20,20,20,20,20,20,20,20","20,20,20,20,20,20,20,20","10,10,10,10,10,10,10,10","20,20,20,20,20,20,20,20","0,0,0,0,0,0,0,0","20,20,20,20,20,20,20,20","1,1,0,0,0,0,1,0","1437,1486,1617,789,1512,964,760,753","-11.600849203914759,-7.889648182813062,9.787411872927995,-5.220646906464129,52.59515949928185,9.906367409711052,-10.090861598787368,-11.215102817997241","12.327544233344344,0.2124601741763968,-7.4297366182461815,29.96233938286928,-20.339816654862148,34.9453999818678,23.58488109178268,8.431878190617416","0","0"
"418","86","text","0","97","873580","0-0","","","","","","","","","","","","","","","","","","","","","","","","","","","","","","","","","","","","",""
"","","plant-game","0","98","903975","0-0","","200","160","4","WHEAT CROP","Left","200","180","8","THISTLE WEED","experimental","36","1,2,3,4,5,6,7,8","160,187.18774454668116,181.26034378258035,228.1879584223414,160,173.03371505705613,166.00851171005684,158.86953959609636","4,3,2,1,4,3,2,1","WHEAT CROP,WHEAT CROP,WHEAT CROP,WHEAT CROP,CORN CROP,CORN CROP,CORN CROP,CORN CROP","180,195.28327365503483,190.39874988145402,164.39735655094526,137.26553803559315,104.74613842244116,115.33440247027913,119.99102732016712","8,7,6,5,4,3,2,1","THISTLE WEED,THISTLE WEED,THISTLE WEED,THISTLE WEED,THISTLE WEED,THISTLE WEED,THISTLE WEED,THISTLE WEED","20,20,20,20,20,20,20,20","20,20,20,20,20,20,20,20","10,10,10,10,10,10,10,10","20,20,20,20,20,20,20,20","0,0,0,0,0,0,0,0","20,20,20,20,20,20,20,20","20,20,20,20,20,20,20,20","20,20,20,20,20,20,20,20","10,10,10,10,10,10,10,10","20,20,20,20,20,20,20,20","0,0,0,0,0,0,0,0","20,20,20,20,20,20,20,20","0,1,0,1,1,0,1,0","14771,546,746,1054,1427,1843,897,552","27.187744546681152,-5.927400764100801,46.92761463976105,-24.45599749757795,13.033715057056126,-7.025203346999291,-7.138972113960475,49.417458144886005","15.283273655034836,-4.884523773580817,-26.001393330508762,-27.1318185153521,-32.51939961315198,10.588264047837967,4.656624849887983,14.671368906101177","0","0"
"405","86","text","0","99","904500","0-0","","","","","","","","","","","","","","","","","","","","","","","","","","","","","","","","","","","","",""
"","","plant-game","0","100","920645","0-0","","200","120","2","WHEAT CROP","Left","200","190","1","NETTLE WEED","experimental","37","1,2","120,110.02071893465342","2,1","WHEAT CROP,WHEAT CROP","190,190","1,1","NETTLE WEED,THISTLE WEED","20,20","20,20","10,10","20,20","0,0","20,20","20,20","20,20","10,10","20,20","0,0","20,20","0,0","4944,4367","-9.979281065346584,62.00764650729903","45.63248972518451,51.24223924409009","0","0"
"497","86","text","0","101","921329","0-0","","","","","","","","","","","","","","","","","","","","","","","","","","","","","","","","","","","","",""
"","","plant-game","0","102","935970","0-0","","200","190","4","CORN CROP","Left","200","160","8","NETTLE WEED","experimental","38","1,2,3,4,5,6,7,8","190,170.59284075965692,190.29849509524618,190.01345105131475,160,186.79538628038918,227.26532752169894,250.0283806885455","4,3,2,1,4,3,2,1","CORN CROP,CORN CROP,CORN CROP,CORN CROP,WHEAT CROP,WHEAT CROP,WHEAT CROP,WHEAT CROP","160,179.1818016184858,190.53872538610045,194.6828994692714,203.0771032673883,187.57305428939222,215.66548773509186,185.84213794978325","8,7,6,5,4,3,2,1","NETTLE WEED,NETTLE WEED,NETTLE WEED,NETTLE WEED,NETTLE WEED,NETTLE WEED,NETTLE WEED,NETTLE WEED","20,20,20,20,20,20,20,20","20,20,20,20,20,20,20,20","10,10,10,10,10,10,10,10","20,20,20,20,20,20,20,20","0,0,0,0,0,0,0,0","20,20,20,20,20,20,20,20","20,20,20,20,20,20,20,20","20,20,20,20,20,20,20,20","10,10,10,10,10,10,10,10","20,20,20,20,20,20,20,20","0,0,0,0,0,0,0,0","20,20,20,20,20,20,20,20","1,0,0,1,0,0,1,1","1030,630,1334,639,1736,823,567,1095","-19.40715924034307,19.705654335589255,-0.28504404393143545,-48.94013058117742,26.79538628038919,40.46994124130975,22.763053166846568,-3.735981578046854","19.181801618485796,11.356923767614656,4.1441740831709595,8.394203798116912,-15.5040489779961,28.092433445699633,-29.823349785308594,21.59822895718171","0","0"
"6802","86","text","0","103","942912","0-0","","","","","","","","","","","","","","","","","","","","","","","","","","","","","","","","","","","","",""
"","","plant-game","0","104","955738","0-0","","200","190","1","CORN CROP","Left","200","160","4","NETTLE WEED","experimental","39","1,2,3,4","190,170,197.31467156479144,221.05770112922843","1,3,2,1","CORN CROP,WHEAT CROP,WHEAT CROP,WHEAT CROP","160,215.2271440459326,228.97770499762157,226.91077160015607","4,3,2,1","NETTLE WEED,NETTLE WEED,NETTLE WEED,NETTLE WEED","20,20,20,20","20,20,20,20","10,10,10,10","20,20,20,20","0,0,0,0","20,20,20,20","20,20,20,20","20,20,20,20","10,10,10,10","20,20,20,20","0,0,0,0","20,20,20,20","0,0,1,1","3573,1710,540,288","22.371948232971985,27.31467156479144,23.743029564437,-22.36112051427362","55.2271440459326,13.750560951688978,-2.0669333974654918,3.6608217777125813","1","0"
"500","86","text","0","105","956461","0-0","","","","","","","","","","","","","","","","","","","","","","","","","","","","","","","","","","","","",""
"","","plant-game","0","106","969338","0-0","","200","180","4","WHEAT CROP","Left","200","180","1","NETTLE WEED","experimental","40","1,2,3,4","180,179.69052112971858,179.96929070751366,194.71536686030055","4,3,2,1","WHEAT CROP,WHEAT CROP,WHEAT CROP,WHEAT CROP","180,170,209.55072989229453,221.47074679810302","1,3,2,1","NETTLE WEED,THISTLE WEED,THISTLE WEED,THISTLE WEED","20,20,20,20","20,20,20,20","10,10,10,10","20,20,20,20","0,0,0,0","20,20,20,20","20,20,20,20","20,20,20,20","10,10,10,10","20,20,20,20","0,0,0,0","20,20,20,20","1,0,1,1","994,1536,681,1654","-0.3094788702814314,0.2787695777950816,14.746076152786888,16.565874563455022","-14.358376065167173,39.55072989229452,11.920016905808486,1.4491412973054099","0","0"
"213","86","text","0","107","969761","0-0","","","","","","","","","","","","","","","","","","","","","","","","","","","","","","","","","","","","",""
"","","plant-game","0","108","981994","0-0","","200","190","1","CORN CROP","Left","200","190","4","NETTLE WEED","experimental","41","1,2,3,4","190,170,196.91909552950918,211.02187329357892","1,3,2,1","CORN CROP,WHEAT CROP,WHEAT CROP,WHEAT CROP","190,162.46543678980498,152.53666427992758,142.11492347317053","4,3,2,1","NETTLE WEED,NETTLE WEED,NETTLE WEED,NETTLE WEED","20,20,20,20","20,20,20,20","10,10,10,10","20,20,20,20","0,0,0,0","20,20,20,20","20,20,20,20","20,20,20,20","10,10,10,10","20,20,20,20","0,0,0,0","20,20,20,20","1,0,0,0","1091,1890,1227,1805","-4.252036487254809,26.91909552950917,14.102777764069737,28.1838063946929","-27.534563210195007,-9.928772509877394,-10.421740806757054,-14.919559940173144","0","0"
"477","86","text","0","109","982651","0-0","","","","","","","","","","","","","","","","","","","","","","","","","","","","","","","","","","","","",""
"","","plant-game","0","110","997293","0-0","","200","190","4","CORN CROP","Right","200","190","2","NETTLE WEED","experimental","42","1,2,3,4","190,204.61005030034968,180,182.03070347173778","2,1,2,1","NETTLE WEED,NETTLE WEED,THISTLE WEED,THISTLE WEED","190,201.21772822819517,217.0945192559705,193.70852871394953","4,3,2,1","CORN CROP,CORN CROP,CORN CROP,CORN CROP","0,0,0,0","20,20,20,20","10,10,10,10","20,20,20,20","20,20,20,20","20,20,20,20","0,0,0,0","20,20,20,20","10,10,10,10","20,20,20,20","20,20,20,20","20,20,20,20","1,1,0,1","2536,961,4804,602","14.610050300349691,4.724288794417193,2.0307034717377674,25.311542617538688","11.217728228195172,15.876791027775347,-23.385990542020988,24.271104992841124","0","0"
"470","86","text","0","111","997923","0-0","","","","","","","","","","","","","","","","","","","","","","","","","","","","","","","","","","","","",""
"","","plant-game","0","112","1013137","0-0","","200","160","8","CORN CROP","Right","200","180","8","NETTLE WEED","experimental","43","1,2,3,4,5,6,7,8","180,179.69080966924153,197.6469338527637,154.8554485819916,200.43748083014196,184.96518562369076,192.2770179583921,172.76246489330197","8,7,6,5,4,3,2,1","NETTLE WEED,NETTLE WEED,NETTLE WEED,NETTLE WEED,NETTLE WEED,NETTLE WEED,NETTLE WEED,NETTLE WEED","160,143.29655130542665,178.40991717468535,191.70590795735004,233.21331744675265,214.02640567535533,225.11946908596875,217.5730991696928","8,7,6,5,4,3,2,1","CORN CROP,CORN CROP,CORN CROP,CORN CROP,CORN CROP,CORN CROP,CORN CROP,CORN CROP","0,0,0,0,0,0,0,0","20,20,20,20,20,20,20,20","10,10,10,10,10,10,10,10","20,20,20,20,20,20,20,20","20,20,20,20,20,20,20,20","20,20,20,20,20,20,20,20","0,0,0,0,0,0,0,0","20,20,20,20,20,20,20,20","10,10,10,10,10,10,10,10","20,20,20,20,20,20,20,20","20,20,20,20,20,20,20,20","20,20,20,20,20,20,20,20","1,1,0,1,0,0,0,1","489,1890,998,704,1617,1865,1677,1238","-0.30919033075847224,17.956124183522185,-42.79148527077212,45.58203224815037,-15.472295206451212,7.3118323347013465,-19.51455306509013,39.31378180018697","-16.70344869457334,35.113365869258686,13.29599078266469,41.507409489402626,-19.186911771397323,11.093063410613407,-7.546369916275946,54.68373620202637","0","0"
"584","86","text","0","113","1013891","0-0","","","","","","","","","","","","","","","","","","","","","","","","","","","","","","","","","","","","",""
"","","plant-game","0","114","1026138","0-0","","200","190","8","WHEAT CROP","Left","200","120","8","THISTLE WEED","experimental","44","1,2,3,4,5,6,7,8","190,190.9160698802927,195.5639761505477,214.54084665112623,240.8764122205232,221.41404989608208,203.45733966512162,158.3131733306455","8,7,6,5,4,3,2,1","WHEAT CROP,WHEAT CROP,WHEAT CROP,WHEAT CROP,WHEAT CROP,WHEAT CROP,WHEAT CROP,WHEAT CROP","120,106.36102872911611,162.33807312377482,181.039231726458,190.81745795043096,205.94696114716322,208.4971716077314,219.69758307416828","8,7,6,5,4,3,2,1","THISTLE WEED,THISTLE WEED,THISTLE WEED,THISTLE WEED,THISTLE WEED,THISTLE WEED,THISTLE WEED,THISTLE WEED","20,20,20,20,20,20,20,20","20,20,20,20,20,20,20,20","10,10,10,10,10,10,10,10","20,20,20,20,20,20,20,20","0,0,0,0,0,0,0,0","20,20,20,20,20,20,20,20","20,20,20,20,20,20,20,20","20,20,20,20,20,20,20,20","10,10,10,10,10,10,10,10","20,20,20,20,20,20,20,20","0,0,0,0,0,0,0,0","20,20,20,20,20,20,20,20","1,0,0,1,0,1,1,0","2172,1561,654,891,785,457,871,615","0.9160698802927005,4.647906270255005,18.976870500578546,26.335565569396984,-19.462362324441123,-17.956710230960457,-45.144166334476125,24.78862314725768","-13.638971270883882,55.9770443946587,18.7011586026832,9.77822622397296,15.129503196732262,2.550210460568181,11.2004114664369,-11.748729779702177","0","0"
"168","86","text","0","115","1026404","0-0","","","","","","","","","","","","","","","","","","","","","","","","","","","","","","","","","","","","",""
"","","plant-game","0","116","1038614","0-0","","200","160","8","CORN CROP","Left","200","190","1","NETTLE WEED","experimental","45","1,2,3,4,5,6,7,8","160,184.25028222147597,227.44770095576848,272.94074368328796,344.23013452905286,315.8594864892536,317.3558795720301,336.18182624541265","8,7,6,5,4,3,2,1","CORN CROP,CORN CROP,CORN CROP,CORN CROP,CORN CROP,CORN CROP,CORN CROP,CORN CROP","190,130,137.03569240226594,157.20891604214296,180.96886901005388,187.34536245980794,180.85928029437878,188.8118333590447","1,7,6,5,4,3,2,1","NETTLE WEED,THISTLE WEED,THISTLE WEED,THISTLE WEED,THISTLE WEED,THISTLE WEED,THISTLE WEED,THISTLE WEED","20,20,20,20,20,20,20,20","20,20,20,20,20,20,20,20","10,10,10,10,10,10,10,10","20,20,20,20,20,20,20,20","0,0,0,0,0,0,0,0","20,20,20,20,20,20,20,20","20,20,20,20,20,20,20,20","20,20,20,20,20,20,20,20","10,10,10,10,10,10,10,10","20,20,20,20,20,20,20,20","0,0,0,0,0,0,0,0","20,20,20,20,20,20,20,20","0,0,0,0,0,1,1,0","2374,837,668,515,335,355,380,550","24.25028222147596,43.19741873429251,45.49304272751948,71.2893908457649,-28.370648039799292,1.4963930827765501,18.82594667338253,4.399177407399968","41.42485726971257,7.035692402265948,20.173223639877026,23.759952967910923,6.3764934497540775,-6.486082165429158,7.9525530646659135,48.04375751835023","0","0"
"123","86","text","0","117","1038817","0-0","","","","","","","","","","","","","","","","","","","","","","","","","","","","","","","","","","","","",""
"","","plant-game","0","118","1047777","0-0","","200","120","2","WHEAT CROP","Left","200","120","8","THISTLE WEED","experimental","46","1,2,3,4,5,6,7,8","120,128.69508442843204,140,137.2249590855912,123.406198652017,115.18721997322059,122.85687317902426,128.1764410257057","2,1,6,5,4,3,2,1","WHEAT CROP,WHEAT CROP,CORN CROP,CORN CROP,CORN CROP,CORN CROP,CORN CROP,CORN CROP","120,166.30805850474792,214.6544251465454,251.06010679221635,229.8921832202198,250.9202874180329,294.5317532708833,293.43689187673317","8,7,6,5,4,3,2,1","THISTLE WEED,THISTLE WEED,THISTLE WEED,THISTLE WEED,THISTLE WEED,THISTLE WEED,THISTLE WEED,THISTLE WEED","20,20,20,20,20,20,20,20","20,20,20,20,20,20,20,20","10,10,10,10,10,10,10,10","20,20,20,20,20,20,20,20","0,0,0,0,0,0,0,0","20,20,20,20,20,20,20,20","20,20,20,20,20,20,20,20","20,20,20,20,20,20,20,20","10,10,10,10,10,10,10,10","20,20,20,20,20,20,20,20","0,0,0,0,0,0,0,0","20,20,20,20,20,20,20,20","0,0,0,1,0,0,0,0","856,343,927,222,307,359,145,167","8.695084428432034,3.060831074011517,-2.7750409144088124,-13.818760433574193,-8.218978678796404,7.669653205803673,5.319567846681462,52.332164935001884","46.30805850474792,48.34636664179749,36.405681645670924,-21.16792357199655,21.028104197813093,43.61146585285041,-1.094861394150115,36.548317521582845","0","0"
"527","86","text","0","119","1048464","0-0","","","","","","","","","","","","","","","","","","","","","","","","","","","","","","","","","","","","",""
"","","plant-game","0","120","1060714","0-0","","200","190","4","WHEAT CROP","Right","200","120","2","THISTLE WEED","experimental","47","1,2,3,4","120,158.4867151682538,180,211.1546290350102","2,1,2,1","THISTLE WEED,THISTLE WEED,NETTLE WEED,NETTLE WEED","190,217.72601850593986,222.13325075016752,234.1313662893669","4,3,2,1","WHEAT CROP,WHEAT CROP,WHEAT CROP,WHEAT CROP","0,0,0,0","20,20,20,20","10,10,10,10","20,20,20,20","20,20,20,20","20,20,20,20","0,0,0,0","20,20,20,20","10,10,10,10","20,20,20,20","20,20,20,20","20,20,20,20","1,0,1,0","957,516,3929,1183","38.48671516825379,-30.255438169143556,31.15462903501021,-6.081433178420643","27.726018505939876,4.407232244227666,11.99811553919937,-23.677726816509743","0","0"
"168","86","text","0","121","1060977","0-0","","","","","","","","","","","","","","","","","","","","","","","","","","","","","","","","","","","","",""
"","","plant-game","0","122","1069420","0-0","","200","120","2","CORN CROP","Right","200","160","1","THISTLE WEED","experimental","48","1,2","160,190","1,1","THISTLE WEED,NETTLE WEED","120,154.33527322806748","2,1","CORN CROP,CORN CROP","0,0","20,20","10,10","20,20","20,20","20,20","0,0","20,20","10,10","20,20","20,20","20,20","1,0","1368,2201","44.634156747010735,64.17022302703572","34.33527322806749,4.286759861315189","0","0"
"203","86","text","0","123","1069693","0-0","","","","","","","","","","","","","","","","","","","","","","","","","","","","","","","","","","","","",""
"","","plant-game","0","124","1094423","0-0","","200","190","8","CORN CROP","Left","200","180","1","NETTLE WEED","experimental","49","1,2,3,4,5,6,7,8","190,242.99839187307876,276.4161337930352,297.97417926178724,287.1119241028948,290.6314175282501,295.6148726947318,268.80422908333196","8,7,6,5,4,3,2,1","CORN CROP,CORN CROP,CORN CROP,CORN CROP,CORN CROP,CORN CROP,CORN CROP,CORN CROP","180,130,138.9065143857553,189.72010573004255,194.89186006877875,200.63517566865644,208.71198695231203,204.92111259306174","1,7,6,5,4,3,2,1","NETTLE WEED,THISTLE WEED,THISTLE WEED,THISTLE WEED,THISTLE WEED,THISTLE WEED,THISTLE WEED,THISTLE WEED","20,20,20,20,20,20,20,20","20,20,20,20,20,20,20,20","10,10,10,10,10,10,10,10","20,20,20,20,20,20,20,20","0,0,0,0,0,0,0,0","20,20,20,20,20,20,20,20","20,20,20,20,20,20,20,20","20,20,20,20,20,20,20,20","10,10,10,10,10,10,10,10","20,20,20,20,20,20,20,20","0,0,0,0,0,0,0,0","20,20,20,20,20,20,20,20","0,0,0,1,1,1,1,1","8264,1921,653,592,513,859,1475,1037","52.99839187307876,33.41774191995643,21.55804546875201,-10.862255158892427,3.519493425355277,4.9834551664817015,-26.810643611399804,2.212798714664234","16.265098717474856,8.906514385755282,50.81359134428726,5.171754338736196,5.743315599877688,8.076811283655584,-3.7908743592502994,-6.38111356423782","1","0"
"490","86","text","0","125","1095093","0-0","","","","","","","","","","","","","","","","","","","","","","","","","","","","","","","","","","","","",""
"","","plant-game","0","126","1099984","0-0","","200","160","1","CORN CROP","Right","200","190","1","THISTLE WEED","experimental","50","1","190","1","THISTLE WEED","160","1","CORN CROP","0","20","10","20","20","20","0","20","10","20","20","20","0","1562","50.918758116943636","-23.886342058477418","0","0"
"450","86","text","0","127","1100554","0-0","","","","","","","","","","","","","","","","","","","","","","","","","","","","","","","","","","","","",""
"","","plant-game","0","128","1128468","0-0","","200","180","4","WHEAT CROP","Left","200","190","2","NETTLE WEED","experimental","51","1,2,3,4","180,181.5909501425565,191.98902829920354,200.20979171046852","4,3,2,1","WHEAT CROP,WHEAT CROP,WHEAT CROP,WHEAT CROP","190,238.58990946011974,180,208.08529424880075","2,1,2,1","NETTLE WEED,NETTLE WEED,THISTLE WEED,THISTLE WEED","20,20,20,20","20,20,20,20","10,10,10,10","20,20,20,20","0,0,0,0","20,20,20,20","20,20,20,20","20,20,20,20","10,10,10,10","20,20,20,20","0,0,0,0","20,20,20,20","0,1,1,0","1897,1118,1217,1452","1.5909501425564834,10.398078156647038,8.220763411264983,59.509636363550804","48.58990946011974,8.798852929370776,28.085294248800757,54.31277604526328","0","0"
"513","86","text","0","129","1129117","0-0","","","","","","","","","","","","","","","","","","","","","","","","","","","","","","","","","","","","",""
"","","plant-game","0","130","1140825","0-0","","200","190","4","CORN CROP","Left","200","190","1","NETTLE WEED","experimental","52","1,2,3,4","190,191.67679415402318,222.84017141792182,226.72276586348008","4,3,2,1","CORN CROP,CORN CROP,CORN CROP,CORN CROP","190,170,174.3968567838985,190.50543758338014","1,3,2,1","NETTLE WEED,THISTLE WEED,THISTLE WEED,THISTLE WEED","20,20,20,20","20,20,20,20","10,10,10,10","20,20,20,20","0,0,0,0","20,20,20,20","20,20,20,20","20,20,20,20","10,10,10,10","20,20,20,20","0,0,0,0","20,20,20,20","1,1,1,1","835,1105,1209,1249","1.6767941540231974,31.16337726389863,3.882594445558257,-23.400673289266983","0.6508566643932917,4.396856783898488,16.10858079948164,-26.851188458777848","0","0"
"163","86","text","0","131","1141108","0-0","","","","","","","","","","","","","","","","","","","","","","","","","","","","","","","","","","","","",""
"","","plant-game","0","132","1155744","0-0","","200","120","2","WHEAT CROP","Right","200","190","8","NETTLE WEED","experimental","53","1,2,3,4,5,6,7,8","190,216.157212734471,216.78166998131277,233.67255588306736,211.29855069787948,218.6289922775833,247.30314282004593,252.4320273837959","8,7,6,5,4,3,2,1","NETTLE WEED,NETTLE WEED,NETTLE WEED,NETTLE WEED,NETTLE WEED,NETTLE WEED,NETTLE WEED,NETTLE WEED","120,111.54759199387708,140,185.13661584726853,194.86722521245906,211.46894974406334,202.91649765108244,227.34633984902823","2,1,6,5,4,3,2,1","WHEAT CROP,WHEAT CROP,CORN CROP,CORN CROP,CORN CROP,CORN CROP,CORN CROP,CORN CROP","0,0,0,0,0,0,0,0","20,20,20,20,20,20,20,20","10,10,10,10,10,10,10,10","20,20,20,20,20,20,20,20","20,20,20,20,20,20,20,20","20,20,20,20,20,20,20,20","0,0,0,0,0,0,0,0","20,20,20,20,20,20,20,20","10,10,10,10,10,10,10,10","20,20,20,20,20,20,20,20","20,20,20,20,20,20,20,20","20,20,20,20,20,20,20,20","1,0,0,0,0,1,0,1","610,820,1310,778,736,672,823,727","26.157212734470985,0.6244572468417839,16.89088590175459,-22.374005185187897,7.330441579703817,28.674150542462634,5.128884563749983,29.107289402415553","-8.452408006122923,-0.7893753015691791,45.13661584726853,9.730609365190535,16.601724531604273,-8.552452092980904,24.429842197945785,23.388773325056174","0","0"
"387","86","text","0","133","1156291","0-0","","","","","","","","","","","","","","","","","","","","","","","","","","","","","","","","","","","","",""
"","","plant-game","0","134","1165086","0-0","","200","160","1","CORN CROP","Right","200","180","2","NETTLE WEED","experimental","54","1,2","180,212.3600402319314","2,1","NETTLE WEED,NETTLE WEED","160,190","1,1","CORN CROP,WHEAT CROP","0,0","20,20","10,10","20,20","20,20","20,20","0,0","20,20","10,10","20,20","20,20","20,20","1,1","718,820","32.36004023193139,46.112740395357974","5.961689915771162,12.738682696784473","0","0"
"596","86","text","0","135","1165842","0-0","","","","","","","","","","","","","","","","","","","","","","","","","","","","","","","","","","","","",""
"","","plant-game","0","136","1182416","0-0","","200","120","8","CORN CROP","Left","200","160","4","NETTLE WEED","experimental","55","1,2,3,4,5,6,7,8","120,108.02076945565884,141.2758225143233,131.36403658079496,176.76542078881477,215.0875304663236,204.84221827048972,222.52207757845554","8,7,6,5,4,3,2,1","CORN CROP,CORN CROP,CORN CROP,CORN CROP,CORN CROP,CORN CROP,CORN CROP,CORN CROP","160,176.15685206185384,203.33679824223412,268.6033556832922,160,186.1818881142945,156.286491394623,166.62021906241782","4,3,2,1,4,3,2,1","NETTLE WEED,NETTLE WEED,NETTLE WEED,NETTLE WEED,THISTLE WEED,THISTLE WEED,THISTLE WEED,THISTLE WEED","20,20,20,20,20,20,20,20","20,20,20,20,20,20,20,20","10,10,10,10,10,10,10,10","20,20,20,20,20,20,20,20","0,0,0,0,0,0,0,0","20,20,20,20,20,20,20,20","20,20,20,20,20,20,20,20","20,20,20,20,20,20,20,20","10,10,10,10,10,10,10,10","20,20,20,20,20,20,20,20","0,0,0,0,0,0,0,0","20,20,20,20,20,20,20,20","0,0,0,0,0,1,0,1","2559,1179,753,420,1273,1217,1224,380","-11.97923054434117,33.25505305866446,-9.911785933528328,45.40138420801982,38.32210967750885,-10.245312195833892,17.679859307965803,10.2920906363535","16.156852061853836,27.1799461803803,65.26655744105804,15.51178183938083,26.181888114294505,-29.895396719671496,10.333727667794825,43.7799761068284","0","0"
"668","86","text","0","137","1183245","0-0","","","","","","","","","","","","","","","","","","","","","","","","","","","","","","","","","","","","",""
"","","plant-game","0","138","1203554","0-0","","200","190","1","CORN CROP","Left","200","180","8","THISTLE WEED","experimental","56","1,2,3,4,5,6,7,8","190,130,138.66010142796816,161.3843154457103,158.70908499184264,205.06217006964505,222.22391415818663,209.4138548531343","1,7,6,5,4,3,2,1","CORN CROP,WHEAT CROP,WHEAT CROP,WHEAT CROP,WHEAT CROP,WHEAT CROP,WHEAT CROP,WHEAT CROP","180,183.70873852534567,164.89805609835938,188.27117054434493,184.569622270197,219.55493370013377,217.37132095523634,234.17873983193695","8,7,6,5,4,3,2,1","THISTLE WEED,THISTLE WEED,THISTLE WEED,THISTLE WEED,THISTLE WEED,THISTLE WEED,THISTLE WEED,THISTLE WEED","20,20,20,20,20,20,20,20","20,20,20,20,20,20,20,20","10,10,10,10,10,10,10,10","20,20,20,20,20,20,20,20","0,0,0,0,0,0,0,0","20,20,20,20,20,20,20,20","20,20,20,20,20,20,20,20","20,20,20,20,20,20,20,20","10,10,10,10,10,10,10,10","20,20,20,20,20,20,20,20","0,0,0,0,0,0,0,0","20,20,20,20,20,20,20,20","1,0,0,1,0,1,1,1","944,1650,592,1273,768,970,2456,827","29.750905929019936,8.660101427968145,22.72421401774216,-2.675230453867683,46.35308507780242,17.161744088541575,-12.810059305052334,0.8303809311125521","3.7087385253456544,-18.81068242698629,23.37311444598555,-3.7015482741479433,34.98531142993678,-2.1836127448974354,16.807418876700602,-5.814723991678026","0","0"
"619","86","text","0","139","1204353","0-0","","","","","","","","","","","","","","","","","","","","","","","","","","","","","","","","","","","","",""
"","","plant-game","0","140","1213760","0-0","","200","180","8","CORN CROP","Right","200","160","8","NETTLE WEED","experimental","57","1,2,3,4,5,6,7,8","160,205.9187046124856,241.7729445279287,268.210950728758,284.4032508724669,342.95733647526004,372.25652931416164,409.48824920043137","8,7,6,5,4,3,2,1","NETTLE WEED,NETTLE WEED,NETTLE WEED,NETTLE WEED,NETTLE WEED,NETTLE WEED,NETTLE WEED,NETTLE WEED","180,172.9129836416158,214.16787813434095,188.8269708076672,171.7858436859829,166.46081559796187,196.40947744176034,198.81374166616766","8,7,6,5,4,3,2,1","CORN CROP,CORN CROP,CORN CROP,CORN CROP,CORN CROP,CORN CROP,CORN CROP,CORN CROP","0,0,0,0,0,0,0,0","20,20,20,20,20,20,20,20","10,10,10,10,10,10,10,10","20,20,20,20,20,20,20,20","20,20,20,20,20,20,20,20","20,20,20,20,20,20,20,20","0,0,0,0,0,0,0,0","20,20,20,20,20,20,20,20","10,10,10,10,10,10,10,10","20,20,20,20,20,20,20,20","20,20,20,20,20,20,20,20","20,20,20,20,20,20,20,20","1,0,0,1,1,1,1,1","1062,655,768,1880,448,296,117,130","45.9187046124856,35.85423991544309,26.43800620082931,16.192300143708902,58.55408560279314,29.2991928389016,37.231719886269715,10.48517807242042","-7.087016358384194,41.25489449272516,-25.340907326673747,-17.041127121684298,-5.325028088021032,29.948661843798476,2.404264224407303,37.94452102529587","0","0"
"487","86","text","0","141","1214377","0-0","","","","","","","","","","","","","","","","","","","","","","","","","","","","","","","","","","","","",""
"","","plant-game","0","142","1220944","0-0","","200","160","2","CORN CROP","Left","200","160","2","THISTLE WEED","experimental","58","1,2","160,156.4292755004312","2,1","CORN CROP,CORN CROP","160,116.6941991546542","2,1","THISTLE WEED,THISTLE WEED","20,20","20,20","10,10","20,20","0,0","20,20","20,20","20,20","10,10","20,20","0,0","20,20","1,0","754,687","-3.5707244995688043,25.565748889202176","-43.30580084534581,-0.35119250912414657","0","0"
"476","86","text","0","143","1221550","0-0","","","","","","","","","","","","","","","","","","","","","","","","","","","","","","","","","","","","",""
"","","plant-game","0","144","1234494","0-0","","200","190","8","WHEAT CROP","Right","200","120","2","THISTLE WEED","experimental","59","1,2,3,4,5,6,7,8","120,120.43059591813929,140,124.59252456187397,120.23203941981504,114.2393664354607,101.13626527224086,124.94420124186686","2,1,6,5,4,3,2,1","THISTLE WEED,THISTLE WEED,NETTLE WEED,NETTLE WEED,NETTLE WEED,NETTLE WEED,NETTLE WEED,NETTLE WEED","190,174.7632030579935,174.89023103244267,184.94641961551176,141.4533039750103,149.6577821172033,171.54046944373616,200.33155801620347","8,7,6,5,4,3,2,1","WHEAT CROP,WHEAT CROP,WHEAT CROP,WHEAT CROP,WHEAT CROP,WHEAT CROP,WHEAT CROP,WHEAT CROP","0,0,0,0,0,0,0,0","20,20,20,20,20,20,20,20","10,10,10,10,10,10,10,10","20,20,20,20,20,20,20,20","20,20,20,20,20,20,20,20","20,20,20,20,20,20,20,20","0,0,0,0,0,0,0,0","20,20,20,20,20,20,20,20","10,10,10,10,10,10,10,10","20,20,20,20,20,20,20,20","20,20,20,20,20,20,20,20","20,20,20,20,20,20,20,20","0,0,0,0,1,1,1,1","1593,496,664,556,521,463,399,683","0.43059591813929166,-2.0955781100368736,-15.407475438126028,-4.360485142058929,-5.992672984354343,-13.103101163219833,23.807935969626005,21.309573301068223","-15.236796942006489,0.12702797444916242,10.05618858306908,-43.493115640501465,8.204478142193024,21.882687326532835,28.79108857246733,1.2542161199236155","0","0"
"130","86","text","0","145","1234729","0-0","","","","","","","","","","","","","","","","","","","","","","","","","","","","","","","","","","","","",""
"","","plant-game","0","146","1239520","0-0","","200","120","1","WHEAT CROP","Left","200","190","1","NETTLE WEED","experimental","60","1","120","1","WHEAT CROP","190","1","NETTLE WEED","20","20","10","20","0","20","20","20","10","20","0","20","1","1686","-25.901541124246332","27.84031333886056","0","0"
"113","86","text","0","147","1239733","0-0","","","","","","","","","","","","","","","","","","","","","","","","","","","","","","","","","","","","",""
"","","plant-game","0","148","1249592","0-0","","200","160","8","CORN CROP","Right","200","160","8","THISTLE WEED","experimental","61","1,2,3,4,5,6,7,8","160,133.29466240426441,151.4918739393429,187.103633863151,165.33136332227664,215.71969426217885,195.2431906526184,209.73226663039955","8,7,6,5,4,3,2,1","THISTLE WEED,THISTLE WEED,THISTLE WEED,THISTLE WEED,THISTLE WEED,THISTLE WEED,THISTLE WEED,THISTLE WEED","160,172.29796113644534,196.40701108625444,211.16818142659397,235.46338681605383,282.6530197780045,306.8730867409319,331.03476581637267","8,7,6,5,4,3,2,1","CORN CROP,CORN CROP,CORN CROP,CORN CROP,CORN CROP,CORN CROP,CORN CROP,CORN CROP","0,0,0,0,0,0,0,0","20,20,20,20,20,20,20,20","10,10,10,10,10,10,10,10","20,20,20,20,20,20,20,20","20,20,20,20,20,20,20,20","20,20,20,20,20,20,20,20","0,0,0,0,0,0,0,0","20,20,20,20,20,20,20,20","10,10,10,10,10,10,10,10","20,20,20,20,20,20,20,20","20,20,20,20,20,20,20,20","20,20,20,20,20,20,20,20","1,1,1,0,1,0,0,0","1207,427,367,838,754,792,881,955","-26.70533759573558,18.197211535078488,35.6117599238081,-21.77227054087435,50.388330939902204,-20.476503609560424,14.489075977781136,0.8348202861184745","12.297961136445325,24.109049949809094,14.761170340339543,24.295205389459863,47.18963296195065,24.220066962927458,24.161679075440766,-0.8549611620407954","0","0"
"190","86","text","0","149","1249872","0-0","","","","","","","","","","","","","","","","","","","","","","","","","","","","","","","","","","","","",""
"","","plant-game","0","150","1262872","0-0","","200","180","8","WHEAT CROP","Right","200","120","4","NETTLE WEED","experimental","62","1,2,3,4,5,6,7,8","120,146.55630166960717,165.90632478560292,190.45351241476726,160,201.69718326486836,208.69320430011112,253.03904836726576","4,3,2,1,4,3,2,1","NETTLE WEED,NETTLE WEED,NETTLE WEED,NETTLE WEED,THISTLE WEED,THISTLE WEED,THISTLE WEED,THISTLE WEED","180,194.396831078822,222.60046390692997,225.7089055581494,228.0612729228153,263.067688653422,315.108723867833,300.8843141024449","8,7,6,5,4,3,2,1","WHEAT CROP,WHEAT CROP,WHEAT CROP,WHEAT CROP,WHEAT CROP,WHEAT CROP,WHEAT CROP,WHEAT CROP","0,0,0,0,0,0,0,0","20,20,20,20,20,20,20,20","10,10,10,10,10,10,10,10","20,20,20,20,20,20,20,20","20,20,20,20,20,20,20,20","20,20,20,20,20,20,20,20","0,0,0,0,0,0,0,0","20,20,20,20,20,20,20,20","10,10,10,10,10,10,10,10","20,20,20,20,20,20,20,20","20,20,20,20,20,20,20,20","20,20,20,20,20,20,20,20","1,1,0,1,1,1,0,1","953,447,376,605,1917,1491,186,869","26.556301669607166,19.350023115995768,24.54718762916435,24.375180506505032,41.69718326486836,6.996021035242757,44.34584406715463,55.11060081836276","14.396831078822014,28.203632828107974,3.108441651219442,2.3523673646658807,35.00641573060669,52.04103521441101,-14.224409765388126,48.7485273329991","0","0"
"160","86","text","0","151","1263112","0-0","","","","","","","","","","","","","","","","","","","","","","","","","","","","","","","","","","","","",""
"","","plant-game","0","152","1271416","0-0","","200","160","1","CORN CROP","Left","200","160","2","THISTLE WEED","experimental","63","1,2","160,190","1,1","CORN CROP,WHEAT CROP","160,187.6602654132338","2,1","THISTLE WEED,THISTLE WEED","20,20","20,20","10,10","20,20","0,0","20,20","20,20","20,20","10,10","20,20","0,0","20,20","1,1","981,854","1.7760272904464312,36.58023182515405","27.6602654132338,7.933256963008519","0","0"
"471","86","text","0","153","1272052","0-0","","","","","","","","","","","","","","","","","","","","","","","","","","","","","","","","","","","","",""
"","","plant-game","0","154","1283369","0-0","","200","190","8","CORN CROP","Left","200","190","4","THISTLE WEED","experimental","64","1,2,3,4,5,6,7,8","190,201.50139642853807,191.00994298861588,186.66302684316423,159.12983335518385,151.79046255056144,154.3306247512038,209.97745848624504","8,7,6,5,4,3,2,1","CORN CROP,CORN CROP,CORN CROP,CORN CROP,CORN CROP,CORN CROP,CORN CROP,CORN CROP","190,166.57175193891885,159.58376477391255,158.40765775480787,160,172.56762087704178,173.53312078136662,183.6722128515604","4,3,2,1,4,3,2,1","THISTLE WEED,THISTLE WEED,THISTLE WEED,THISTLE WEED,NETTLE WEED,NETTLE WEED,NETTLE WEED,NETTLE WEED","20,20,20,20,20,20,20,20","20,20,20,20,20,20,20,20","10,10,10,10,10,10,10,10","20,20,20,20,20,20,20,20","0,0,0,0,0,0,0,0","20,20,20,20,20,20,20,20","20,20,20,20,20,20,20,20","20,20,20,20,20,20,20,20","10,10,10,10,10,10,10,10","20,20,20,20,20,20,20,20","0,0,0,0,0,0,0,0","20,20,20,20,20,20,20,20","1,1,1,1,1,1,0,1","736,563,537,367,848,253,247,1115","11.501396428538069,-10.491453439922198,-4.346916145451633,-27.53319348798039,-7.339370804622406,2.5401622006423485,55.646833735041255,13.005398672078226","-23.428248061081156,-6.987987165006311,-1.176107019104681,7.952536919863368,12.567620877041765,0.9654999043248376,10.139092070193774,-2.3656423895985377","0","0"
"183","86","text","0","155","1283672","0-0","","","","","","","","","","","","","","","","","","","","","","","","","","","","","","","","","","","","",""
"","","plant-game","0","156","1291152","0-0","","200","120","4","WHEAT CROP","Left","200","190","1","NETTLE WEED","experimental","65","1,2,3,4","120,89.77807402660459,89.87240240739872,119.49303327388728","4,3,2,1","WHEAT CROP,WHEAT CROP,WHEAT CROP,WHEAT CROP","190,170,181.70033043419517,216.26151914623733","1,3,2,1","NETTLE WEED,THISTLE WEED,THISTLE WEED,THISTLE WEED","20,20,20,20","20,20,20,20","10,10,10,10","20,20,20,20","0,0,0,0","20,20,20,20","20,20,20,20","20,20,20,20","10,10,10,10","20,20,20,20","0,0,0,0","20,20,20,20","1,1,0,1","1167,1283,610,583","-30.221925973395418,0.09432838079414378,29.62063086648856,-36.77444468964907","-32.44984022902025,11.70033043419518,34.56118871204218,11.30067311877668","0","0"
"103","86","text","0","157","1291365","0-0","","","","","","","","","","","","","","","","","","","","","","","","","","","","","","","","","","","","",""
"","","plant-game","0","158","1301529","0-0","","200","160","1","CORN CROP","Right","200","180","4","NETTLE WEED","experimental","66","1,2,3,4","180,170.50168605187463,171.30021126822047,197.11615626417432","4,3,2,1","NETTLE WEED,NETTLE WEED,NETTLE WEED,NETTLE WEED","160,170,191.40562975708258,199.85853179526754","1,3,2,1","CORN CROP,WHEAT CROP,WHEAT CROP,WHEAT CROP","0,0,0,0","20,20,20,20","10,10,10,10","20,20,20,20","20,20,20,20","20,20,20,20","0,0,0,0","20,20,20,20","10,10,10,10","20,20,20,20","20,20,20,20","20,20,20,20","1,1,1,1","1210,978,549,1896","-9.498313948125386,0.7985252163458441,25.815944995953863,11.32954758069424","15.71113435379945,21.405629757082572,8.452902038184964,36.75899199765955","0","0"
"130","86","text","0","159","1301759","0-0","","","","","","","","","","","","","","","","","","","","","","","","","","","","","","","","","","","","",""
"","","plant-game","0","160","1312833","0-0","","200","180","8","CORN CROP","Left","200","160","1","NETTLE WEED","experimental","67","1,2,3,4,5,6,7,8","180,167.62980946633922,185.06994691015458,195.6220270282081,236.40224136839663,213.42065863380515,215.630975037757,185.96308186529825","8,7,6,5,4,3,2,1","CORN CROP,CORN CROP,CORN CROP,CORN CROP,CORN CROP,CORN CROP,CORN CROP,CORN CROP","160,130,193.93245810880063,199.41169822745803,246.96021211867884,212.82341900995837,216.5876677015153,251.93768715161838","1,7,6,5,4,3,2,1","NETTLE WEED,THISTLE WEED,THISTLE WEED,THISTLE WEED,THISTLE WEED,THISTLE WEED,THISTLE WEED,THISTLE WEED","20,20,20,20,20,20,20,20","20,20,20,20,20,20,20,20","10,10,10,10,10,10,10,10","20,20,20,20,20,20,20,20","0,0,0,0,0,0,0,0","20,20,20,20,20,20,20,20","20,20,20,20,20,20,20,20","20,20,20,20,20,20,20,20","10,10,10,10,10,10,10,10","20,20,20,20,20,20,20,20","0,0,0,0,0,0,0,0","20,20,20,20,20,20,20,20","1,0,1,0,1,1,1,0","707,579,563,1030,398,351,497,771","-12.37019053366079,17.44013744381536,10.55208011805351,40.78021434018852,-22.981582734591495,2.210316403951857,-29.667893172458754,23.914593539170582","-13.901795051169989,63.93245810880062,5.479240118657391,47.54851389122079,-34.13679310872047,3.7642486915569235,35.35001945010309,26.92673799337931","0","0"
"152","86","text","0","161","1313065","0-0","","","","","","","","","","","","","","","","","","","","","","","","","","","","","","","","","","","","",""
"","","plant-game","0","162","1325709","0-0","","200","160","8","WHEAT CROP","Right","200","180","4","NETTLE WEED","experimental","68","1,2,3,4,5,6,7,8","180,186.84163451606133,219.12208465724802,209.00621064177136,160,173.20376724465194,206.85401765571453,221.3985218835296","4,3,2,1,4,3,2,1","NETTLE WEED,NETTLE WEED,NETTLE WEED,NETTLE WEED,THISTLE WEED,THISTLE WEED,THISTLE WEED,THISTLE WEED","160,157.19844411773724,176.2803929453465,180.7364961602728,211.18157522690117,240.7524362609404,272.3354705694619,277.66736156323157","8,7,6,5,4,3,2,1","WHEAT CROP,WHEAT CROP,WHEAT CROP,WHEAT CROP,WHEAT CROP,WHEAT CROP,WHEAT CROP,WHEAT CROP","0,0,0,0,0,0,0,0","20,20,20,20,20,20,20,20","10,10,10,10,10,10,10,10","20,20,20,20,20,20,20,20","20,20,20,20,20,20,20,20","20,20,20,20,20,20,20,20","0,0,0,0,0,0,0,0","20,20,20,20,20,20,20,20","10,10,10,10,10,10,10,10","20,20,20,20,20,20,20,20","20,20,20,20,20,20,20,20","20,20,20,20,20,20,20,20","0,1,1,1,1,1,1,1","2220,500,526,176,860,560,1395,712","6.8416345160613465,32.280450141186705,-10.115874015476649,36.264181486756115,13.203767244651939,33.65025041106259,14.54450422781507,-9.550685226147998","-2.8015558822627677,19.081948827609263,4.456103214926284,30.445079066628384,29.570861034039243,31.583034308521494,5.33189099376964,20.04973036923363","0","0"
"487","86","text","0","163","1326326","0-0","","","","","","","","","","","","","","","","","","","","","","","","","","","","","","","","","","","","",""
"","","plant-game","0","164","1337580","0-0","","200","190","8","CORN CROP","Left","200","160","8","THISTLE WEED","experimental","69","1,2,3,4,5,6,7,8","190,168.18368279639205,180.29995197215607,212.45473592273203,209.53399106639395,204.8171238386748,226.75028659499588,231.35859502670866","8,7,6,5,4,3,2,1","CORN CROP,CORN CROP,CORN CROP,CORN CROP,CORN CROP,CORN CROP,CORN CROP,CORN CROP","160,206.64359948977233,204.6698779060279,237.75987520915265,250.77869261981203,222.03293156328346,206.26285790433656,202.26448914066293","8,7,6,5,4,3,2,1","THISTLE WEED,THISTLE WEED,THISTLE WEED,THISTLE WEED,THISTLE WEED,THISTLE WEED,THISTLE WEED,THISTLE WEED","20,20,20,20,20,20,20,20","20,20,20,20,20,20,20,20","10,10,10,10,10,10,10,10","20,20,20,20,20,20,20,20","0,0,0,0,0,0,0,0","20,20,20,20,20,20,20,20","20,20,20,20,20,20,20,20","20,20,20,20,20,20,20,20","10,10,10,10,10,10,10,10","20,20,20,20,20,20,20,20","0,0,0,0,0,0,0,0","20,20,20,20,20,20,20,20","1,0,0,1,1,1,1,1","773,584,430,732,948,770,439,372","-21.816317203607944,12.116269175764026,32.15478395057595,-2.920744856338068,-4.716867227719143,21.933162756321085,4.608308431712764,-6.373577631876827","46.64359948977234,-1.9737215837444246,33.089997303124754,13.018817410659382,-28.74576105652858,-15.77007365894689,-3.9983687636736143,-22.69712291817411","0","0"
"529","86","text","0","165","1338349","0-0","","","","","","","","","","","","","","","","","","","","","","","","","","","","","","","","","","","","",""
"","","plant-game","0","166","1350170","0-0","","200","120","2","WHEAT CROP","Right","200","160","8","NETTLE WEED","experimental","70","1,2,3,4,5,6,7,8","160,175.07844378951597,218.3446606795418,237.83727651961541,227.33560920073387,260.8009551919967,284.43288590141447,275.4904006058259","8,7,6,5,4,3,2,1","NETTLE WEED,NETTLE WEED,NETTLE WEED,NETTLE WEED,NETTLE WEED,NETTLE WEED,NETTLE WEED,NETTLE WEED","120,140.64180682877821,140,155.6101980341765,152.33771007788084,173.5737393372032,197.32780022574713,195.41390327132913","2,1,6,5,4,3,2,1","WHEAT CROP,WHEAT CROP,CORN CROP,CORN CROP,CORN CROP,CORN CROP,CORN CROP,CORN CROP","0,0,0,0,0,0,0,0","20,20,20,20,20,20,20,20","10,10,10,10,10,10,10,10","20,20,20,20,20,20,20,20","20,20,20,20,20,20,20,20","20,20,20,20,20,20,20,20","0,0,0,0,0,0,0,0","20,20,20,20,20,20,20,20","10,10,10,10,10,10,10,10","20,20,20,20,20,20,20,20","20,20,20,20,20,20,20,20","20,20,20,20,20,20,20,20","0,1,1,0,1,1,1,1","1727,735,1440,424,393,340,370,480","15.078443789515976,43.26621689002581,19.49261584007362,-10.501667318881537,33.46534599126282,23.63193070941777,-8.942485295588547,26.365764607202877","20.641806828778208,6.641028637188791,15.61019803417652,-3.272487956295651,21.23602925932235,23.754060888543947,-1.9138969544179893,-12.849442526543108","0","0"
"533","86","text","0","167","1350903","0-0","","","","","","","","","","","","","","","","","","","","","","","","","","","","","","","","","","","","",""
"","","plant-game","0","168","1387266","0-0","","200","180","4","WHEAT CROP","Left","200","190","8","THISTLE WEED","experimental","71","1,2,3,4,5,6,7,8","180,181.49824214056662,206.81216526714934,204.75251831140562,160,188.55887440071137,198.64279792111253,215.24769794838738","4,3,2,1,4,3,2,1","WHEAT CROP,WHEAT CROP,WHEAT CROP,WHEAT CROP,CORN CROP,CORN CROP,CORN CROP,CORN CROP","190,204.25619664479566,244.6228223784722,258.05647566301025,209.31111206721482,232.7459709441277,209.06130771308682,252.95508290769442","8,7,6,5,4,3,2,1","THISTLE WEED,THISTLE WEED,THISTLE WEED,THISTLE WEED,THISTLE WEED,THISTLE WEED,THISTLE WEED,THISTLE WEED","20,20,20,20,20,20,20,20","20,20,20,20,20,20,20,20","10,10,10,10,10,10,10,10","20,20,20,20,20,20,20,20","0,0,0,0,0,0,0,0","20,20,20,20,20,20,20,20","20,20,20,20,20,20,20,20","20,20,20,20,20,20,20,20","10,10,10,10,10,10,10,10","20,20,20,20,20,20,20,20","0,0,0,0,0,0,0,0","20,20,20,20,20,20,20,20","0,1,1,1,0,1,1,1","2834,5036,644,610,703,67,565,1005","1.4982421405666244,25.313923126582733,-2.059646955743704,-9.768270046113027,28.55887440071138,10.083923520401157,16.604900027274844,-5.2928655054476135","14.256196644795661,40.36662573367653,13.433653284538067,-48.74536359579544,23.434858876912884,-23.684663231040876,43.893775194607585,-0.4225146309255468","3","0"
"520","86","text","0","169","1387946","0-0","","","","","","","","","","","","","","","","","","","","","","","","","","","","","","","","","","","","",""
"","","plant-game","0","170","1400450","0-0","","200","190","4","CORN CROP","Left","200","190","4","NETTLE WEED","experimental","72","1,2,3,4","190,189.0323328600567,154.73379804625063,147.28500078306533","4,3,2,1","CORN CROP,CORN CROP,CORN CROP,CORN CROP","190,189.39158472969999,183.09730178666962,202.52734440699848","4,3,2,1","NETTLE WEED,NETTLE WEED,NETTLE WEED,NETTLE WEED","20,20,20,20","20,20,20,20","10,10,10,10","20,20,20,20","0,0,0,0","20,20,20,20","20,20,20,20","20,20,20,20","10,10,10,10","20,20,20,20","0,0,0,0","20,20,20,20","1,1,1,1","6467,349,277,463","-0.9676671399433119,-34.29853481380607,-7.448797263185291,0.92033655289802","-0.6084152703000281,-6.294282943030353,19.430042620328866,-6.3057695658460355","0","0"
"686","86","text","0","171","1401326","0-0","","","","","","","","","","","","","","","","","","","","","","","","","","","","","","","","","","","","",""
"","","plant-game","0","172","1409973","0-0","","200","160","4","CORN CROP","Left","200","180","2","NETTLE WEED","experimental","73","1,2,3,4","160,208.80396578521078,204.82914884841767,207.8281670290671","4,3,2,1","CORN CROP,CORN CROP,CORN CROP,CORN CROP","180,214.4233477221127,180,174.24167843176784","2,1,2,1","NETTLE WEED,NETTLE WEED,THISTLE WEED,THISTLE WEED","20,20,20,20","20,20,20,20","10,10,10,10","20,20,20,20","0,0,0,0","20,20,20,20","20,20,20,20","20,20,20,20","10,10,10,10","20,20,20,20","0,0,0,0","20,20,20,20","0,1,1,1","1933,724,1320,448","48.80396578521078,-3.974816936793098,2.9990181806494105,17.840297312646168","34.4233477221127,-5.0166292055397985,-5.758321568232152,21.430407268383853","0","0"
"453","86","text","0","173","1410556","0-0","","","","","","","","","","","","","","","","","","","","","","","","","","","","","","","","","","","","",""
"","","plant-game","0","174","1429121","0-0","","200","160","1","CORN CROP","Right","200","180","8","NETTLE WEED","experimental","74","1,2,3,4,5,6,7,8","180,191.98075965452566,186.1761431862007,197.19070703585174,234.54825948222665,229.94017429495443,241.2635841391486,230.53394479108638","8,7,6,5,4,3,2,1","NETTLE WEED,NETTLE WEED,NETTLE WEED,NETTLE WEED,NETTLE WEED,NETTLE WEED,NETTLE WEED,NETTLE WEED","160,130,102.70203855992298,112.92673207819074,132.07483027576563,145.6917185225068,200.6137310135981,214.72961748678074","1,7,6,5,4,3,2,1","CORN CROP,WHEAT CROP,WHEAT CROP,WHEAT CROP,WHEAT CROP,WHEAT CROP,WHEAT CROP,WHEAT CROP","0,0,0,0,0,0,0,0","20,20,20,20,20,20,20,20","10,10,10,10,10,10,10,10","20,20,20,20,20,20,20,20","20,20,20,20,20,20,20,20","20,20,20,20,20,20,20,20","0,0,0,0,0,0,0,0","20,20,20,20,20,20,20,20","10,10,10,10,10,10,10,10","20,20,20,20,20,20,20,20","20,20,20,20,20,20,20,20","20,20,20,20,20,20,20,20","0,0,1,1,0,1,0,0","8359,452,364,143,788,210,60,277","11.980759654525645,-5.804616468324965,11.014563849651053,37.35755244637492,-4.608085187272223,11.323409844194178,-10.729639348062223,-3.167448976016856","28.24702855354864,-27.29796144007702,10.224693518267756,19.148098197574885,13.616888246741158,54.92201249109132,14.115886473182629,43.00684120908383","0","0"
"488","86","text","0","175","1429729","0-0","","","","","","","","","","","","","","","","","","","","","","","","","","","","","","","","","","","","",""
"","","plant-game","0","176","1433606","0-0","","200","190","1","CORN CROP","Left","200","120","1","NETTLE WEED","experimental","75","1","190","1","CORN CROP","120","1","NETTLE WEED","20","20","10","20","0","20","20","20","10","20","0","20","0","360","26.96784928033566","39.1254731208606","0","0"
"510","86","text","0","177","1434266","0-0","","","","","","","","","","","","","","","","","","","","","","","","","","","","","","","","","","","","",""
"","","plant-game","0","178","1446929","0-0","","200","120","8","WHEAT CROP","Left","200","190","2","NETTLE WEED","experimental","76","1,2,3,4,5,6,7,8","120,197.62352946859272,181.73631119318875,163.0911921890301,180.61264117077542,183.13994523017303,180.44025857311604,176.6499363688737","8,7,6,5,4,3,2,1","WHEAT CROP,WHEAT CROP,WHEAT CROP,WHEAT CROP,WHEAT CROP,WHEAT CROP,WHEAT CROP,WHEAT CROP","190,212.5267081014383,140,175.40215506505209,160.25905570687308,156.38062519156026,182.57028293461968,190.4841195500187","2,1,6,5,4,3,2,1","NETTLE WEED,NETTLE WEED,THISTLE WEED,THISTLE WEED,THISTLE WEED,THISTLE WEED,THISTLE WEED,THISTLE WEED","20,20,20,20,20,20,20,20","20,20,20,20,20,20,20,20","10,10,10,10,10,10,10,10","20,20,20,20,20,20,20,20","0,0,0,0,0,0,0,0","20,20,20,20,20,20,20,20","20,20,20,20,20,20,20,20","20,20,20,20,20,20,20,20","10,10,10,10,10,10,10,10","20,20,20,20,20,20,20,20","0,0,0,0,0,0,0,0","20,20,20,20,20,20,20,20","0,1,0,1,1,0,1,0","1750,427,903,554,650,560,560,696","77.62352946859272,-15.88721827540397,-18.64511900415865,17.52144898174533,2.5273040593975944,-2.69968665705699,-3.790322204242329,51.08828481466855","22.52670810143829,-3.556808288700735,35.40215506505209,-15.143099358179,-3.8784305153128296,26.189657743059428,7.913836615399021,34.78813281497229","0","0"
"140","86","text","0","179","1447169","0-0","","","","","","","","","","","","","","","","","","","","","","","","","","","","","","","","","","","","",""
"","","plant-game","0","180","1460709","0-0","","200","190","1","CORN CROP","Left","200","160","8","NETTLE WEED","experimental","77","1,2,3,4,5,6,7,8","190,130,133.04777692151987,134.9336966062276,107.37825853905579,83.79890969664737,109.62253148989781,131.93711892723616","1,7,6,5,4,3,2,1","CORN CROP,WHEAT CROP,WHEAT CROP,WHEAT CROP,WHEAT CROP,WHEAT CROP,WHEAT CROP,WHEAT CROP","160,192.24055211078652,225.90545803563208,251.47347448380782,267.3190751239321,243.52526908246858,269.6794999340962,325.88844543704477","8,7,6,5,4,3,2,1","NETTLE WEED,NETTLE WEED,NETTLE WEED,NETTLE WEED,NETTLE WEED,NETTLE WEED,NETTLE WEED,NETTLE WEED","20,20,20,20,20,20,20,20","20,20,20,20,20,20,20,20","10,10,10,10,10,10,10,10","20,20,20,20,20,20,20,20","0,0,0,0,0,0,0,0","20,20,20,20,20,20,20,20","20,20,20,20,20,20,20,20","20,20,20,20,20,20,20,20","10,10,10,10,10,10,10,10","20,20,20,20,20,20,20,20","0,0,0,0,0,0,0,0","20,20,20,20,20,20,20,20","0,0,0,1,1,0,0,0","688,2507,627,542,551,681,395,323","9.226931321741503,3.047776921519869,1.8859196847077406,-27.555438067171817,-23.57934884240842,25.823621793250435,22.31458743733834,32.57884697193634","32.240552110786524,33.66490592484555,25.568016448175754,15.845600640124287,-23.793806041463526,26.15423085162761,56.20894550294856,63.19360986107743","0","0"
"503","86","text","0","181","1461342","0-0","","","","","","","","","","","","","","","","","","","","","","","","","","","","","","","","","","","","",""
"","","plant-game","0","182","1478440","0-0","","200","180","2","CORN CROP","Right","200","160","8","THISTLE WEED","experimental","78","1,2,3,4,5,6,7,8","160,144.46531826668743,131.56178452071723,143.1485851365574,153.44664116934516,164.2145088513593,156.10706097078875,187.8405573355814","8,7,6,5,4,3,2,1","THISTLE WEED,THISTLE WEED,THISTLE WEED,THISTLE WEED,THISTLE WEED,THISTLE WEED,THISTLE WEED,THISTLE WEED","180,200.62730100597076,140,128.62814654686002,137.58109672726528,114.1179399303648,100.37822576813824,91.28750449242199","2,1,6,5,4,3,2,1","CORN CROP,CORN CROP,WHEAT CROP,WHEAT CROP,WHEAT CROP,WHEAT CROP,WHEAT CROP,WHEAT CROP","0,0,0,0,0,0,0,0","20,20,20,20,20,20,20,20","10,10,10,10,10,10,10,10","20,20,20,20,20,20,20,20","20,20,20,20,20,20,20,20","20,20,20,20,20,20,20,20","0,0,0,0,0,0,0,0","20,20,20,20,20,20,20,20","10,10,10,10,10,10,10,10","20,20,20,20,20,20,20,20","20,20,20,20,20,20,20,20","20,20,20,20,20,20,20,20","0,1,0,1,0,0,0,0","957,1412,2354,1369,764,580,915,576","-15.534681733312558,-12.903533745970208,11.586800615840154,10.29805603278778,10.767867682014158,-8.107447880570573,31.733496364792643,-32.958853997380814","20.62730100597075,13.385039621209312,-11.37185345313997,8.952950180405246,-23.463156796900474,-13.739714162226562,-9.090721275716248,17.285064958883044","0","0"
"628","86","text","0","183","1479188","0-0","","","","","","","","","","","","","","","","","","","","","","","","","","","","","","","","","","","","",""
"","","plant-game","0","184","1492068","0-0","","200","180","4","WHEAT CROP","Right","200","120","1","THISTLE WEED","experimental","79","1,2,3,4","120,170,191.78703272110698,185.02511793331604","1,3,2,1","THISTLE WEED,NETTLE WEED,NETTLE WEED,NETTLE WEED","180,200.96164423799868,220.01214201458538,181.4500033167758","4,3,2,1","WHEAT CROP,WHEAT CROP,WHEAT CROP,WHEAT CROP","0,0,0,0","20,20,20,20","10,10,10,10","20,20,20,20","20,20,20,20","20,20,20,20","0,0,0,0","20,20,20,20","10,10,10,10","20,20,20,20","20,20,20,20","20,20,20,20","0,1,0,1","1518,2593,1347,840","1.3314980804431253,21.787032721106996,-6.761914787790952,37.47406126974765","20.961644237998684,19.0504977765867,-38.56213869780957,34.0735920401891","0","0"
"495","86","text","0","185","1492743","0-0","","","","","","","","","","","","","","","","","","","","","","","","","","","","","","","","","","","","",""
"","","plant-game","0","186","1503205","0-0","","200","120","1","WHEAT CROP","Right","200","190","8","THISTLE WEED","experimental","80","1,2,3,4,5,6,7,8","190,211.0495657928743,206.28564970344223,215.0266077633487,269.2645822336333,275.8034784916505,292.79735778769384,271.01760983376533","8,7,6,5,4,3,2,1","THISTLE WEED,THISTLE WEED,THISTLE WEED,THISTLE WEED,THISTLE WEED,THISTLE WEED,THISTLE WEED,THISTLE WEED","120,130,113.27888935990025,141.4627018375558,178.8057689287454,197.28226336362823,220.55099475043804,240.32350232381935","1,7,6,5,4,3,2,1","WHEAT CROP,CORN CROP,CORN CROP,CORN CROP,CORN CROP,CORN CROP,CORN CROP,CORN CROP","0,0,0,0,0,0,0,0","20,20,20,20,20,20,20,20","10,10,10,10,10,10,10,10","20,20,20,20,20,20,20,20","20,20,20,20,20,20,20,20","20,20,20,20,20,20,20,20","0,0,0,0,0,0,0,0","20,20,20,20,20,20,20,20","10,10,10,10,10,10,10,10","20,20,20,20,20,20,20,20","20,20,20,20,20,20,20,20","20,20,20,20,20,20,20,20","0,0,1,1,1,1,0,0","1390,1069,61,175,292,295,525,127","21.04956579287429,-4.763916089432055,8.74095805990647,54.2379744702846,6.538896258017212,16.99387929604338,-21.77974795392851,-18.94515856333528","-20.002751491581037,-16.721110640099756,28.18381247765558,37.34306709118958,18.476494434882817,23.268731386809804,19.772507573381304,-8.638938304863085","0","0"
"5003","86","text","0","187","1508348","0-0","","","","","","","","","","","","","","","","","","","","","","","","","","","","","","","","","","","","",""
"","","plant-game","0","188","1522101","0-0","","200","180","8","CORN CROP","Right","200","190","1","THISTLE WEED","experimental","81","1,2,3,4,5,6,7,8","190,130,92.35141367784809,104.55541161118067,93.23142060334875,137.75386185375163,141.55909217760563,178.22013330592273","1,7,6,5,4,3,2,1","THISTLE WEED,NETTLE WEED,NETTLE WEED,NETTLE WEED,NETTLE WEED,NETTLE WEED,NETTLE WEED,NETTLE WEED","180,231.79035215823802,218.09504523487402,219.9537331519633,216.2089835151222,237.87813335221972,240.72283948771178,273.1291567756898","8,7,6,5,4,3,2,1","CORN CROP,CORN CROP,CORN CROP,CORN CROP,CORN CROP,CORN CROP,CORN CROP,CORN CROP","0,0,0,0,0,0,0,0","20,20,20,20,20,20,20,20","10,10,10,10,10,10,10,10","20,20,20,20,20,20,20,20","20,20,20,20,20,20,20,20","20,20,20,20,20,20,20,20","0,0,0,0,0,0,0,0","20,20,20,20,20,20,20,20","10,10,10,10,10,10,10,10","20,20,20,20,20,20,20,20","20,20,20,20,20,20,20,20","20,20,20,20,20,20,20,20","1,0,1,0,1,1,1,1","919,1554,395,429,3792,611,430,343","1.593541447307505,-37.648586322151914,12.203997933332584,-11.323991007831925,44.52244125040288,3.8052303238540013,36.661041128317095,16.2927048653477","51.79035215823801,-13.695306923364015,1.85868791708927,-3.744749636841091,21.66914983709751,2.8447061354920606,32.40631728797802,-0.8719791527773424","0","0"
"3363","86","text","0","189","1525644","0-0","","","","","","","","","","","","","","","","","","","","","","","","","","","","","","","","","","","","",""
"","","plant-game","0","190","1533624","0-0","","200","160","2","WHEAT CROP","Right","200","180","4","NETTLE WEED","experimental","82","1,2,3,4","180,190.57203836914627,149.33685056613115,160.69074358208243","4,3,2,1","NETTLE WEED,NETTLE WEED,NETTLE WEED,NETTLE WEED","160,172.4115023724188,180,211.83024424081952","2,1,2,1","WHEAT CROP,WHEAT CROP,CORN CROP,CORN CROP","0,0,0,0","20,20,20,20","10,10,10,10","20,20,20,20","20,20,20,20","20,20,20,20","0,0,0,0","20,20,20,20","10,10,10,10","20,20,20,20","20,20,20,20","20,20,20,20","1,0,1,1","740,322,1240,703","10.572038369146282,-41.23518780301511,11.353893015951275,-4.824739674727276","12.411502372418799,53.98473141349956,31.830244240819525,-4.184809437352698","0","0"
