"rt","key_press","trial_type","trial_index","trial_index_global","time_elapsed","internal_chunk_id","responses","experimental_goal_height","experimental_start_height","experimental_weeks_total","experimental_crop_type","experimental_crop_side","fixed_goal_height","fixed_start_height","fixed_weeks_total","fixed_crop_type","trial_kind","trial_number","stage","left_current_height","left_weeks_remaining","left_crop_type","right_current_height","right_weeks_remaining","right_crop_type","mean_left_growth_given_left","sd_left_growth_given_left","mean_left_growth_given_middle","sd_left_growth_given_middle","mean_left_growth_given_right","sd_left_growth_given_right","mean_right_growth_given_left","sd_right_growth_given_left","mean_right_growth_given_middle","sd_right_growth_given_middle","mean_right_growth_given_right","sd_right_growth_given_right","response","response_time","left_growth","right_growth","other_key_pressed","mouse_clicked"
"2722673","87","text","0","0","2722769","0-0","","","","","","","","","","","","","","","","","","","","","","","","","","","","","","","","","","","","",""
"6006","","survey-text","0","1","2729802","0-0","{""Q0"":""18""}","","","","","","","","","","","","","","","","","","","","","","","","","","","","","","","","","","","",""
"13392","86","text","0","2","13485","0-0","","","","","","","","","","","","","","","","","","","","","","","","","","","","","","","","","","","","",""
"","","plant-game","0","3","79525","0-0","","200","120","8","WHEAT CROP","Right","200","120","8","THISTLE WEED","practice","1","1,2,3,4,5,6,7,8","120,155.69342617485253,165.8076632959557,165.98132540669968,177.8178293921836,170.6783452052405,150.23744546483366,157.40206600924037","8,7,6,5,4,3,2,1","THISTLE WEED,THISTLE WEED,THISTLE WEED,THISTLE WEED,THISTLE WEED,THISTLE WEED,THISTLE WEED,THISTLE WEED","120,143.57126244385464,129.32713229904905,169.24848129008495,226.32525571571847,223.9649549798816,254.7724359903301,262.97728979152555","8,7,6,5,4,3,2,1","WHEAT CROP,WHEAT CROP,WHEAT CROP,WHEAT CROP,WHEAT CROP,WHEAT CROP,WHEAT CROP,WHEAT CROP","0,0,0,0,0,0,0,0","20,20,20,20,20,20,20,20","10,10,10,10,10,10,10,10","20,20,20,20,20,20,20,20","20,20,20,20,20,20,20,20","20,20,20,20,20,20,20,20","0,0,0,0,0,0,0,0","20,20,20,20,20,20,20,20","10,10,10,10,10,10,10,10","20,20,20,20,20,20,20,20","20,20,20,20,20,20,20,20","20,20,20,20,20,20,20,20","1,0,1,1,0,0,0,0","9114,4601,4983,2662,4624,1831,1524,2322","35.69342617485254,10.114237121103177,0.17366211074397597,11.836503985483919,-7.1394841869430925,-20.440899740406838,7.164620544406713,15.315929094356314","23.571262443854636,-14.244130144805586,39.92134899103589,57.07677442563351,-2.3603007358368626,30.807481010448484,8.204853801195434,-14.435464295691776","0","0"
"1514","86","text","0","4","81148","0-0","","","","","","","","","","","","","","","","","","","","","","","","","","","","","","","","","","","","",""
"","","plant-game","0","5","105854","0-0","","200","160","4","CORN CROP","Right","200","160","4","NETTLE WEED","practice","2","1,2,3,4","160,156.43682430286077,164.16342089358596,179.19452442705673","4,3,2,1","NETTLE WEED,NETTLE WEED,NETTLE WEED,NETTLE WEED","160,145.83929687442836,166.57192375561908,211.06260238110286","4,3,2,1","CORN CROP,CORN CROP,CORN CROP,CORN CROP","0,0,0,0","20,20,20,20","10,10,10,10","20,20,20,20","20,20,20,20","20,20,20,20","0,0,0,0","20,20,20,20","10,10,10,10","20,20,20,20","20,20,20,20","20,20,20,20","0,0,1,0","2980,1196,2600,1367","-3.5631756971392297,7.726596590725201,15.03110353347077,-6.981188378641479","-14.16070312557165,20.732626881190733,44.49067862548377,15.802448626036698","0","0"
"678","86","text","0","6","106632","0-0","","","","","","","","","","","","","","","","","","","","","","","","","","","","","","","","","","","","",""
"","","plant-game","0","7","128214","0-0","","200","180","2","WHEAT CROP","Left","200","180","2","THISTLE WEED","practice","3","1,2","180,166.637042140741","2,1","WHEAT CROP,WHEAT CROP","180,208.2249630190824","2,1","THISTLE WEED,THISTLE WEED","20,20","20,20","10,10","20,20","0,0","20,20","20,20","20,20","10,10","20,20","0,0","20,20","1,1","5095,2428","-13.362957859259001,-10.648458283852921","28.22496301908241,17.856017604797234","0","0"
"874","86","text","0","8","129238","0-0","","","","","","","","","","","","","","","","","","","","","","","","","","","","","","","","","","","","",""
"","","plant-game","0","9","153157","0-0","","200","190","1","CORN CROP","Right","200","190","1","NETTLE WEED","practice","4","1","190","1","NETTLE WEED","190","1","CORN CROP","0","20","10","20","20","20","0","20","10","20","20","20","1","11755","-18.440156774436133","48.63341792082727","0","0"
"921","86","text","0","10","154268","0-0","","","","","","","","","","","","","","","","","","","","","","","","","","","","","","","","","","","","",""
"","","plant-game","0","11","188132","0-0","","200","120","8","CORN CROP","Left","200","160","8","THISTLE WEED","practice","5","1,2,3,4,5,6,7,8","120,147.67451891666752,173.29302762182553,202.3391876488359,218.9447058877849,199.82983963642292,184.4516258835531,170.35323878095951","8,7,6,5,4,3,2,1","CORN CROP,CORN CROP,CORN CROP,CORN CROP,CORN CROP,CORN CROP,CORN CROP,CORN CROP","160,201.81197088524368,261.04999247720053,257.35411406897674,265.7207646890393,243.64852717194032,236.44300250958,226.9317544186979","8,7,6,5,4,3,2,1","THISTLE WEED,THISTLE WEED,THISTLE WEED,THISTLE WEED,THISTLE WEED,THISTLE WEED,THISTLE WEED,THISTLE WEED","20,20,20,20,20,20,20,20","20,20,20,20,20,20,20,20","10,10,10,10,10,10,10,10","20,20,20,20,20,20,20,20","0,0,0,0,0,0,0,0","20,20,20,20,20,20,20,20","20,20,20,20,20,20,20,20","20,20,20,20,20,20,20,20","10,10,10,10,10,10,10,10","20,20,20,20,20,20,20,20","0,0,0,0,0,0,0,0","20,20,20,20,20,20,20,20","0,0,0,1,1,1,1,1","1134,1200,2550,2294,930,605,1432,1234","27.674518916667523,25.618508705158018,29.046160027010373,16.605518238948996,-19.11486625136197,-15.378213752869822,-14.098387102593597,-8.570728773596109","41.81197088524367,59.238021591956866,-3.69587840822377,8.366650620062565,-22.072237517098987,-7.205524662360317,-9.511248090882091,-18.092752962791884","0","0"
"695","86","text","0","12","188987","0-0","","","","","","","","","","","","","","","","","","","","","","","","","","","","","","","","","","","","",""
"","","plant-game","0","13","213575","0-0","","200","180","4","CORN CROP","Right","200","160","4","THISTLE WEED","practice","6","1,2,3,4","160,191.55228306794683,173.95400816131956,168.72045770088386","4,3,2,1","THISTLE WEED,THISTLE WEED,THISTLE WEED,THISTLE WEED","180,190.6087172071562,165.82996172129808,169.91226138014528","4,3,2,1","CORN CROP,CORN CROP,CORN CROP,CORN CROP","0,0,0,0","20,20,20,20","10,10,10,10","20,20,20,20","20,20,20,20","20,20,20,20","0,0,0,0","20,20,20,20","10,10,10,10","20,20,20,20","20,20,20,20","20,20,20,20","1,0,1,1","4016,2621,2579,908","31.55228306794683,-17.59827490662727,-5.233550460435723,32.145934267172024","10.608717207156204,-24.778755485858113,4.082299658847193,14.411275795833465","0","0"
"660","86","text","0","14","214376","0-0","","","","","","","","","","","","","","","","","","","","","","","","","","","","","","","","","","","","",""
"","","plant-game","0","15","227725","0-0","","200","180","2","CORN CROP","Right","200","190","2","THISTLE WEED","practice","7","1,2","190,206.17731149314244","2,1","THISTLE WEED,THISTLE WEED","180,169.39783627068635","2,1","CORN CROP,CORN CROP","0,0","20,20","10,10","20,20","20,20","20,20","0,0","20,20","10,10","20,20","20,20","20,20","0,0","2470,1179","16.177311493142437,34.17220524803823","-10.60216372931363,-8.3645081749341","0","0"
"1082","86","text","0","16","228887","0-0","","","","","","","","","","","","","","","","","","","","","","","","","","","","","","","","","","","","",""
"","","plant-game","0","17","264522","0-0","","200","120","4","WHEAT CROP","Right","200","120","8","NETTLE WEED","practice","8","1,2,3,4,5,6,7,8","120,132.2541918481264,149.79903147534506,138.88523490696184,136.30862844566445,140.60934737222675,169.43590938449964,182.9334571006362","8,7,6,5,4,3,2,1","NETTLE WEED,NETTLE WEED,NETTLE WEED,NETTLE WEED,NETTLE WEED,NETTLE WEED,NETTLE WEED,NETTLE WEED","120,131.14820919042614,192.09307466731275,220.31981895090235,160,199.8462529918275,231.66439153063283,258.0383384597895","4,3,2,1,4,3,2,1","WHEAT CROP,WHEAT CROP,WHEAT CROP,WHEAT CROP,CORN CROP,CORN CROP,CORN CROP,CORN CROP","0,0,0,0,0,0,0,0","20,20,20,20,20,20,20,20","10,10,10,10,10,10,10,10","20,20,20,20,20,20,20,20","20,20,20,20,20,20,20,20","20,20,20,20,20,20,20,20","0,0,0,0,0,0,0,0","20,20,20,20,20,20,20,20","10,10,10,10,10,10,10,10","20,20,20,20,20,20,20,20","20,20,20,20,20,20,20,20","20,20,20,20,20,20,20,20","1,1,1,1,1,1,1,1","2040,739,1408,1392,4738,1589,1130,1129","12.254191848126402,17.544839627218664,-10.91379656838322,-2.576606461297395,4.3007189265623005,28.82656201227289,13.497547716136557,37.22328696937957","11.148209190426147,60.944865476886605,28.226744283589596,1.6481712042398229,39.84625299182751,31.81813853880533,26.373946929156652,38.86451821644948","0","0"
"500","86","text","0","18","265122","0-0","","","","","","","","","","","","","","","","","","","","","","","","","","","","","","","","","","","","",""
"","","plant-game","0","19","296906","0-0","","200","160","4","CORN CROP","Left","200","160","2","NETTLE WEED","practice","9","1,2,3,4","160,180.64901044876325,200.2226903127206,222.32461689688427","4,3,2,1","CORN CROP,CORN CROP,CORN CROP,CORN CROP","160,176.98275129507556,180,172.59790022570328","2,1,2,1","NETTLE WEED,NETTLE WEED,THISTLE WEED,THISTLE WEED","20,20,20,20","20,20,20,20","10,10,10,10","20,20,20,20","0,0,0,0","20,20,20,20","20,20,20,20","20,20,20,20","10,10,10,10","20,20,20,20","0,0,0,0","20,20,20,20","0,0,1,1","2190,709,6162,701","20.64901044876324,19.57367986395736,22.101926584163657,-16.639218834501403","16.98275129507557,2.4374113159102286,-7.402099774296712,32.675240894945546","0","0"
"614","86","text","0","20","297660","0-0","","","","","","","","","","","","","","","","","","","","","","","","","","","","","","","","","","","","",""
"","","plant-game","0","21","327244","0-0","","200","180","2","CORN CROP","Right","200","180","1","NETTLE WEED","practice","10","1,2","180,190","1,1","NETTLE WEED,THISTLE WEED","180,178.69768429864902","2,1","CORN CROP,CORN CROP","0,0","20,20","10,10","20,20","20,20","20,20","0,0","20,20","10,10","20,20","20,20","20,20","0,1","6109,4579","-1.5334871225214233,1.9169571525366251","-1.3023157013509692,5.013415792666237","0","0"
"649","86","text","0","22","328049","0-0","","","","","","","","","","","","","","","","","","","","","","","","","","","","","","","","","","","","",""
"","","plant-game","0","23","355871","0-0","","200","120","8","WHEAT CROP","Right","200","160","4","THISTLE WEED","practice","11","1,2,3,4,5,6,7,8","160,200.63982402629284,192.19046901025632,176.1609758823984,160,155.56853004987266,182.7711640305199,210.87423987394453","4,3,2,1,4,3,2,1","THISTLE WEED,THISTLE WEED,THISTLE WEED,THISTLE WEED,NETTLE WEED,NETTLE WEED,NETTLE WEED,NETTLE WEED","120,105.33937049392118,123.2308535481012,157.8476186764222,157.77264849192053,182.96411884790456,178.06090281002614,198.3187094686873","8,7,6,5,4,3,2,1","WHEAT CROP,WHEAT CROP,WHEAT CROP,WHEAT CROP,WHEAT CROP,WHEAT CROP,WHEAT CROP,WHEAT CROP","0,0,0,0,0,0,0,0","20,20,20,20,20,20,20,20","10,10,10,10,10,10,10,10","20,20,20,20,20,20,20,20","20,20,20,20,20,20,20,20","20,20,20,20,20,20,20,20","0,0,0,0,0,0,0,0","20,20,20,20,20,20,20,20","10,10,10,10,10,10,10,10","20,20,20,20,20,20,20,20","20,20,20,20,20,20,20,20","20,20,20,20,20,20,20,20","0,0,0,0,1,1,1,1","4497,1874,451,369,1379,689,843,1158","40.63982402629286,-8.449355016036534,-16.029493127857933,4.014168425104318,-4.431469950127351,27.202633980647235,28.103075843424605,25.163762797849813","-14.660629506078823,17.891483054180014,34.61676512832101,-0.0749701845016682,25.191470355984016,-4.903216037878412,20.257806658661156,30.08960538759801","0","0"
"647","86","text","0","24","356728","0-0","","","","","","","","","","","","","","","","","","","","","","","","","","","","","","","","","","","","",""
"","","plant-game","0","25","382899","0-0","","200","180","2","WHEAT CROP","Left","200","160","4","NETTLE WEED","practice","12","1,2,3,4","180,215.24559033448338,180,194.77211729264744","2,1,2,1","WHEAT CROP,WHEAT CROP,CORN CROP,CORN CROP","160,180.6191952137303,174.4946709687349,182.36955056341566","4,3,2,1","NETTLE WEED,NETTLE WEED,NETTLE WEED,NETTLE WEED","20,20,20,20","20,20,20,20","10,10,10,10","20,20,20,20","0,0,0,0","20,20,20,20","20,20,20,20","20,20,20,20","10,10,10,10","20,20,20,20","0,0,0,0","20,20,20,20","1,0,1,1","2838,1486,1647,760","35.24559033448338,81.86700196445085,14.772117292647424,-2.3453307244040253","20.61919521373031,-6.124524244995413,7.874879594680736,-31.45952112590326","0","0"
"3785","86","text","0","26","386794","0-0","","","","","","","","","","","","","","","","","","","","","","","","","","","","","","","","","","","","",""
"10587","86","text","0","27","398529","0-0","","","","","","","","","","","","","","","","","","","","","","","","","","","","","","","","","","","","",""
"","","plant-game","0","28","420587","0-0","","200","180","8","CORN CROP","Right","200","180","4","NETTLE WEED","experimental","1","1,2,3,4,5,6,7,8","180,205.88292236677205,214.55690093573045,227.9676147470162,160,177.58301133113235,143.5725744876668,122.98139547728127","4,3,2,1,4,3,2,1","NETTLE WEED,NETTLE WEED,NETTLE WEED,NETTLE WEED,THISTLE WEED,THISTLE WEED,THISTLE WEED,THISTLE WEED","180,190.111096912363,183.83779212987102,204.65193799901334,227.79161307561395,236.27766990991483,213.33407431835352,243.04684775931878","8,7,6,5,4,3,2,1","CORN CROP,CORN CROP,CORN CROP,CORN CROP,CORN CROP,CORN CROP,CORN CROP,CORN CROP","0,0,0,0,0,0,0,0","20,20,20,20,20,20,20,20","10,10,10,10,10,10,10,10","20,20,20,20,20,20,20,20","20,20,20,20,20,20,20,20","20,20,20,20,20,20,20,20","0,0,0,0,0,0,0,0","20,20,20,20,20,20,20,20","10,10,10,10,10,10,10,10","20,20,20,20,20,20,20,20","20,20,20,20,20,20,20,20","20,20,20,20,20,20,20,20","0,0,0,1,0,0,0,0","5556,521,1299,820,3422,748,596,605","25.882922366772036,8.673978568958404,13.410713811285737,-9.427779203755293,17.583011331132358,-34.01043684346556,-20.591179010385538,28.247417725864143","10.111096912363006,-6.273304782491987,20.814145869142312,23.139675076600618,8.48605683430089,-22.94359559156131,29.712773440965258,-8.719055097167033","0","0"
"545","86","text","0","29","421252","0-0","","","","","","","","","","","","","","","","","","","","","","","","","","","","","","","","","","","","",""
"","","plant-game","0","30","436838","0-0","","200","160","2","WHEAT CROP","Right","200","190","1","THISTLE WEED","experimental","2","1,2","190,190","1,1","THISTLE WEED,NETTLE WEED","160,206.74544713440406","2,1","WHEAT CROP,WHEAT CROP","0,0","20,20","10,10","20,20","20,20","20,20","0,0","20,20","10,10","20,20","20,20","20,20","0,0","5245,1889","-17.433846718566333,-6.145847457076538","46.74544713440405,-43.47873128387535","0","0"
"718","86","text","0","31","437696","0-0","","","","","","","","","","","","","","","","","","","","","","","","","","","","","","","","","","","","",""
"","","plant-game","0","32","462103","0-0","","200","160","8","CORN CROP","Left","200","190","4","THISTLE WEED","experimental","3","1,2,3,4,5,6,7,8","160,225.26473596176655,232.19812262768787,255.63538110830524,256.7908477007218,258.89880102990946,253.49477223226845,210.75360450257566","8,7,6,5,4,3,2,1","CORN CROP,CORN CROP,CORN CROP,CORN CROP,CORN CROP,CORN CROP,CORN CROP,CORN CROP","190,180.28109727638105,180.25219554084333,183.7533388062053,160,175.2838420451466,134.6014032435964,129.52103962531103","4,3,2,1,4,3,2,1","THISTLE WEED,THISTLE WEED,THISTLE WEED,THISTLE WEED,NETTLE WEED,NETTLE WEED,NETTLE WEED,NETTLE WEED","20,20,20,20,20,20,20,20","20,20,20,20,20,20,20,20","10,10,10,10,10,10,10,10","20,20,20,20,20,20,20,20","0,0,0,0,0,0,0,0","20,20,20,20,20,20,20,20","20,20,20,20,20,20,20,20","20,20,20,20,20,20,20,20","10,10,10,10,10,10,10,10","20,20,20,20,20,20,20,20","0,0,0,0,0,0,0,0","20,20,20,20,20,20,20,20","1,1,1,1,1,1,1,0","4876,1121,664,539,6614,779,614,1931","65.26473596176655,6.933386665921311,23.43725848061736,1.1554665924165994,2.107953329187661,-5.404028797641029,-42.74116772969279,-22.783405857880716","-9.718902723618966,-0.028901735537729,3.5011432653619763,-17.865735710095766,15.283842045146592,-40.68243880155019,-5.080363618285354,9.113104539708978","0","0"
"475","86","text","0","33","462719","0-0","","","","","","","","","","","","","","","","","","","","","","","","","","","","","","","","","","","","",""
"","","plant-game","0","34","473351","0-0","","200","180","1","CORN CROP","Right","200","160","1","THISTLE WEED","experimental","4","1","160","1","THISTLE WEED","180","1","CORN CROP","0","20","10","20","20","20","0","20","10","20","20","20","1","6798","34.64333942278701","35.40901204169339","0","0"
"1077","86","text","0","35","474524","0-0","","","","","","","","","","","","","","","","","","","","","","","","","","","","","","","","","","","","",""
"","","plant-game","0","36","496802","0-0","","200","120","1","WHEAT CROP","Left","200","180","8","NETTLE WEED","experimental","5","1,2,3,4,5,6,7,8","120,130,94.47681807793698,99.79500017584672,140.55415966050265,133.2044416872561,160.27745232661542,169.5980388306918","1,7,6,5,4,3,2,1","WHEAT CROP,CORN CROP,CORN CROP,CORN CROP,CORN CROP,CORN CROP,CORN CROP,CORN CROP","180,196.56313343293735,228.83107896537985,234.93070491964434,264.58475143151503,259.7108756554086,284.2986323318835,285.4904340504973","8,7,6,5,4,3,2,1","NETTLE WEED,NETTLE WEED,NETTLE WEED,NETTLE WEED,NETTLE WEED,NETTLE WEED,NETTLE WEED,NETTLE WEED","20,20,20,20,20,20,20,20","20,20,20,20,20,20,20,20","10,10,10,10,10,10,10,10","20,20,20,20,20,20,20,20","0,0,0,0,0,0,0,0","20,20,20,20,20,20,20,20","20,20,20,20,20,20,20,20","20,20,20,20,20,20,20,20","10,10,10,10,10,10,10,10","20,20,20,20,20,20,20,20","0,0,0,0,0,0,0,0","20,20,20,20,20,20,20,20","1,1,1,0,0,0,0,0","7246,2576,498,932,591,1060,937,458","-24.721436500090782,-35.52318192206302,5.3181820979097445,40.75915948465591,-7.349717973246545,27.07301063935933,9.320586504076367,21.66843437654111","16.56313343293736,32.26794553244249,6.099625954264506,29.654046511870703,-4.873875776106466,24.587756676474875,1.1918017186138066,-19.27571751584655","0","0"
"555","86","text","0","37","497497","0-0","","","","","","","","","","","","","","","","","","","","","","","","","","","","","","","","","","","","",""
"","","plant-game","0","38","513346","0-0","","200","180","1","WHEAT CROP","Left","200","160","2","THISTLE WEED","experimental","6","1,2","180,190","1,1","WHEAT CROP,CORN CROP","160,165.97264609768646","2,1","THISTLE WEED,THISTLE WEED","20,20","20,20","10,10","20,20","0,0","20,20","20,20","20,20","10,10","20,20","0,0","20,20","0,0","4889,4530","26.428070667645397,-4.849585181365249","5.972646097686473,19.34029918424669","0","0"
"515","86","text","0","39","514011","0-0","","","","","","","","","","","","","","","","","","","","","","","","","","","","","","","","","","","","",""
"","","plant-game","0","40","534996","0-0","","200","120","1","CORN CROP","Right","200","120","8","THISTLE WEED","experimental","7","1,2,3,4,5,6,7,8","120,160.16179700796127,183.89517266859914,172.66979541920438,219.59367097373072,235.67573214244413,258.69819394015275,250.5918645260169","8,7,6,5,4,3,2,1","THISTLE WEED,THISTLE WEED,THISTLE WEED,THISTLE WEED,THISTLE WEED,THISTLE WEED,THISTLE WEED,THISTLE WEED","120,130,150.99212563642908,138.62282742050203,110.38639523371019,128.17839440542448,168.5153851809851,149.25750390323068","1,7,6,5,4,3,2,1","CORN CROP,WHEAT CROP,WHEAT CROP,WHEAT CROP,WHEAT CROP,WHEAT CROP,WHEAT CROP,WHEAT CROP","0,0,0,0,0,0,0,0","20,20,20,20,20,20,20,20","10,10,10,10,10,10,10,10","20,20,20,20,20,20,20,20","20,20,20,20,20,20,20,20","20,20,20,20,20,20,20,20","0,0,0,0,0,0,0,0","20,20,20,20,20,20,20,20","10,10,10,10,10,10,10,10","20,20,20,20,20,20,20,20","20,20,20,20,20,20,20,20","20,20,20,20,20,20,20,20","1,1,0,0,1,1,0,0","5088,5551,1509,481,785,327,434,300","40.161797007961276,23.733375660637886,-11.225377249394754,46.92387555452634,16.082061168713402,23.022461797708594,-8.106329414135844,2.8708970220166896","17.856379361640585,20.99212563642908,-12.36929821592705,-28.23643218679184,17.791999171714284,40.33699077556062,-19.257881277754425,-10.310218137757163","0","0"
"744","86","text","0","41","535850","0-0","","","","","","","","","","","","","","","","","","","","","","","","","","","","","","","","","","","","",""
"","","plant-game","0","42","551482","0-0","","200","190","4","CORN CROP","Left","200","180","1","THISTLE WEED","experimental","8","1,2,3,4","190,197.66258073175558,211.2390647565506,204.10247642703735","4,3,2,1","CORN CROP,CORN CROP,CORN CROP,CORN CROP","180,170,158.57992402395178,157.43799043458827","1,3,2,1","THISTLE WEED,NETTLE WEED,NETTLE WEED,NETTLE WEED","20,20,20,20","20,20,20,20","10,10,10,10","20,20,20,20","0,0,0,0","20,20,20,20","20,20,20,20","20,20,20,20","10,10,10,10","20,20,20,20","0,0,0,0","20,20,20,20","1,1,1,1","5111,3013,716,386","7.662580731755578,13.576484024795008,-7.136588329513246,-0.03338056573665046","31.79275116123194,-11.420075976048224,-1.1419335893635072,-28.37852191296441","0","0"
"981","86","text","0","43","552583","0-0","","","","","","","","","","","","","","","","","","","","","","","","","","","","","","","","","","","","",""
"","","plant-game","0","44","574017","0-0","","200","190","8","WHEAT CROP","Left","200","120","1","THISTLE WEED","experimental","9","1,2,3,4,5,6,7,8","190,213.24396094825713,210.59126507212244,217.49911634385234,229.01488976657234,268.05648619597395,288.63055899652943,289.8366479877867","8,7,6,5,4,3,2,1","WHEAT CROP,WHEAT CROP,WHEAT CROP,WHEAT CROP,WHEAT CROP,WHEAT CROP,WHEAT CROP,WHEAT CROP","120,130,110.6621967499916,101.52005150596739,79.77889926621435,56.77612433660663,53.0862517864001,37.349936705477106","1,7,6,5,4,3,2,1","THISTLE WEED,NETTLE WEED,NETTLE WEED,NETTLE WEED,NETTLE WEED,NETTLE WEED,NETTLE WEED,NETTLE WEED","20,20,20,20,20,20,20,20","20,20,20,20,20,20,20,20","10,10,10,10,10,10,10,10","20,20,20,20,20,20,20,20","0,0,0,0,0,0,0,0","20,20,20,20,20,20,20,20","20,20,20,20,20,20,20,20","20,20,20,20,20,20,20,20","10,10,10,10,10,10,10,10","20,20,20,20,20,20,20,20","0,0,0,0,0,0,0,0","20,20,20,20,20,20,20,20","1,1,1,1,1,1,1,1","7873,1852,878,685,535,562,501,454","23.243960948257126,-2.652695876134688,6.907851271729908,11.51577342272001,39.0415964294016,20.57407280055546,1.2060889912572688,3.154287400375748","38.34393214639916,-19.337803250008406,-9.142145244024206,-21.741152239753028,-23.002774929607725,-3.68987255020653,-15.736315080922989,-0.7720361349734007","0","0"
"548","86","text","0","45","574695","0-0","","","","","","","","","","","","","","","","","","","","","","","","","","","","","","","","","","","","",""
"","","plant-game","0","46","591652","0-0","","200","190","4","WHEAT CROP","Right","200","160","2","THISTLE WEED","experimental","10","1,2,3,4","160,148.05747580220967,180,205.5973267733537","2,1,2,1","THISTLE WEED,THISTLE WEED,NETTLE WEED,NETTLE WEED","190,167.53264082232323,165.8492603953755,175.4584865361471","4,3,2,1","WHEAT CROP,WHEAT CROP,WHEAT CROP,WHEAT CROP","0,0,0,0","20,20,20,20","10,10,10,10","20,20,20,20","20,20,20,20","20,20,20,20","0,0,0,0","20,20,20,20","10,10,10,10","20,20,20,20","20,20,20,20","20,20,20,20","0,0,1,1","7380,473,1078,753","-11.942524197790336,4.19471860526312,25.597326773353696,-11.676711922436741","-22.467359177676766,-1.6833804269477495,9.609226140771597,15.984487217038456","0","0"
"924","86","text","0","47","592688","0-0","","","","","","","","","","","","","","","","","","","","","","","","","","","","","","","","","","","","",""
"","","plant-game","0","48","606431","0-0","","200","160","8","CORN CROP","Right","200","180","8","NETTLE WEED","experimental","11","1,2,3,4,5,6,7,8","180,194.60979004213698,204.1761462522601,200.620522408068,212.34432404541164,207.76964846648062,218.52989717169487,232.61899195523796","8,7,6,5,4,3,2,1","NETTLE WEED,NETTLE WEED,NETTLE WEED,NETTLE WEED,NETTLE WEED,NETTLE WEED,NETTLE WEED,NETTLE WEED","160,159.07255816084103,189.36713656787197,192.3830368597969,191.0272836836959,159.5247722009215,175.26633046115435,166.39150096244998","8,7,6,5,4,3,2,1","CORN CROP,CORN CROP,CORN CROP,CORN CROP,CORN CROP,CORN CROP,CORN CROP,CORN CROP","0,0,0,0,0,0,0,0","20,20,20,20,20,20,20,20","10,10,10,10,10,10,10,10","20,20,20,20,20,20,20,20","20,20,20,20,20,20,20,20","20,20,20,20,20,20,20,20","0,0,0,0,0,0,0,0","20,20,20,20,20,20,20,20","10,10,10,10,10,10,10,10","20,20,20,20,20,20,20,20","20,20,20,20,20,20,20,20","20,20,20,20,20,20,20,20","1,1,1,0,0,0,0,1","4934,890,633,608,438,418,548,915","14.609790042136964,9.566356210123136,-3.5556238441921018,11.723801637343625,-4.574675578931028,10.760248705214256,14.089094783543095,19.883809690159172","-0.9274418391589805,30.29457840703095,3.015900291924943,-1.3557531761009847,-31.50251148277443,15.741558260232871,-8.874829498704361,13.6964296980221","0","0"
"533","86","text","0","49","607044","0-0","","","","","","","","","","","","","","","","","","","","","","","","","","","","","","","","","","","","",""
"","","plant-game","0","50","621865","0-0","","200","180","8","WHEAT CROP","Right","200","190","8","NETTLE WEED","experimental","12","1,2,3,4,5,6,7,8","190,172.08091156376938,246.51006138161966,242.57015630901174,224.15418796002075,224.8743477406426,219.07446491547518,215.3574048899249","8,7,6,5,4,3,2,1","NETTLE WEED,NETTLE WEED,NETTLE WEED,NETTLE WEED,NETTLE WEED,NETTLE WEED,NETTLE WEED,NETTLE WEED","180,185.81740187165852,226.8943948934251,228.13148370540037,241.78260610878786,260.69596063049875,259.8421653536023,248.4813798334862","8,7,6,5,4,3,2,1","WHEAT CROP,WHEAT CROP,WHEAT CROP,WHEAT CROP,WHEAT CROP,WHEAT CROP,WHEAT CROP,WHEAT CROP","0,0,0,0,0,0,0,0","20,20,20,20,20,20,20,20","10,10,10,10,10,10,10,10","20,20,20,20,20,20,20,20","20,20,20,20,20,20,20,20","20,20,20,20,20,20,20,20","0,0,0,0,0,0,0,0","20,20,20,20,20,20,20,20","10,10,10,10,10,10,10,10","20,20,20,20,20,20,20,20","20,20,20,20,20,20,20,20","20,20,20,20,20,20,20,20","1,1,0,0,0,0,0,0","2645,704,2457,711,692,744,720,668","-17.91908843623063,74.42914981785027,-3.9399050726079405,-18.415968348990987,0.720159780621846,-5.799882825167436,-3.717060025550267,-18.025845719920902","5.817401871658529,41.07699302176657,1.2370888119752663,13.65112240338748,18.913354521710904,-0.853795276896423,-11.360785520116103,8.046692976961792","0","0"
"710","86","text","0","51","622685","0-0","","","","","","","","","","","","","","","","","","","","","","","","","","","","","","","","","","","","",""
"","","plant-game","0","52","640161","0-0","","200","160","1","WHEAT CROP","Right","200","160","4","THISTLE WEED","experimental","13","1,2,3,4","160,188.14309947312654,201.7912571566391,206.43134177897844","4,3,2,1","THISTLE WEED,THISTLE WEED,THISTLE WEED,THISTLE WEED","160,170,153.3766837414231,141.18173439169126","1,3,2,1","WHEAT CROP,CORN CROP,CORN CROP,CORN CROP","0,0,0,0","20,20,20,20","10,10,10,10","20,20,20,20","20,20,20,20","20,20,20,20","0,0,0,0","20,20,20,20","10,10,10,10","20,20,20,20","20,20,20,20","20,20,20,20","1,0,0,0","4714,2798,529,429","28.143099473126544,13.648157683512547,4.640084622339339,-4.377882741298715","15.812618837441546,-16.6233162585769,-12.194949349731834,-6.442511341985639","0","0"
"472","86","text","0","53","640723","0-0","","","","","","","","","","","","","","","","","","","","","","","","","","","","","","","","","","","","",""
"","","plant-game","0","54","652720","0-0","","200","190","4","CORN CROP","Right","200","120","4","NETTLE WEED","experimental","14","1,2,3,4","120,156.79740329522332,165.42553813658716,187.52026788967154","4,3,2,1","NETTLE WEED,NETTLE WEED,NETTLE WEED,NETTLE WEED","190,162.00411523899152,208.4063349863972,263.2621013324242","4,3,2,1","CORN CROP,CORN CROP,CORN CROP,CORN CROP","0,0,0,0","20,20,20,20","10,10,10,10","20,20,20,20","20,20,20,20","20,20,20,20","0,0,0,0","20,20,20,20","10,10,10,10","20,20,20,20","20,20,20,20","20,20,20,20","0,1,1,1","4550,1528,850,793","36.797403295223305,8.62813484136385,22.09472975308438,-17.793599742395635","-27.99588476100848,46.402219747405695,54.85576634602698,-11.504944200563557","0","0"
"504","86","text","0","55","653344","0-0","","","","","","","","","","","","","","","","","","","","","","","","","","","","","","","","","","","","",""
"","","plant-game","0","56","664080","0-0","","200","120","4","WHEAT CROP","Right","200","160","1","THISTLE WEED","experimental","15","1,2,3,4","160,170,199.79665917167688,222.49802367207306","1,3,2,1","THISTLE WEED,NETTLE WEED,NETTLE WEED,NETTLE WEED","120,164.1148226235398,162.4615627398262,163.40370629691117","4,3,2,1","WHEAT CROP,WHEAT CROP,WHEAT CROP,WHEAT CROP","0,0,0,0","20,20,20,20","10,10,10,10","20,20,20,20","20,20,20,20","20,20,20,20","0,0,0,0","20,20,20,20","10,10,10,10","20,20,20,20","20,20,20,20","20,20,20,20","1,1,1,1","2206,822,1123,512","-9.11442889821377,29.79665917167687,22.701364500396178,16.59751745035197","44.11482262353978,-1.653259883713588,0.9421435570849503,15.219709921868827","0","0"
"641","86","text","0","57","664886","0-0","","","","","","","","","","","","","","","","","","","","","","","","","","","","","","","","","","","","",""
"","","plant-game","0","58","673081","0-0","","200","120","1","WHEAT CROP","Right","200","160","1","NETTLE WEED","experimental","16","1","160","1","NETTLE WEED","120","1","WHEAT CROP","0","20","10","20","20","20","0","20","10","20","20","20","1","4029","14.682760497488005","-9.750012329268294","0","0"
"7809","86","text","0","59","681062","0-0","","","","","","","","","","","","","","","","","","","","","","","","","","","","","","","","","","","","",""
"","","plant-game","0","60","696353","0-0","","200","160","4","WHEAT CROP","Right","200","160","1","NETTLE WEED","experimental","17","1,2,3,4","160,170,209.53872634502946,227.98965655156468","1,3,2,1","NETTLE WEED,THISTLE WEED,THISTLE WEED,THISTLE WEED","160,169.00963887935796,181.3945899375787,201.33454168830434","4,3,2,1","WHEAT CROP,WHEAT CROP,WHEAT CROP,WHEAT CROP","0,0,0,0","20,20,20,20","10,10,10,10","20,20,20,20","20,20,20,20","20,20,20,20","0,0,0,0","20,20,20,20","10,10,10,10","20,20,20,20","20,20,20,20","20,20,20,20","1,1,0,1","5710,1325,1226,1131","1.1713087191240916,39.53872634502946,18.450930206535205,50.459211639811734","9.009638879357967,12.384951058220748,19.939951750725633,29.864920724995073","0","0"
"550","86","text","0","61","697023","0-0","","","","","","","","","","","","","","","","","","","","","","","","","","","","","","","","","","","","",""
"","","plant-game","0","62","713393","0-0","","200","180","8","CORN CROP","Right","200","180","2","THISTLE WEED","experimental","18","1,2,3,4,5,6,7,8","180,203.21272495674333,140,177.28643481985733,212.00223914308987,175.657647610933,173.73398402542304,175.50928780666047","2,1,6,5,4,3,2,1","THISTLE WEED,THISTLE WEED,NETTLE WEED,NETTLE WEED,NETTLE WEED,NETTLE WEED,NETTLE WEED,NETTLE WEED","180,184.03841370885874,175.47617816301215,159.83872577636362,179.66807233522954,174.674721459259,168.39722870288233,176.0553503518105","8,7,6,5,4,3,2,1","CORN CROP,CORN CROP,CORN CROP,CORN CROP,CORN CROP,CORN CROP,CORN CROP,CORN CROP","0,0,0,0,0,0,0,0","20,20,20,20,20,20,20,20","10,10,10,10,10,10,10,10","20,20,20,20,20,20,20,20","20,20,20,20,20,20,20,20","20,20,20,20,20,20,20,20","0,0,0,0,0,0,0,0","20,20,20,20,20,20,20,20","10,10,10,10,10,10,10,10","20,20,20,20,20,20,20,20","20,20,20,20,20,20,20,20","20,20,20,20,20,20,20,20","0,0,0,0,0,0,0,0","4303,734,2000,623,539,512,456,390","23.21272495674333,21.9759960114926,37.286434819857334,34.71580432323255,-36.344591532156876,-1.9236635855099613,1.7753037812374253,-17.792376349762385","4.038413708858732,-8.562235545846587,-15.637452386648532,19.82934655886591,-4.99335087597054,-6.2774927563766525,7.6581216489281525,9.942725722049751","0","0"
"479","86","text","0","63","713992","0-0","","","","","","","","","","","","","","","","","","","","","","","","","","","","","","","","","","","","",""
"","","plant-game","0","64","727453","0-0","","200","120","4","WHEAT CROP","Left","200","190","1","THISTLE WEED","experimental","19","1,2,3,4","120,81.1372779048331,85.75010336938621,120.2482078745646","4,3,2,1","WHEAT CROP,WHEAT CROP,WHEAT CROP,WHEAT CROP","190,170,201.66069877156266,226.55384126181912","1,3,2,1","THISTLE WEED,NETTLE WEED,NETTLE WEED,NETTLE WEED","20,20,20,20","20,20,20,20","10,10,10,10","20,20,20,20","0,0,0,0","20,20,20,20","20,20,20,20","20,20,20,20","10,10,10,10","20,20,20,20","0,0,0,0","20,20,20,20","1,0,0,0","3331,3431,499,451","-38.8627220951669,4.612825464553108,34.49810450517838,6.706690570850775","-11.649939338370805,31.660698771562657,24.89314249025646,5.548681682998204","0","0"
"211","86","text","0","65","727784","0-0","","","","","","","","","","","","","","","","","","","","","","","","","","","","","","","","","","","","",""
"","","plant-game","0","66","739347","0-0","","200","160","2","CORN CROP","Left","200","190","2","NETTLE WEED","experimental","20","1,2","160,188.34298874129624","2,1","CORN CROP,CORN CROP","190,227.64303075754617","2,1","NETTLE WEED,NETTLE WEED","20,20","20,20","10,10","20,20","0,0","20,20","20,20","20,20","10,10","20,20","0,0","20,20","0,0","7412,515","28.342988741296242,13.431611948961322","37.643030757546185,31.147262320219053","0","0"
"540","86","text","0","67","740067","0-0","","","","","","","","","","","","","","","","","","","","","","","","","","","","","","","","","","","","",""
"","","plant-game","0","68","746659","0-0","","200","120","2","WHEAT CROP","Right","200","180","2","THISTLE WEED","experimental","21","1,2","180,158.7717987456585","2,1","THISTLE WEED,THISTLE WEED","120,170.0563236238096","2,1","WHEAT CROP,WHEAT CROP","0,0","20,20","10,10","20,20","20,20","20,20","0,0","20,20","10,10","20,20","20,20","20,20","1,1","2584,351","-21.2282012543415,-15.53229763283506","50.056323623809604,46.928371064292236","0","0"
"794","86","text","0","69","747562","0-0","","","","","","","","","","","","","","","","","","","","","","","","","","","","","","","","","","","","",""
"","","plant-game","0","70","757268","0-0","","200","190","2","CORN CROP","Left","200","180","1","NETTLE WEED","experimental","22","1,2","190,189.33189002658926","2,1","CORN CROP,CORN CROP","180,190","1,1","NETTLE WEED,THISTLE WEED","20,20","20,20","10,10","20,20","0,0","20,20","20,20","20,20","10,10","20,20","0,0","20,20","1,1","3622,1008","-0.668109973410731,-39.05771515947099","8.964821338496042,-18.140529544594408","0","0"
"1020","86","text","0","71","758428","0-0","","","","","","","","","","","","","","","","","","","","","","","","","","","","","","","","","","","","",""
"","","plant-game","0","72","774134","0-0","","200","180","2","WHEAT CROP","Left","200","190","4","NETTLE WEED","experimental","23","1,2,3,4","180,143.3519969049089,180,153.03708730313338","2,1,2,1","WHEAT CROP,WHEAT CROP,CORN CROP,CORN CROP","190,209.54059798209033,256.6025815751089,259.8857482445743","4,3,2,1","NETTLE WEED,NETTLE WEED,NETTLE WEED,NETTLE WEED","20,20,20,20","20,20,20,20","10,10,10,10","20,20,20,20","0,0,0,0","20,20,20,20","20,20,20,20","20,20,20,20","10,10,10,10","20,20,20,20","0,0,0,0","20,20,20,20","1,1,1,1","5111,1980,2362,457","-36.6480030950911,-22.617730950062,-26.962912696866628,33.40764900355496","19.540597982090336,47.06198359301859,3.2831666694654245,-31.91275511339949","0","0"
"1147","86","text","0","73","775391","0-0","","","","","","","","","","","","","","","","","","","","","","","","","","","","","","","","","","","","",""
"","","plant-game","0","74","789376","0-0","","200","120","4","WHEAT CROP","Left","200","160","2","NETTLE WEED","experimental","24","1,2,3,4","120,129.03832253737826,121.97738695193055,153.3614464241042","4,3,2,1","WHEAT CROP,WHEAT CROP,WHEAT CROP,WHEAT CROP","160,166.83613336378104,180,166.49696684886865","2,1,2,1","NETTLE WEED,NETTLE WEED,THISTLE WEED,THISTLE WEED","20,20,20,20","20,20,20,20","10,10,10,10","20,20,20,20","0,0,0,0","20,20,20,20","20,20,20,20","20,20,20,20","10,10,10,10","20,20,20,20","0,0,0,0","20,20,20,20","1,1,1,1","3988,432,3231,363","9.038322537378265,-7.060935585447715,31.384059472173643,-11.401437969668681","6.8361333637810535,-56.62929134858345,-13.503033151131358,23.342916021331316","0","0"
"810","86","text","0","75","790279","0-0","","","","","","","","","","","","","","","","","","","","","","","","","","","","","","","","","","","","",""
"","","plant-game","0","76","804153","0-0","","200","160","1","CORN CROP","Right","200","190","8","THISTLE WEED","experimental","25","1,2,3,4,5,6,7,8","190,219.7552278741335,236.06766161080424,268.42084876891704,274.8770277922997,263.26608227959,261.6806431366215,264.86161054095004","8,7,6,5,4,3,2,1","THISTLE WEED,THISTLE WEED,THISTLE WEED,THISTLE WEED,THISTLE WEED,THISTLE WEED,THISTLE WEED,THISTLE WEED","160,130,165.18334218604622,188.19745115255967,213.3655589277874,219.59729213008399,202.0098715015028,179.4239421576528","1,7,6,5,4,3,2,1","CORN CROP,WHEAT CROP,WHEAT CROP,WHEAT CROP,WHEAT CROP,WHEAT CROP,WHEAT CROP,WHEAT CROP","0,0,0,0,0,0,0,0","20,20,20,20,20,20,20,20","10,10,10,10,10,10,10,10","20,20,20,20,20,20,20,20","20,20,20,20,20,20,20,20","20,20,20,20,20,20,20,20","0,0,0,0,0,0,0,0","20,20,20,20,20,20,20,20","10,10,10,10,10,10,10,10","20,20,20,20,20,20,20,20","20,20,20,20,20,20,20,20","20,20,20,20,20,20,20,20","1,1,1,1,0,0,0,0","2751,1238,451,376,1456,212,294,350","29.755227874133503,16.312433736670712,32.353187158112824,6.456179023382671,-11.610945512709673,-1.5854391429685348,3.1809674043285407,-16.040367260407674","11.381947155552265,35.18334218604622,23.014108966513437,25.16810777522771,6.231733202296603,-17.587420628581185,-22.585929343849998,-7.9476483316524575","0","0"
"584","86","text","0","77","804917","0-0","","","","","","","","","","","","","","","","","","","","","","","","","","","","","","","","","","","","",""
"","","plant-game","0","78","822381","0-0","","200","190","2","WHEAT CROP","Left","200","160","8","THISTLE WEED","experimental","26","1,2,3,4,5,6,7,8","190,151.6002262931579,140,122.47464341712352,140.17047179111702,163.45904455816657,184.06225440187544,198.9747548999091","2,1,6,5,4,3,2,1","WHEAT CROP,WHEAT CROP,CORN CROP,CORN CROP,CORN CROP,CORN CROP,CORN CROP,CORN CROP","160,146.94302045685794,138.17065906352406,156.23075134784048,182.00375535325998,176.79952705764546,165.06756719212078,151.99674523227202","8,7,6,5,4,3,2,1","THISTLE WEED,THISTLE WEED,THISTLE WEED,THISTLE WEED,THISTLE WEED,THISTLE WEED,THISTLE WEED,THISTLE WEED","20,20,20,20,20,20,20,20","20,20,20,20,20,20,20,20","10,10,10,10,10,10,10,10","20,20,20,20,20,20,20,20","0,0,0,0,0,0,0,0","20,20,20,20,20,20,20,20","20,20,20,20,20,20,20,20","20,20,20,20,20,20,20,20","10,10,10,10,10,10,10,10","20,20,20,20,20,20,20,20","0,0,0,0,0,0,0,0","20,20,20,20,20,20,20,20","1,1,1,1,1,1,1,1","4878,500,3276,443,601,532,466,397","-38.3997737068421,21.38125928857226,-17.52535658287648,17.69582837399351,23.288572767049548,20.603209843708864,14.912500498033662,-2.1095573600549136","-13.05697954314205,-8.77236139333387,18.060092284316415,25.77300400541948,-5.204228295614504,-11.731959865524681,-13.070821959848757,1.9704966370228607","0","0"
"863","86","text","0","79","823353","0-0","","","","","","","","","","","","","","","","","","","","","","","","","","","","","","","","","","","","",""
"","","plant-game","0","80","829872","0-0","","200","190","1","WHEAT CROP","Right","200","180","1","THISTLE WEED","experimental","27","1","180","1","THISTLE WEED","190","1","WHEAT CROP","0","20","10","20","20","20","0","20","10","20","20","20","0","3050","11.164127015238597","0.19124803817515915","0","0"
"548","86","text","0","81","830623","0-0","","","","","","","","","","","","","","","","","","","","","","","","","","","","","","","","","","","","",""
"","","plant-game","0","82","845201","0-0","","200","120","4","WHEAT CROP","Right","200","180","2","NETTLE WEED","experimental","28","1,2,3,4","180,194.9440778988542,180,204.06043677764902","2,1,2,1","NETTLE WEED,NETTLE WEED,THISTLE WEED,THISTLE WEED","120,136.20142724574023,105.11707788834451,124.55485048314355","4,3,2,1","WHEAT CROP,WHEAT CROP,WHEAT CROP,WHEAT CROP","0,0,0,0","20,20,20,20","10,10,10,10","20,20,20,20","20,20,20,20","20,20,20,20","0,0,0,0","20,20,20,20","10,10,10,10","20,20,20,20","20,20,20,20","20,20,20,20","1,0,1,1","4607,1459,973,540","14.944077898854204,5.854950101031216,24.060436777649016,28.47440487313299","16.201427245740227,-31.08434935739573,19.43777259479905,12.967494690121303","0","0"
"600","86","text","0","83","845951","0-0","","","","","","","","","","","","","","","","","","","","","","","","","","","","","","","","","","","","",""
"","","plant-game","0","84","870632","0-0","","200","120","2","WHEAT CROP","Left","200","120","1","THISTLE WEED","experimental","29","1,2","120,117.86451048792074","2,1","WHEAT CROP,WHEAT CROP","120,190","1,1","THISTLE WEED,NETTLE WEED","20,20","20,20","10,10","20,20","0,0","20,20","20,20","20,20","10,10","20,20","0,0","20,20","0,1","15132,3667","-2.1354895120792534,-19.722919179329704","59.90552181121161,-9.49552003676238","0","0"
"485","86","text","0","85","871273","0-0","","","","","","","","","","","","","","","","","","","","","","","","","","","","","","","","","","","","",""
"","","plant-game","0","86","883963","0-0","","200","160","1","CORN CROP","Left","200","120","2","NETTLE WEED","experimental","30","1,2","160,190","1,1","CORN CROP,WHEAT CROP","120,145.82181572760712","2,1","NETTLE WEED,NETTLE WEED","20,20","20,20","10,10","20,20","0,0","20,20","20,20","20,20","10,10","20,20","0,0","20,20","0,0","5854,1590","-19.33279346578201,-13.839148897110448","25.82181572760712,45.29560670349096","0","0"
"545","86","text","0","87","884648","0-0","","","","","","","","","","","","","","","","","","","","","","","","","","","","","","","","","","","","",""
"","","plant-game","0","88","895230","0-0","","200","180","2","CORN CROP","Right","200","180","4","NETTLE WEED","experimental","31","1,2,3,4","180,146.77483012530627,132.73036102314842,135.77891809568953","4,3,2,1","NETTLE WEED,NETTLE WEED,NETTLE WEED,NETTLE WEED","180,184.70189701187797,180,162.73458896280928","2,1,2,1","CORN CROP,CORN CROP,WHEAT CROP,WHEAT CROP","0,0,0,0","20,20,20,20","10,10,10,10","20,20,20,20","20,20,20,20","20,20,20,20","0,0,0,0","20,20,20,20","10,10,10,10","20,20,20,20","20,20,20,20","20,20,20,20","0,0,0,0","3081,425,1714,446","-33.22516987469372,-14.044469102157835,3.048557072541106,13.33310931082728","4.701897011877976,31.942039621023994,-17.265411037190713,-4.223218522798053","0","0"
"1506","86","text","0","89","896866","0-0","","","","","","","","","","","","","","","","","","","","","","","","","","","","","","","","","","","","",""
"","","plant-game","0","90","914436","0-0","","200","160","8","WHEAT CROP","Right","200","160","1","NETTLE WEED","experimental","32","1,2,3,4,5,6,7,8","160,130,131.18453736709836,78.23957086672866,119.480079289402,91.59318212543783,78.34987408361711,90.52971703727235","1,7,6,5,4,3,2,1","NETTLE WEED,THISTLE WEED,THISTLE WEED,THISTLE WEED,THISTLE WEED,THISTLE WEED,THISTLE WEED,THISTLE WEED","160,145.3198305321294,154.12286006416073,125.38715930621561,130.0879590210038,150.62899591462102,129.2420117652411,134.3919370949956","8,7,6,5,4,3,2,1","WHEAT CROP,WHEAT CROP,WHEAT CROP,WHEAT CROP,WHEAT CROP,WHEAT CROP,WHEAT CROP,WHEAT CROP","0,0,0,0,0,0,0,0","20,20,20,20,20,20,20,20","10,10,10,10,10,10,10,10","20,20,20,20,20,20,20,20","20,20,20,20,20,20,20,20","20,20,20,20,20,20,20,20","0,0,0,0,0,0,0,0","20,20,20,20,20,20,20,20","10,10,10,10,10,10,10,10","20,20,20,20,20,20,20,20","20,20,20,20,20,20,20,20","20,20,20,20,20,20,20,20","0,0,0,0,0,0,0,0","5046,1680,402,444,398,395,379,374","-27.19322090424276,1.184537367098357,-52.944966500369695,41.240508422673344,-27.886897163964157,-13.243308041820725,12.179842953655236,4.105080031663944","-14.68016946787061,8.803029532031326,-28.735700757945132,4.700799714788177,20.54103689361723,-21.386984149379913,5.149925329754483,9.684943976212859","2","0"
"2560","86","text","0","91","917074","0-0","","","","","","","","","","","","","","","","","","","","","","","","","","","","","","","","","","","","",""
"","","plant-game","0","92","933393","0-0","","200","160","2","WHEAT CROP","Left","200","160","1","THISTLE WEED","experimental","33","1,2","160,207.46829313006054","2,1","WHEAT CROP,WHEAT CROP","160,190","1,1","THISTLE WEED,NETTLE WEED","20,20","20,20","10,10","20,20","0,0","20,20","20,20","20,20","10,10","20,20","0,0","20,20","0,1","4839,4852","47.46829313006056,12.193068974285893","6.075482271134952,26.151132953159735","0","0"
"533","86","text","0","93","934076","0-0","","","","","","","","","","","","","","","","","","","","","","","","","","","","","","","","","","","","",""
"","","plant-game","0","94","945999","0-0","","200","180","2","WHEAT CROP","Right","200","120","1","THISTLE WEED","experimental","34","1,2","120,190","1,1","THISTLE WEED,NETTLE WEED","180,163.64554317454412","2,1","WHEAT CROP,WHEAT CROP","0,0","20,20","10,10","20,20","20,20","20,20","0,0","20,20","10,10","20,20","20,20","20,20","0,1","3047,2497","20.768637777492,-15.626865055001112","-16.354456825455898,-5.352448640262573","0","0"
"288","86","text","0","95","946367","0-0","","","","","","","","","","","","","","","","","","","","","","","","","","","","","","","","","","","","",""
"","","plant-game","0","96","964602","0-0","","200","120","8","CORN CROP","Right","200","160","4","NETTLE WEED","experimental","35","1,2,3,4,5,6,7,8","160,168.54361114736187,168.77399400019024,198.8935356284879,160,193.8545961344837,210.75503529550602,221.494930494151","4,3,2,1,4,3,2,1","NETTLE WEED,NETTLE WEED,NETTLE WEED,NETTLE WEED,THISTLE WEED,THISTLE WEED,THISTLE WEED,THISTLE WEED","120,142.53196620603592,203.31243048081978,178.3818759128358,167.35162394583256,186.45112136817218,169.7818688410217,178.19694107354553","8,7,6,5,4,3,2,1","CORN CROP,CORN CROP,CORN CROP,CORN CROP,CORN CROP,CORN CROP,CORN CROP,CORN CROP","0,0,0,0,0,0,0,0","20,20,20,20,20,20,20,20","10,10,10,10,10,10,10,10","20,20,20,20,20,20,20,20","20,20,20,20,20,20,20,20","20,20,20,20,20,20,20,20","0,0,0,0,0,0,0,0","20,20,20,20,20,20,20,20","10,10,10,10,10,10,10,10","20,20,20,20,20,20,20,20","20,20,20,20,20,20,20,20","20,20,20,20,20,20,20,20","0,0,0,0,1,1,1,1","5604,374,998,901,953,471,698,472","8.54361114736186,0.23038285282836418,30.119541628297664,-9.222198607562126,33.854596134483714,16.900439161022312,10.739895198644966,15.503082596348447","22.531966206035904,60.78046427478385,-24.930554567983982,-11.030251967003238,19.099497422339635,-16.66925252715049,8.415072232523851,48.19716991266452","0","0"
"524","86","text","0","97","965266","0-0","","","","","","","","","","","","","","","","","","","","","","","","","","","","","","","","","","","","",""
"","","plant-game","0","98","981566","0-0","","200","190","8","CORN CROP","Left","200","160","2","THISTLE WEED","experimental","36","1,2,3,4,5,6,7,8","190,173.8594369080619,156.11427280363606,182.36693911151633,193.05847596571041,201.3632910872861,172.41002536429664,216.27944765333393","8,7,6,5,4,3,2,1","CORN CROP,CORN CROP,CORN CROP,CORN CROP,CORN CROP,CORN CROP,CORN CROP,CORN CROP","160,150.89060852489172,140,156.6850753795733,217.42671945217967,273.1988916130447,310.26204797582403,331.9126893520418","2,1,6,5,4,3,2,1","THISTLE WEED,THISTLE WEED,NETTLE WEED,NETTLE WEED,NETTLE WEED,NETTLE WEED,NETTLE WEED,NETTLE WEED","20,20,20,20,20,20,20,20","20,20,20,20,20,20,20,20","10,10,10,10,10,10,10,10","20,20,20,20,20,20,20,20","0,0,0,0,0,0,0,0","20,20,20,20,20,20,20,20","20,20,20,20,20,20,20,20","20,20,20,20,20,20,20,20","10,10,10,10,10,10,10,10","20,20,20,20,20,20,20,20","0,0,0,0,0,0,0,0","20,20,20,20,20,20,20,20","1,1,0,0,0,0,0,1","4121,433,1921,318,645,450,664,1429","-16.1405630919381,-17.745164104425836,26.25266630788026,10.691536854194075,8.304815121575658,-28.95326572298945,43.86942228903729,-4.540045381878212","-9.109391475108295,5.5268113388592885,16.685075379573313,60.74164407260635,55.77217216086504,37.06315636277937,21.650641376217788,16.67723280455505","0","0"
"680","86","text","0","99","982406","0-0","","","","","","","","","","","","","","","","","","","","","","","","","","","","","","","","","","","","",""
"","","plant-game","0","100","995503","0-0","","200","190","1","CORN CROP","Right","200","120","4","THISTLE WEED","experimental","37","1,2,3,4","120,94.76957612077769,98.10661965141068,98.67244340292882","4,3,2,1","THISTLE WEED,THISTLE WEED,THISTLE WEED,THISTLE WEED","190,170,188.94663381207965,212.99832110111603","1,3,2,1","CORN CROP,WHEAT CROP,WHEAT CROP,WHEAT CROP","0,0,0,0","20,20,20,20","10,10,10,10","20,20,20,20","20,20,20,20","20,20,20,20","0,0,0,0","20,20,20,20","10,10,10,10","20,20,20,20","20,20,20,20","20,20,20,20","0,1,1,1","3635,2732,343,535","-25.230423879222315,3.3370435306329895,0.5658237515181384,-18.635700848993636","-12.677051231083837,18.94663381207966,24.051687289036373,11.559650332721827","0","0"
"431","86","text","0","101","996071","0-0","","","","","","","","","","","","","","","","","","","","","","","","","","","","","","","","","","","","",""
"","","plant-game","0","102","1010572","0-0","","200","160","1","WHEAT CROP","Left","200","190","2","NETTLE WEED","experimental","38","1,2","160,190","1,1","WHEAT CROP,CORN CROP","190,237.33413214148993","2,1","NETTLE WEED,NETTLE WEED","20,20","20,20","10,10","20,20","0,0","20,20","20,20","20,20","10,10","20,20","0,0","20,20","0,1","3256,3822","5.381457387539751,-1.7291666339825071","47.334132141489945,-8.393868943130087","0","0"
"551","86","text","0","103","1011223","0-0","","","","","","","","","","","","","","","","","","","","","","","","","","","","","","","","","","","","",""
"","","plant-game","0","104","1021144","0-0","","200","190","8","CORN CROP","Right","200","180","8","THISTLE WEED","experimental","39","1,2,3,4,5,6,7,8","180,201.92461164851656,195.75831167689103,157.01506993008155,183.0535229273634,177.0955169365509,182.98909367799027,171.20432141729873","8,7,6,5,4,3,2,1","THISTLE WEED,THISTLE WEED,THISTLE WEED,THISTLE WEED,THISTLE WEED,THISTLE WEED,THISTLE WEED,THISTLE WEED","190,164.81339610196954,158.92619749399958,190.70677281468917,180.5514509370064,192.65928682591678,185.05126879851818,182.89246582266168","8,7,6,5,4,3,2,1","CORN CROP,CORN CROP,CORN CROP,CORN CROP,CORN CROP,CORN CROP,CORN CROP,CORN CROP","0,0,0,0,0,0,0,0","20,20,20,20,20,20,20,20","10,10,10,10,10,10,10,10","20,20,20,20,20,20,20,20","20,20,20,20,20,20,20,20","20,20,20,20,20,20,20,20","0,0,0,0,0,0,0,0","20,20,20,20,20,20,20,20","10,10,10,10,10,10,10,10","20,20,20,20,20,20,20,20","20,20,20,20,20,20,20,20","20,20,20,20,20,20,20,20","0,0,0,0,0,0,0,0","2602,617,371,432,412,309,384,334","21.924611648516567,-6.166299971625529,-38.74324174680947,26.03845299728183,-5.958005990812509,5.893576741439378,-11.784772260691527,-0.4025280478500959","-25.186603898030448,-5.88719860796996,31.780575320689604,-10.155321877682784,12.107835888910383,-7.608018027398612,-2.1588029758565024,-6.04839458255384","0","0"
"751","86","text","0","105","1022035","0-0","","","","","","","","","","","","","","","","","","","","","","","","","","","","","","","","","","","","",""
"","","plant-game","0","106","1034516","0-0","","200","180","4","WHEAT CROP","Left","200","120","1","NETTLE WEED","experimental","40","1,2,3,4","180,171.72291408674118,194.2738914092367,182.3452961932269","4,3,2,1","WHEAT CROP,WHEAT CROP,WHEAT CROP,WHEAT CROP","120,170,193.443022614973,189.8969553506457","1,3,2,1","NETTLE WEED,THISTLE WEED,THISTLE WEED,THISTLE WEED","20,20,20,20","20,20,20,20","10,10,10,10","20,20,20,20","0,0,0,0","20,20,20,20","20,20,20,20","20,20,20,20","10,10,10,10","20,20,20,20","0,0,0,0","20,20,20,20","1,1,1,1","4006,527,528,534","-8.27708591325883,22.550977322495534,-11.928595216009834,3.8012156405417024","-26.518167539657775,23.44302261497299,-3.5460672643272906,-33.076466129995076","0","0"
"628","86","text","0","107","1035315","0-0","","","","","","","","","","","","","","","","","","","","","","","","","","","","","","","","","","","","",""
"","","plant-game","0","108","1046592","0-0","","200","190","4","WHEAT CROP","Right","200","190","2","THISTLE WEED","experimental","41","1,2,3,4","190,198.69130501938577,180,174.40731360648635","2,1,2,1","THISTLE WEED,THISTLE WEED,NETTLE WEED,NETTLE WEED","190,137.41136584630613,128.29830480364924,136.97267035674972","4,3,2,1","WHEAT CROP,WHEAT CROP,WHEAT CROP,WHEAT CROP","0,0,0,0","20,20,20,20","10,10,10,10","20,20,20,20","20,20,20,20","20,20,20,20","0,0,0,0","20,20,20,20","10,10,10,10","20,20,20,20","20,20,20,20","20,20,20,20","0,0,0,0","3140,668,1319,470","8.69130501938576,-5.90991309858634,-5.592686393513642,4.924316546927091","-52.58863415369387,-9.113061042656884,8.674365553100476,-8.69431812943986","0","0"
"764","86","text","0","109","1047480","0-0","","","","","","","","","","","","","","","","","","","","","","","","","","","","","","","","","","","","",""
"","","plant-game","0","110","1055550","0-0","","200","120","2","CORN CROP","Left","200","190","2","NETTLE WEED","experimental","42","1,2","120,105.12552053688097","2,1","CORN CROP,CORN CROP","190,221.17105551330377","2,1","NETTLE WEED,NETTLE WEED","20,20","20,20","10,10","20,20","0,0","20,20","20,20","20,20","10,10","20,20","0,0","20,20","1,1","3422,479","-14.874479463119034,23.411445012355443","31.171055513303784,-18.137477653406503","0","0"
"571","86","text","0","111","1056304","0-0","","","","","","","","","","","","","","","","","","","","","","","","","","","","","","","","","","","","",""
"","","plant-game","0","112","1067496","0-0","","200","120","8","WHEAT CROP","Left","200","160","8","THISTLE WEED","experimental","43","1,2,3,4,5,6,7,8","120,139.18684780499376,166.25581377593306,162.81130860384374,175.00404140893795,231.79230281796646,209.1189416574809,238.98046218442596","8,7,6,5,4,3,2,1","WHEAT CROP,WHEAT CROP,WHEAT CROP,WHEAT CROP,WHEAT CROP,WHEAT CROP,WHEAT CROP,WHEAT CROP","160,169.86389628687013,192.5642584915942,200.8066929789794,200.5188374142582,231.10438055340728,234.75023715659376,235.5424187854507","8,7,6,5,4,3,2,1","THISTLE WEED,THISTLE WEED,THISTLE WEED,THISTLE WEED,THISTLE WEED,THISTLE WEED,THISTLE WEED,THISTLE WEED","20,20,20,20,20,20,20,20","20,20,20,20,20,20,20,20","10,10,10,10,10,10,10,10","20,20,20,20,20,20,20,20","0,0,0,0,0,0,0,0","20,20,20,20,20,20,20,20","20,20,20,20,20,20,20,20","20,20,20,20,20,20,20,20","10,10,10,10,10,10,10,10","20,20,20,20,20,20,20,20","0,0,0,0,0,0,0,0","20,20,20,20,20,20,20,20","0,0,0,0,0,1,1,1","1638,2509,640,462,420,648,390,430","19.18684780499376,27.068965970939306,-3.4445051720893325,12.192732805094222,56.78826140902849,-22.673361160485573,29.86152052694507,26.484618498266826","9.86389628687013,22.700362204724062,8.242434487385218,-0.2878555647212231,30.585543139149074,3.6458566031864628,0.7921816288569485,3.690722927352939","0","0"
"307","86","text","0","113","1067963","0-0","","","","","","","","","","","","","","","","","","","","","","","","","","","","","","","","","","","","",""
"","","plant-game","0","114","1084517","0-0","","200","160","8","CORN CROP","Right","200","120","2","THISTLE WEED","experimental","44","1,2,3,4,5,6,7,8","120,133.8588924822925,140,158.76143645048072,177.02748859219918,205.41901406769585,253.39083505083306,251.72754342477978","2,1,6,5,4,3,2,1","THISTLE WEED,THISTLE WEED,NETTLE WEED,NETTLE WEED,NETTLE WEED,NETTLE WEED,NETTLE WEED,NETTLE WEED","160,158.2305950290944,170.10508917723922,158.40030271710728,192.55155398192005,184.33354702250205,232.0319502756205,218.97338312706324","8,7,6,5,4,3,2,1","CORN CROP,CORN CROP,CORN CROP,CORN CROP,CORN CROP,CORN CROP,CORN CROP,CORN CROP","0,0,0,0,0,0,0,0","20,20,20,20,20,20,20,20","10,10,10,10,10,10,10,10","20,20,20,20,20,20,20,20","20,20,20,20,20,20,20,20","20,20,20,20,20,20,20,20","0,0,0,0,0,0,0,0","20,20,20,20,20,20,20,20","10,10,10,10,10,10,10,10","20,20,20,20,20,20,20,20","20,20,20,20,20,20,20,20","20,20,20,20,20,20,20,20","0,0,0,1,1,1,1,1","6517,334,793,625,701,547,583,439","13.858892482292493,-2.45862593232101,18.76143645048071,18.26605214171846,28.391525475496664,47.971820983137206,-1.663291626053276,41.68634087200063","-1.769404970905624,11.874494148144825,-11.704786460131945,34.15125126481277,-8.218006959418016,47.698403253118435,-13.058567148557252,-2.4941348745327794","0","0"
"492","86","text","0","115","1085157","0-0","","","","","","","","","","","","","","","","","","","","","","","","","","","","","","","","","","","","",""
"","","plant-game","0","116","1099584","0-0","","200","180","8","WHEAT CROP","Left","200","120","1","NETTLE WEED","experimental","45","1,2,3,4,5,6,7,8","180,210.1545472968462,245.54525058464014,281.6788495069867,302.1533920569501,324.28310576415424,321.7040490191741,351.8608237075977","8,7,6,5,4,3,2,1","WHEAT CROP,WHEAT CROP,WHEAT CROP,WHEAT CROP,WHEAT CROP,WHEAT CROP,WHEAT CROP,WHEAT CROP","120,130,168.0407106957398,157.5689900920794,170.26551783245154,211.5454455090963,217.04559599350551,190.48550488816915","1,7,6,5,4,3,2,1","NETTLE WEED,THISTLE WEED,THISTLE WEED,THISTLE WEED,THISTLE WEED,THISTLE WEED,THISTLE WEED,THISTLE WEED","20,20,20,20,20,20,20,20","20,20,20,20,20,20,20,20","10,10,10,10,10,10,10,10","20,20,20,20,20,20,20,20","0,0,0,0,0,0,0,0","20,20,20,20,20,20,20,20","20,20,20,20,20,20,20,20","20,20,20,20,20,20,20,20","10,10,10,10,10,10,10,10","20,20,20,20,20,20,20,20","0,0,0,0,0,0,0,0","20,20,20,20,20,20,20,20","0,0,0,0,0,1,1,1","1747,1426,926,501,483,679,501,691","30.154547296846207,35.39070328779394,36.13359892234657,20.474542549963434,22.12971370720414,-2.579056744980144,30.156774688423656,-0.8099700138786454","30.738717510916132,38.040710695739804,-10.471720603660405,12.696527740372147,41.279927676644775,5.500150484409211,-26.560091105336365,40.633778763577325","2","0"
"601","86","text","0","117","1100350","0-0","","","","","","","","","","","","","","","","","","","","","","","","","","","","","","","","","","","","",""
"","","plant-game","0","118","1111856","0-0","","200","190","1","WHEAT CROP","Left","200","160","8","THISTLE WEED","experimental","46","1,2,3,4,5,6,7,8","190,130,121.71097307216351,126.3067518527177,113.85064392226883,75.73909293744379,81.81801817048363,73.18073873481435","1,7,6,5,4,3,2,1","WHEAT CROP,CORN CROP,CORN CROP,CORN CROP,CORN CROP,CORN CROP,CORN CROP,CORN CROP","160,186.58585468201912,218.70570222987004,223.74954221502804,242.91553450131678,236.44122089473294,215.91866063873525,213.57070069977257","8,7,6,5,4,3,2,1","THISTLE WEED,THISTLE WEED,THISTLE WEED,THISTLE WEED,THISTLE WEED,THISTLE WEED,THISTLE WEED,THISTLE WEED","20,20,20,20,20,20,20,20","20,20,20,20,20,20,20,20","10,10,10,10,10,10,10,10","20,20,20,20,20,20,20,20","0,0,0,0,0,0,0,0","20,20,20,20,20,20,20,20","20,20,20,20,20,20,20,20","20,20,20,20,20,20,20,20","10,10,10,10,10,10,10,10","20,20,20,20,20,20,20,20","0,0,0,0,0,0,0,0","20,20,20,20,20,20,20,20","0,1,1,1,1,1,1,1","2518,1518,419,547,487,276,86,40","-49.04378503052553,-8.289026927836487,4.59577878055418,-12.456107930448868,-38.11155098482505,6.078925233039846,-8.637279435669274,11.481843718755924","26.585854682019125,32.11984754785094,5.043839985157997,19.16599228628873,-6.47431360658386,-20.522560255997693,-2.3479599389626853,78.77845635047797","0","0"
"516","86","text","0","119","1112462","0-0","","","","","","","","","","","","","","","","","","","","","","","","","","","","","","","","","","","","",""
"","","plant-game","0","120","1124590","0-0","","200","190","2","WHEAT CROP","Left","200","180","2","NETTLE WEED","experimental","47","1,2","190,226.26554319435903","2,1","WHEAT CROP,WHEAT CROP","180,212.56436634685758","2,1","NETTLE WEED,NETTLE WEED","20,20","20,20","10,10","20,20","0,0","20,20","20,20","20,20","10,10","20,20","0,0","20,20","0,1","5677,2799","36.265543194359026,1.9653595726645021","32.5643663468576,6.532483127983179","0","0"
"626","86","text","0","121","1125346","0-0","","","","","","","","","","","","","","","","","","","","","","","","","","","","","","","","","","","","",""
"","","plant-game","0","122","1137834","0-0","","200","190","1","WHEAT CROP","Left","200","160","4","THISTLE WEED","experimental","48","1,2,3,4","190,170,158.09065730628973,152.0254953227513","1,3,2,1","WHEAT CROP,CORN CROP,CORN CROP,CORN CROP","160,184.6220655026646,188.49792365284065,211.57239937706308","4,3,2,1","THISTLE WEED,THISTLE WEED,THISTLE WEED,THISTLE WEED","20,20,20,20","20,20,20,20","10,10,10,10","20,20,20,20","0,0,0,0","20,20,20,20","20,20,20,20","20,20,20,20","10,10,10,10","20,20,20,20","0,0,0,0","20,20,20,20","1,1,1,1","4042,2308,522,496","30.78829019457288,-11.90934269371027,-6.06516198353841,-6.636023326074656","24.622065502664615,3.8758581501760436,23.074475724222427,-20.589630349894847","0","0"
"657","86","text","0","123","1138651","0-0","","","","","","","","","","","","","","","","","","","","","","","","","","","","","","","","","","","","",""
"","","plant-game","0","124","1149930","0-0","","200","180","4","WHEAT CROP","Left","200","180","1","NETTLE WEED","experimental","49","1,2,3,4","180,211.3087325240678,219.44676839840224,248.07817685472193","4,3,2,1","WHEAT CROP,WHEAT CROP,WHEAT CROP,WHEAT CROP","180,170,159.25351884159244,144.68976019386565","1,3,2,1","NETTLE WEED,THISTLE WEED,THISTLE WEED,THISTLE WEED","20,20,20,20","20,20,20,20","10,10,10,10","20,20,20,20","0,0,0,0","20,20,20,20","20,20,20,20","20,20,20,20","10,10,10,10","20,20,20,20","0,0,0,0","20,20,20,20","0,1,1,1","2033,3103,379,328","31.308732524067793,8.138035874334422,28.631408456319697,7.770369241851381","5.88894628342671,-10.746481158407564,-14.563758647726777,-7.531211346949995","0","0"
"1111","86","text","0","125","1151161","0-0","","","","","","","","","","","","","","","","","","","","","","","","","","","","","","","","","","","","",""
"","","plant-game","0","126","1161740","0-0","","200","190","4","CORN CROP","Right","200","180","2","NETTLE WEED","experimental","50","1,2,3,4","180,202.38282450225472,180,145.59886384353462","2,1,2,1","NETTLE WEED,NETTLE WEED,THISTLE WEED,THISTLE WEED","190,203.69746235630546,203.06453963344342,202.7198874399635","4,3,2,1","CORN CROP,CORN CROP,CORN CROP,CORN CROP","0,0,0,0","20,20,20,20","10,10,10,10","20,20,20,20","20,20,20,20","20,20,20,20","0,0,0,0","20,20,20,20","10,10,10,10","20,20,20,20","20,20,20,20","20,20,20,20","0,0,0,0","3255,743,1075,540","22.382824502254707,-10.583236635410366,-34.401136156465384,12.045018416430203","13.697462356305472,-0.632922722862061,-0.34465219347992543,-0.34276772416020274","0","0"
"520","86","text","0","127","1162360","0-0","","","","","","","","","","","","","","","","","","","","","","","","","","","","","","","","","","","","",""
"","","plant-game","0","128","1174868","0-0","","200","190","2","CORN CROP","Right","200","190","8","NETTLE WEED","experimental","51","1,2,3,4,5,6,7,8","190,196.47452391913325,209.66128691066464,179.77364726195023,208.48570826125973,264.63345692665405,303.17933950915256,339.8950534339653","8,7,6,5,4,3,2,1","NETTLE WEED,NETTLE WEED,NETTLE WEED,NETTLE WEED,NETTLE WEED,NETTLE WEED,NETTLE WEED,NETTLE WEED","190,201.21469722859638,140,130.07013630529158,171.6431926527934,174.6594620584064,188.8648447222019,196.94664772014522","2,1,6,5,4,3,2,1","CORN CROP,CORN CROP,WHEAT CROP,WHEAT CROP,WHEAT CROP,WHEAT CROP,WHEAT CROP,WHEAT CROP","0,0,0,0,0,0,0,0","20,20,20,20,20,20,20,20","10,10,10,10,10,10,10,10","20,20,20,20,20,20,20,20","20,20,20,20,20,20,20,20","20,20,20,20,20,20,20,20","0,0,0,0,0,0,0,0","20,20,20,20,20,20,20,20","10,10,10,10,10,10,10,10","20,20,20,20,20,20,20,20","20,20,20,20,20,20,20,20","20,20,20,20,20,20,20,20","0,0,0,1,1,1,1,1","2078,1909,1034,644,428,321,246,253","6.474523919133244,13.186762991531399,-29.887639648714412,28.712060999309486,56.14774866539431,38.54588258249849,36.71571392481275,15.696567314642994","11.214697228596378,44.99603855641652,-9.929863694708427,41.573056347501804,3.0162694056130164,14.2053826637955,8.081802997943315,29.609127266792616","0","0"
"1647","86","text","0","129","1176629","0-0","","","","","","","","","","","","","","","","","","","","","","","","","","","","","","","","","","","","",""
"","","plant-game","0","130","1186416","0-0","","200","120","2","CORN CROP","Right","200","180","4","THISTLE WEED","experimental","52","1,2,3,4","180,162.06079182951606,152.61556541156378,177.2547022842342","4,3,2,1","THISTLE WEED,THISTLE WEED,THISTLE WEED,THISTLE WEED","120,168.8497889671711,180,219.86891588306906","2,1,2,1","CORN CROP,CORN CROP,WHEAT CROP,WHEAT CROP","0,0,0,0","20,20,20,20","10,10,10,10","20,20,20,20","20,20,20,20","20,20,20,20","0,0,0,0","20,20,20,20","10,10,10,10","20,20,20,20","20,20,20,20","20,20,20,20","1,1,1,1","2691,221,1155,325","-17.93920817048393,-9.445226417952291,24.639136872670434,3.482980702056345","48.84978896717109,15.227627919367503,39.86891588306908,5.23913243285557","0","0"
"1038","86","text","0","131","1187600","0-0","","","","","","","","","","","","","","","","","","","","","","","","","","","","","","","","","","","","",""
"","","plant-game","0","132","1199036","0-0","","200","120","8","CORN CROP","Right","200","180","4","NETTLE WEED","experimental","53","1,2,3,4,5,6,7,8","180,148.2425882504005,115.30075836769643,126.82556421314754,160,185.3790513675524,182.77898627840972,196.4892028293913","4,3,2,1,4,3,2,1","NETTLE WEED,NETTLE WEED,NETTLE WEED,NETTLE WEED,THISTLE WEED,THISTLE WEED,THISTLE WEED,THISTLE WEED","120,115.8446389725556,111.16274239452854,88.94914645255372,78.48952257417567,108.15533872292023,151.8707072299743,137.46031780893892","8,7,6,5,4,3,2,1","CORN CROP,CORN CROP,CORN CROP,CORN CROP,CORN CROP,CORN CROP,CORN CROP,CORN CROP","0,0,0,0,0,0,0,0","20,20,20,20,20,20,20,20","10,10,10,10,10,10,10,10","20,20,20,20,20,20,20,20","20,20,20,20,20,20,20,20","20,20,20,20,20,20,20,20","0,0,0,0,0,0,0,0","20,20,20,20,20,20,20,20","10,10,10,10,10,10,10,10","20,20,20,20,20,20,20,20","20,20,20,20,20,20,20,20","20,20,20,20,20,20,20,20","0,0,0,0,1,1,1,1","2691,292,517,488,724,134,361,286","-31.757411749599488,-32.94182988270408,11.524805845451107,23.41652595658793,25.3790513675524,-2.6000650891426815,13.710216550981578,35.61851711233249","-4.155361027444404,-4.681896578027058,-22.21359594197482,-10.459623878378059,29.665816148744568,43.71536850705405,-14.410389421035376,7.171053218754119","0","0"
"820","86","text","0","133","1199996","0-0","","","","","","","","","","","","","","","","","","","","","","","","","","","","","","","","","","","","",""
"","","plant-game","0","134","1207939","0-0","","200","120","2","WHEAT CROP","Right","200","180","1","NETTLE WEED","experimental","54","1,2","180,190","1,1","NETTLE WEED,THISTLE WEED","120,151.13471515721236","2,1","WHEAT CROP,WHEAT CROP","0,0","20,20","10,10","20,20","20,20","20,20","0,0","20,20","10,10","20,20","20,20","20,20","1,1","1984,727","29.81877490167386,63.544258735964554","31.134715157212355,7.073289769616178","0","0"
"1135","86","text","0","135","1209240","0-0","","","","","","","","","","","","","","","","","","","","","","","","","","","","","","","","","","","","",""
"","","plant-game","0","136","1226354","0-0","","200","190","4","WHEAT CROP","Left","200","180","8","THISTLE WEED","experimental","55","1,2,3,4,5,6,7,8","190,218.33233041776208,241.7843227171316,240.57923208378625,160,152.55660465429523,173.08094278115166,223.0185935478038","4,3,2,1,4,3,2,1","WHEAT CROP,WHEAT CROP,WHEAT CROP,WHEAT CROP,CORN CROP,CORN CROP,CORN CROP,CORN CROP","180,178.21105228098708,203.21722804275598,210.84189597782037,210.6943169203983,220.24850897063806,256.5863194273025,261.08836616036956","8,7,6,5,4,3,2,1","THISTLE WEED,THISTLE WEED,THISTLE WEED,THISTLE WEED,THISTLE WEED,THISTLE WEED,THISTLE WEED,THISTLE WEED","20,20,20,20,20,20,20,20","20,20,20,20,20,20,20,20","10,10,10,10,10,10,10,10","20,20,20,20,20,20,20,20","0,0,0,0,0,0,0,0","20,20,20,20,20,20,20,20","20,20,20,20,20,20,20,20","20,20,20,20,20,20,20,20","10,10,10,10,10,10,10,10","20,20,20,20,20,20,20,20","0,0,0,0,0,0,0,0","20,20,20,20,20,20,20,20","0,0,0,0,1,1,1,1","6286,1209,399,430,1075,180,1186,223","28.332330417762087,23.451992299369508,-1.2050906333453462,24.72946956162951,-7.443395345704777,20.524338126856424,49.93765076665213,-14.02115232049839","-1.78894771901291,25.006175761768905,7.624667935064387,-0.1475790574220639,9.554192050239735,36.33781045666445,4.5020467330670835,7.791684202907251","0","0"
"409","86","text","0","137","1226938","0-0","","","","","","","","","","","","","","","","","","","","","","","","","","","","","","","","","","","","",""
"","","plant-game","0","138","1239729","0-0","","200","120","2","WHEAT CROP","Right","200","120","8","NETTLE WEED","experimental","56","1,2,3,4,5,6,7,8","120,150.1275958740141,213.2999260635018,215.86655447795252,215.98103082563006,270.6855820270216,319.02302000317263,295.3154180714763","8,7,6,5,4,3,2,1","NETTLE WEED,NETTLE WEED,NETTLE WEED,NETTLE WEED,NETTLE WEED,NETTLE WEED,NETTLE WEED,NETTLE WEED","120,119.83504458741078,140,175.72714317808453,164.78639719843343,188.79603104085797,199.0714632350939,224.9687120119139","2,1,6,5,4,3,2,1","WHEAT CROP,WHEAT CROP,CORN CROP,CORN CROP,CORN CROP,CORN CROP,CORN CROP,CORN CROP","0,0,0,0,0,0,0,0","20,20,20,20,20,20,20,20","10,10,10,10,10,10,10,10","20,20,20,20,20,20,20,20","20,20,20,20,20,20,20,20","20,20,20,20,20,20,20,20","0,0,0,0,0,0,0,0","20,20,20,20,20,20,20,20","10,10,10,10,10,10,10,10","20,20,20,20,20,20,20,20","20,20,20,20,20,20,20,20","20,20,20,20,20,20,20,20","1,1,1,1,1,1,1,1","3120,339,2665,194,172,199,190,174","30.12759587401411,63.17233018948771,2.5666284144507117,0.11447634767753101,54.704551201391574,48.33743797615105,-23.707601931696303,9.679733924968744","-0.1649554125892152,50.63340546915625,35.727143178084546,-10.940745979651105,24.009633842424535,10.275432194235925,25.897248776820014,57.16721041383043","0","0"
"463","86","text","0","139","1240312","0-0","","","","","","","","","","","","","","","","","","","","","","","","","","","","","","","","","","","","",""
"","","plant-game","0","140","1251150","0-0","","200","160","2","CORN CROP","Right","200","120","8","THISTLE WEED","experimental","57","1,2,3,4,5,6,7,8","120,103.02654574305696,129.8148903880374,98.90970339859689,97.29365983710983,117.31756619508965,86.79416642856995,80.48578798079431","8,7,6,5,4,3,2,1","THISTLE WEED,THISTLE WEED,THISTLE WEED,THISTLE WEED,THISTLE WEED,THISTLE WEED,THISTLE WEED,THISTLE WEED","160,176.5736511546603,140,110.63866690458626,94.21078830358582,115.49685409259965,95.13937110311997,107.2724875649067","2,1,6,5,4,3,2,1","CORN CROP,CORN CROP,WHEAT CROP,WHEAT CROP,WHEAT CROP,WHEAT CROP,WHEAT CROP,WHEAT CROP","0,0,0,0,0,0,0,0","20,20,20,20,20,20,20,20","10,10,10,10,10,10,10,10","20,20,20,20,20,20,20,20","20,20,20,20,20,20,20,20","20,20,20,20,20,20,20,20","0,0,0,0,0,0,0,0","20,20,20,20,20,20,20,20","10,10,10,10,10,10,10,10","20,20,20,20,20,20,20,20","20,20,20,20,20,20,20,20","20,20,20,20,20,20,20,20","0,0,0,0,0,0,0,0","2317,476,1164,431,305,190,132,201","-16.973454256943043,26.78834464498045,-30.905186989440516,-1.616043561487054,20.023906357979826,-30.523399766519695,-6.3083784477756355,0.01860608647849501","16.573651154660304,-21.29609900257727,-29.361333095413737,-16.42787860100044,21.286065789013833,-20.35748298947967,12.133116461786722,-17.58805096927279","0","0"
"192","86","text","0","141","1251442","0-0","","","","","","","","","","","","","","","","","","","","","","","","","","","","","","","","","","","","",""
"","","plant-game","0","142","1263772","0-0","","200","160","2","CORN CROP","Left","200","120","4","NETTLE WEED","experimental","58","1,2,3,4","160,159.27599258441478,180,207.67318584076605","2,1,2,1","CORN CROP,CORN CROP,WHEAT CROP,WHEAT CROP","120,119.00747032123961,177.72907433495374,198.31500144118402","4,3,2,1","NETTLE WEED,NETTLE WEED,NETTLE WEED,NETTLE WEED","20,20,20,20","20,20,20,20","10,10,10,10","20,20,20,20","0,0,0,0","20,20,20,20","20,20,20,20","20,20,20,20","10,10,10,10","20,20,20,20","0,0,0,0","20,20,20,20","1,0,0,0","3553,1315,1584,970","-0.7240074155852234,-11.163652377610052,27.673185840766052,48.95248434829542","-0.9925296787603906,58.72160401371413,20.585927106230276,-18.10058088359657","0","0"
"254","86","text","0","143","1264083","0-0","","","","","","","","","","","","","","","","","","","","","","","","","","","","","","","","","","","","",""
"","","plant-game","0","144","1274434","0-0","","200","160","1","CORN CROP","Right","200","190","4","NETTLE WEED","experimental","59","1,2,3,4","190,211.45054877583425,218.5450385274204,250.55814025098","4,3,2,1","NETTLE WEED,NETTLE WEED,NETTLE WEED,NETTLE WEED","160,170,136.26411762847422,140.92584657598698","1,3,2,1","CORN CROP,WHEAT CROP,WHEAT CROP,WHEAT CROP","0,0,0,0","20,20,20,20","10,10,10,10","20,20,20,20","20,20,20,20","20,20,20,20","0,0,0,0","20,20,20,20","10,10,10,10","20,20,20,20","20,20,20,20","20,20,20,20","0,0,0,0","3350,1304,324,506","21.450548775834243,7.094489751586145,32.01310172355961,-17.29240937890459","2.750039448311669,-33.735882371525776,4.661728947512762,14.961527257526194","0","0"
"525","86","text","0","145","1275109","0-0","","","","","","","","","","","","","","","","","","","","","","","","","","","","","","","","","","","","",""
"","","plant-game","0","146","1283998","0-0","","200","120","2","WHEAT CROP","Right","200","160","1","NETTLE WEED","experimental","60","1,2","160,190","1,1","NETTLE WEED,THISTLE WEED","120,154.49032312711142","2,1","WHEAT CROP,WHEAT CROP","0,0","20,20","10,10","20,20","20,20","20,20","0,0","20,20","10,10","20,20","20,20","20,20","1,0","2026,1659","39.7786390209902,-15.373941927251263","34.49032312711141,-24.297386240530802","0","0"
"110","86","text","0","147","1284148","0-0","","","","","","","","","","","","","","","","","","","","","","","","","","","","","","","","","","","","",""
"","","plant-game","0","148","1296475","0-0","","200","180","4","CORN CROP","Left","200","180","8","THISTLE WEED","experimental","61","1,2,3,4,5,6,7,8","180,151.74614007399668,140.28088648535612,144.30148112253934,160,161.32403444834532,184.00142063391112,167.1107096779591","4,3,2,1,4,3,2,1","CORN CROP,CORN CROP,CORN CROP,CORN CROP,WHEAT CROP,WHEAT CROP,WHEAT CROP,WHEAT CROP","180,157.28855969482584,146.83716299187586,167.52118229193886,148.20643156290112,142.49670971762995,185.02579830057658,179.17382336009842","8,7,6,5,4,3,2,1","THISTLE WEED,THISTLE WEED,THISTLE WEED,THISTLE WEED,THISTLE WEED,THISTLE WEED,THISTLE WEED,THISTLE WEED","20,20,20,20,20,20,20,20","20,20,20,20,20,20,20,20","10,10,10,10,10,10,10,10","20,20,20,20,20,20,20,20","0,0,0,0,0,0,0,0","20,20,20,20,20,20,20,20","20,20,20,20,20,20,20,20","20,20,20,20,20,20,20,20","10,10,10,10,10,10,10,10","20,20,20,20,20,20,20,20","0,0,0,0,0,0,0,0","20,20,20,20,20,20,20,20","1,1,1,1,1,1,1,1","4039,396,369,316,576,356,605,404","-28.25385992600331,-11.46525358864055,4.020594637183214,11.418684431220125,1.3240344483453206,22.67738618556581,-16.89071095595201,-53.90203532499241","-22.71144030517416,-10.451396702949992,20.684019300062996,-19.31475072903773,-5.709721845271163,42.52908858294661,-5.851974940478161,-11.80090450046595","0","0"
"89","86","text","0","149","1296688","0-0","","","","","","","","","","","","","","","","","","","","","","","","","","","","","","","","","","","","",""
"","","plant-game","0","150","1309378","0-0","","200","120","2","CORN CROP","Right","200","160","4","NETTLE WEED","experimental","62","1,2,3,4","160,162.01150461911794,149.9738279143993,174.13453849417525","4,3,2,1","NETTLE WEED,NETTLE WEED,NETTLE WEED,NETTLE WEED","120,149.56757413839105,180,192.96734586818158","2,1,2,1","CORN CROP,CORN CROP,WHEAT CROP,WHEAT CROP","0,0,0,0","20,20,20,20","10,10,10,10","20,20,20,20","20,20,20,20","20,20,20,20","0,0,0,0","20,20,20,20","10,10,10,10","20,20,20,20","20,20,20,20","20,20,20,20","0,0,1,1","4203,434,2138,446","2.011504619117944,-12.037676704718654,24.16071057977595,10.604121112975944","29.567574138391063,-24.76286163960552,12.967345868181578,40.60699093695163","0","0"
"1114","86","text","0","151","1310652","0-0","","","","","","","","","","","","","","","","","","","","","","","","","","","","","","","","","","","","",""
"","","plant-game","0","152","1322941","0-0","","200","180","2","CORN CROP","Right","200","120","8","NETTLE WEED","experimental","63","1,2,3,4,5,6,7,8","120,151.38064719978493,162.3864110329757,168.08782708594242,207.02905465253107,197.15161967856108,195.54271080069734,203.46447132579647","8,7,6,5,4,3,2,1","NETTLE WEED,NETTLE WEED,NETTLE WEED,NETTLE WEED,NETTLE WEED,NETTLE WEED,NETTLE WEED,NETTLE WEED","180,219.21213493445052,140,177.69699513648362,222.77539101492735,201.55783369192727,184.24953101045114,193.7190503717205","2,1,6,5,4,3,2,1","CORN CROP,CORN CROP,WHEAT CROP,WHEAT CROP,WHEAT CROP,WHEAT CROP,WHEAT CROP,WHEAT CROP","0,0,0,0,0,0,0,0","20,20,20,20,20,20,20,20","10,10,10,10,10,10,10,10","20,20,20,20,20,20,20,20","20,20,20,20,20,20,20,20","20,20,20,20,20,20,20,20","0,0,0,0,0,0,0,0","20,20,20,20,20,20,20,20","10,10,10,10,10,10,10,10","20,20,20,20,20,20,20,20","20,20,20,20,20,20,20,20","20,20,20,20,20,20,20,20","1,0,1,1,0,0,1,0","1333,957,1351,573,715,979,724,490","31.38064719978493,11.005763833190763,5.70141605296671,38.94122756658866,-9.87743497396999,-1.608908877863737,7.921760525099122,1.6945678729946483","39.21213493445052,10.294915413513468,37.69699513648361,45.07839587844373,-21.217557323000072,-17.308302681476132,9.469519361269372,-3.7169615164752963","0","0"
"243","86","text","0","153","1323314","0-0","","","","","","","","","","","","","","","","","","","","","","","","","","","","","","","","","","","","",""
"","","plant-game","0","154","1331551","0-0","","200","120","4","WHEAT CROP","Left","200","190","4","NETTLE WEED","experimental","64","1,2,3,4","120,144.3898939845813,158.32939416626084,140.10598296779392","4,3,2,1","WHEAT CROP,WHEAT CROP,WHEAT CROP,WHEAT CROP","190,178.84470326986755,208.29475175593024,230.73835261785268","4,3,2,1","NETTLE WEED,NETTLE WEED,NETTLE WEED,NETTLE WEED","20,20,20,20","20,20,20,20","10,10,10,10","20,20,20,20","0,0,0,0","20,20,20,20","20,20,20,20","20,20,20,20","10,10,10,10","20,20,20,20","0,0,0,0","20,20,20,20","1,1,1,1","3591,267,424,486","24.3898939845813,13.939500181679536,-18.223411198466906,8.142017049746288","-11.155296730132449,29.450048486062684,22.44360086192244,11.115453462906427","0","0"
"8471","86","text","0","155","1340192","0-0","","","","","","","","","","","","","","","","","","","","","","","","","","","","","","","","","","","","",""
"","","plant-game","0","156","1350041","0-0","","200","160","1","CORN CROP","Right","200","120","4","THISTLE WEED","experimental","65","1,2,3,4","120,118.96640722116327,156.67121931461656,196.9643588616125","4,3,2,1","THISTLE WEED,THISTLE WEED,THISTLE WEED,THISTLE WEED","160,170,180.3620045784826,195.92587738744632","1,3,2,1","CORN CROP,WHEAT CROP,WHEAT CROP,WHEAT CROP","0,0,0,0","20,20,20,20","10,10,10,10","20,20,20,20","20,20,20,20","20,20,20,20","0,0,0,0","20,20,20,20","10,10,10,10","20,20,20,20","20,20,20,20","20,20,20,20","0,1,1,1","2453,1544,346,393","-1.0335927788367327,37.70481209345331,40.293139546995945,39.87224366952631","-0.37961988265580443,10.362004578482605,15.563872808963715,37.418847714483064","0","0"
"900","86","text","0","157","1351051","0-0","","","","","","","","","","","","","","","","","","","","","","","","","","","","","","","","","","","","",""
"","","plant-game","0","158","1364478","0-0","","200","160","1","WHEAT CROP","Left","200","120","8","THISTLE WEED","experimental","66","1,2,3,4,5,6,7,8","160,130,170.98335267991627,184.74443094592326,163.20232807693088,165.36258066096732,133.3496721196529,156.40411852488637","1,7,6,5,4,3,2,1","WHEAT CROP,CORN CROP,CORN CROP,CORN CROP,CORN CROP,CORN CROP,CORN CROP,CORN CROP","120,114.0201176129367,133.023127069862,106.25299559139634,95.7358789799526,48.89998222024814,24.484918710519377,13.386363232983552","8,7,6,5,4,3,2,1","THISTLE WEED,THISTLE WEED,THISTLE WEED,THISTLE WEED,THISTLE WEED,THISTLE WEED,THISTLE WEED,THISTLE WEED","20,20,20,20,20,20,20,20","20,20,20,20,20,20,20,20","10,10,10,10,10,10,10,10","20,20,20,20,20,20,20,20","0,0,0,0,0,0,0,0","20,20,20,20,20,20,20,20","20,20,20,20,20,20,20,20","20,20,20,20,20,20,20,20","10,10,10,10,10,10,10,10","20,20,20,20,20,20,20,20","0,0,0,0,0,0,0,0","20,20,20,20,20,20,20,20","1,1,1,1,1,1,1,1","2948,1380,330,293,293,280,261,284","39.48299890794126,40.98335267991625,13.761078266006981,-21.54210286899236,2.1602525840364284,-32.01290854131442,23.054446405233485,19.06856683363832","-5.979882387063295,19.003009456925287,-26.77013147846565,-10.51711661144374,-46.83589675970446,-24.415063509728764,-11.098555477535825,14.994309734695584","0","0"
"172","86","text","0","159","1364740","0-0","","","","","","","","","","","","","","","","","","","","","","","","","","","","","","","","","","","","",""
"","","plant-game","0","160","1374617","0-0","","200","160","1","CORN CROP","Left","200","160","2","THISTLE WEED","experimental","67","1,2","160,190","1,1","CORN CROP,WHEAT CROP","160,156.9450378338251","2,1","THISTLE WEED,THISTLE WEED","20,20","20,20","10,10","20,20","0,0","20,20","20,20","20,20","10,10","20,20","0,0","20,20","0,1","3194,1493","42.769241766127706,9.500373384897639","-3.0549621661749136,22.19197930601407","0","0"
"248","86","text","0","161","1374975","0-0","","","","","","","","","","","","","","","","","","","","","","","","","","","","","","","","","","","","",""
"","","plant-game","0","162","1384273","0-0","","200","190","1","CORN CROP","Right","200","180","2","NETTLE WEED","experimental","68","1,2","180,186.12336376798632","2,1","NETTLE WEED,NETTLE WEED","190,190","1,1","CORN CROP,WHEAT CROP","0,0","20,20","10,10","20,20","20,20","20,20","0,0","20,20","10,10","20,20","20,20","20,20","1,1","3714,1236","6.123363767986326,43.61764382351278","34.79980507212584,53.10379565185959","0","0"
"633","86","text","0","163","1385036","0-0","","","","","","","","","","","","","","","","","","","","","","","","","","","","","","","","","","","","",""
"","","plant-game","0","164","1393369","0-0","","200","180","4","WHEAT CROP","Right","200","190","4","THISTLE WEED","experimental","69","1,2,3,4","190,198.2190363817397,181.7274721824857,204.27724653829128","4,3,2,1","THISTLE WEED,THISTLE WEED,THISTLE WEED,THISTLE WEED","180,161.95259464578234,186.85938124825628,157.95970408436602","4,3,2,1","WHEAT CROP,WHEAT CROP,WHEAT CROP,WHEAT CROP","0,0,0,0","20,20,20,20","10,10,10,10","20,20,20,20","20,20,20,20","20,20,20,20","0,0,0,0","20,20,20,20","10,10,10,10","20,20,20,20","20,20,20,20","20,20,20,20","0,0,0,0","3160,388,524,485","8.219036381739695,-16.49156419925398,22.54977435580556,24.93241917690973","-18.047405354217652,24.906786602473936,-28.899677163890253,5.563693111977344","0","0"
"472","86","text","0","165","1393976","0-0","","","","","","","","","","","","","","","","","","","","","","","","","","","","","","","","","","","","",""
"","","plant-game","0","166","1409429","0-0","","200","190","4","CORN CROP","Left","200","120","8","THISTLE WEED","experimental","70","1,2,3,4,5,6,7,8","190,240.15367880874274,277.5457003488899,271.76663156389844,160,152.37035630636123,151.07884484789122,176.88553849877843","4,3,2,1,4,3,2,1","CORN CROP,CORN CROP,CORN CROP,CORN CROP,WHEAT CROP,WHEAT CROP,WHEAT CROP,WHEAT CROP","120,204.35009215240984,193.01969624467137,179.10352396949452,227.14860292892723,234.53891668021475,223.45415102218485,224.9129716082901","8,7,6,5,4,3,2,1","THISTLE WEED,THISTLE WEED,THISTLE WEED,THISTLE WEED,THISTLE WEED,THISTLE WEED,THISTLE WEED,THISTLE WEED","20,20,20,20,20,20,20,20","20,20,20,20,20,20,20,20","10,10,10,10,10,10,10,10","20,20,20,20,20,20,20,20","0,0,0,0,0,0,0,0","20,20,20,20,20,20,20,20","20,20,20,20,20,20,20,20","20,20,20,20,20,20,20,20","10,10,10,10,10,10,10,10","20,20,20,20,20,20,20,20","0,0,0,0,0,0,0,0","20,20,20,20,20,20,20,20","0,1,1,1,0,1,1,1","2910,1882,418,347,1797,580,325,337","50.15367880874274,37.39202154014717,-5.779068784991455,30.030411710809165,-7.629643693638776,-1.291511458470017,25.80669365088722,-24.175705563933356","84.35009215240986,-11.330395907738477,-13.916172275176859,48.045078959432715,7.390313751287522,-11.08476565802992,1.4588205861052341,-1.673530333169663","0","0"
"486","86","text","0","167","1409995","0-0","","","","","","","","","","","","","","","","","","","","","","","","","","","","","","","","","","","","",""
"","","plant-game","0","168","1421845","0-0","","200","180","2","CORN CROP","Right","200","160","8","THISTLE WEED","experimental","71","1,2,3,4,5,6,7,8","160,162.71664074944457,191.1845735646615,204.2844207050795,207.8383439819919,247.60568280555918,258.3885636928707,287.77350834311324","8,7,6,5,4,3,2,1","THISTLE WEED,THISTLE WEED,THISTLE WEED,THISTLE WEED,THISTLE WEED,THISTLE WEED,THISTLE WEED,THISTLE WEED","180,197.16693547902935,140,158.0899550957974,186.9029792840265,165.64511720820016,210.33036608357293,232.2206205996573","2,1,6,5,4,3,2,1","CORN CROP,CORN CROP,WHEAT CROP,WHEAT CROP,WHEAT CROP,WHEAT CROP,WHEAT CROP,WHEAT CROP","0,0,0,0,0,0,0,0","20,20,20,20,20,20,20,20","10,10,10,10,10,10,10,10","20,20,20,20,20,20,20,20","20,20,20,20,20,20,20,20","20,20,20,20,20,20,20,20","0,0,0,0,0,0,0,0","20,20,20,20,20,20,20,20","10,10,10,10,10,10,10,10","20,20,20,20,20,20,20,20","20,20,20,20,20,20,20,20","20,20,20,20,20,20,20,20","1,1,0,0,0,1,1,1","2232,626,632,651,421,613,549,370","2.716640749444565,28.467932815216933,13.099847140418007,3.5539232769124025,39.76733882356729,10.78288088731152,29.38494465024251,22.36255833870477","17.166935479029355,-21.30864635485142,18.089955095797393,28.813024188229086,-21.257862075826317,44.68524887537275,21.89025451608438,-6.079175480181984","0","0"
"604","86","text","0","169","1422592","0-0","","","","","","","","","","","","","","","","","","","","","","","","","","","","","","","","","","","","",""
"","","plant-game","0","170","1435465","0-0","","200","160","8","CORN CROP","Left","200","180","4","THISTLE WEED","experimental","72","1,2,3,4,5,6,7,8","160,173.57177217035516,165.08606574822343,161.57125343409407,176.1889447737178,242.94272417173397,266.6731969547304,286.3391988255361","8,7,6,5,4,3,2,1","CORN CROP,CORN CROP,CORN CROP,CORN CROP,CORN CROP,CORN CROP,CORN CROP,CORN CROP","180,180.3971312363969,135.81282155880427,151.03227841252254,160,190.18876581988607,216.15805887473218,227.2447979735578","4,3,2,1,4,3,2,1","THISTLE WEED,THISTLE WEED,THISTLE WEED,THISTLE WEED,NETTLE WEED,NETTLE WEED,NETTLE WEED,NETTLE WEED","20,20,20,20,20,20,20,20","20,20,20,20,20,20,20,20","10,10,10,10,10,10,10,10","20,20,20,20,20,20,20,20","0,0,0,0,0,0,0,0","20,20,20,20,20,20,20,20","20,20,20,20,20,20,20,20","20,20,20,20,20,20,20,20","10,10,10,10,10,10,10,10","20,20,20,20,20,20,20,20","0,0,0,0,0,0,0,0","20,20,20,20,20,20,20,20","1,1,1,1,0,0,1,1","3276,622,451,398,868,753,455,476","13.571772170355151,-8.485706422131718,-3.514812314129351,14.617691339623722,66.75377939801616,23.7304727829964,19.666001870805687,-23.97137647041722","0.39713123639689185,-44.58430967759263,15.219456853718281,-8.654011541317585,30.188765819886072,25.969293054846112,11.086739098825621,21.365990392149513","0","0"
"1564","86","text","0","171","1437129","0-0","","","","","","","","","","","","","","","","","","","","","","","","","","","","","","","","","","","","",""
"","","plant-game","0","172","1447505","0-0","","200","190","4","WHEAT CROP","Left","200","190","4","THISTLE WEED","experimental","73","1,2,3,4","190,189.89368271947583,208.46262718475674,158.32010367542009","4,3,2,1","WHEAT CROP,WHEAT CROP,WHEAT CROP,WHEAT CROP","190,189.97158304849907,199.26749031635816,202.6264818164339","4,3,2,1","THISTLE WEED,THISTLE WEED,THISTLE WEED,THISTLE WEED","20,20,20,20","20,20,20,20","10,10,10,10","20,20,20,20","0,0,0,0","20,20,20,20","20,20,20,20","20,20,20,20","10,10,10,10","20,20,20,20","0,0,0,0","20,20,20,20","1,1,1,1","2559,417,1188,2276","-0.10631728052416244,18.56894446528091,-50.14252350933666,19.412740814574526","-0.028416951500924093,9.295907267859086,3.3589915000757586,-53.22205519610499","0","0"
"438","86","text","0","173","1448063","0-0","","","","","","","","","","","","","","","","","","","","","","","","","","","","","","","","","","","","",""
"","","plant-game","0","174","1460097","0-0","","200","120","1","CORN CROP","Right","200","180","2","THISTLE WEED","experimental","74","1,2","180,189.075425444306","2,1","THISTLE WEED,THISTLE WEED","120,190","1,1","CORN CROP,WHEAT CROP","0,0","20,20","10,10","20,20","20,20","20,20","0,0","20,20","10,10","20,20","20,20","20,20","0,0","5537,1175","9.07542544430601,-8.502632383842425","-3.5378860422299856,24.88201939078071","0","0"
"716","86","text","0","175","1460925","0-0","","","","","","","","","","","","","","","","","","","","","","","","","","","","","","","","","","","","",""
"","","plant-game","0","176","1476503","0-0","","200","180","2","WHEAT CROP","Left","200","190","8","NETTLE WEED","experimental","75","1,2,3,4,5,6,7,8","180,204.90377305557323,140,144.88773257292425,127.7933676334209,126.11385454399225,110.11826451123126,144.7834559229206","2,1,6,5,4,3,2,1","WHEAT CROP,WHEAT CROP,CORN CROP,CORN CROP,CORN CROP,CORN CROP,CORN CROP,CORN CROP","190,213.8635700493372,236.04314219277597,209.98563293202324,212.6596080009641,261.15551107935875,270.34854897179105,267.7765530853708","8,7,6,5,4,3,2,1","NETTLE WEED,NETTLE WEED,NETTLE WEED,NETTLE WEED,NETTLE WEED,NETTLE WEED,NETTLE WEED,NETTLE WEED","20,20,20,20,20,20,20,20","20,20,20,20,20,20,20,20","10,10,10,10,10,10,10,10","20,20,20,20,20,20,20,20","0,0,0,0,0,0,0,0","20,20,20,20,20,20,20,20","20,20,20,20,20,20,20,20","20,20,20,20,20,20,20,20","10,10,10,10,10,10,10,10","20,20,20,20,20,20,20,20","0,0,0,0,0,0,0,0","20,20,20,20,20,20,20,20","0,0,1,1,1,1,0,0","2343,1859,2786,366,318,340,620,337","24.90377305557323,17.794802971909306,4.8877325729242465,-17.094364939503357,-1.6795130894286494,-15.995590032760983,34.66519141168935,46.812020446821506","23.863570049337188,22.17957214343876,-26.057509260752735,2.673975068940884,48.495903078394626,9.19303789243232,-2.5719958864202788,6.640470528860565","3","0"
"807","86","text","0","177","1477410","0-0","","","","","","","","","","","","","","","","","","","","","","","","","","","","","","","","","","","","",""
"","","plant-game","0","178","1488312","0-0","","200","180","2","WHEAT CROP","Left","200","120","4","NETTLE WEED","experimental","76","1,2,3,4","180,182.5833228302502,180,193.16192952092553","2,1,2,1","WHEAT CROP,WHEAT CROP,CORN CROP,CORN CROP","120,119.47523031734225,133.36647989917262,132.04806392380766","4,3,2,1","NETTLE WEED,NETTLE WEED,NETTLE WEED,NETTLE WEED","20,20,20,20","20,20,20,20","10,10,10,10","20,20,20,20","0,0,0,0","20,20,20,20","20,20,20,20","20,20,20,20","10,10,10,10","20,20,20,20","0,0,0,0","20,20,20,20","0,0,1,1","3606,486,1119,336","2.583322830250218,48.04690625743353,13.161929520925517,-16.653769897399624","-0.5247696826577517,13.89124958183037,-1.318415975364971,-20.36494249502987","0","0"
"468","86","text","0","179","1488910","0-0","","","","","","","","","","","","","","","","","","","","","","","","","","","","","","","","","","","","",""
"","","plant-game","0","180","1500357","0-0","","200","180","1","CORN CROP","Right","200","120","8","THISTLE WEED","experimental","77","1,2,3,4,5,6,7,8","120,167.28417751906045,176.32483415820656,183.7068455956203,170.7112078709913,174.49518720557796,129.48866230056075,165.06077873161487","8,7,6,5,4,3,2,1","THISTLE WEED,THISTLE WEED,THISTLE WEED,THISTLE WEED,THISTLE WEED,THISTLE WEED,THISTLE WEED,THISTLE WEED","180,130,122.24639102592161,86.65056687520594,82.50216480092604,86.26669579220065,90.60387593362387,109.04414103652388","1,7,6,5,4,3,2,1","CORN CROP,WHEAT CROP,WHEAT CROP,WHEAT CROP,WHEAT CROP,WHEAT CROP,WHEAT CROP,WHEAT CROP","0,0,0,0,0,0,0,0","20,20,20,20,20,20,20,20","10,10,10,10,10,10,10,10","20,20,20,20,20,20,20,20","20,20,20,20,20,20,20,20","20,20,20,20,20,20,20,20","0,0,0,0,0,0,0,0","20,20,20,20,20,20,20,20","10,10,10,10,10,10,10,10","20,20,20,20,20,20,20,20","20,20,20,20,20,20,20,20","20,20,20,20,20,20,20,20","1,0,0,0,0,0,0,0","2087,1974,394,424,384,361,352,306","47.284177519060435,9.040656639146093,7.3820114374137455,-12.995637724629013,3.7839793345866535,-45.00652490501721,35.57211643105413,8.964347263244637","11.862980865760179,-7.753608974078395,-35.59582415071567,-4.1484020742799,3.7645309912746066,4.33718014142322,18.440265102900018,16.471710903183382","0","0"
"88","86","text","0","181","1500523","0-0","","","","","","","","","","","","","","","","","","","","","","","","","","","","","","","","","","","","",""
"","","plant-game","0","182","1514415","0-0","","200","190","1","WHEAT CROP","Right","200","120","8","NETTLE WEED","experimental","78","1,2,3,4,5,6,7,8","120,116.85603534709784,142.40729099350474,154.96227536060087,186.81133489928953,172.9730040188967,165.28542519371666,178.67139161211395","8,7,6,5,4,3,2,1","NETTLE WEED,NETTLE WEED,NETTLE WEED,NETTLE WEED,NETTLE WEED,NETTLE WEED,NETTLE WEED,NETTLE WEED","190,130,177.941774900797,201.5603015295206,216.72758863357254,200.49130877890155,217.2494652018505,267.40558344104846","1,7,6,5,4,3,2,1","WHEAT CROP,CORN CROP,CORN CROP,CORN CROP,CORN CROP,CORN CROP,CORN CROP,CORN CROP","0,0,0,0,0,0,0,0","20,20,20,20,20,20,20,20","10,10,10,10,10,10,10,10","20,20,20,20,20,20,20,20","20,20,20,20,20,20,20,20","20,20,20,20,20,20,20,20","0,0,0,0,0,0,0,0","20,20,20,20,20,20,20,20","10,10,10,10,10,10,10,10","20,20,20,20,20,20,20,20","20,20,20,20,20,20,20,20","20,20,20,20,20,20,20,20","0,1,1,0,0,0,0,0","2029,3574,334,978,284,431,368,357","-3.1439646529021523,25.55125564640689,12.554984367096122,31.849059538688678,-13.838330880392832,-7.687578825180015,13.385966418397297,9.991275936184113","-22.415609264685003,47.94177490079697,23.618526628723615,15.167287104051939,-16.236279854670986,16.75815642294897,50.15611823919794,25.28494918791732","0","0"
"88","86","text","0","183","1514593","0-0","","","","","","","","","","","","","","","","","","","","","","","","","","","","","","","","","","","","",""
"","","plant-game","0","184","1526403","0-0","","200","180","1","WHEAT CROP","Right","200","180","8","THISTLE WEED","experimental","79","1,2,3,4,5,6,7,8","180,214.65776750065248,250.89563232041417,276.9139826119541,281.56421417344035,309.78935304987107,331.06948614436345,329.79515941432476","8,7,6,5,4,3,2,1","THISTLE WEED,THISTLE WEED,THISTLE WEED,THISTLE WEED,THISTLE WEED,THISTLE WEED,THISTLE WEED,THISTLE WEED","180,130,135.4338044128972,173.1396906466809,197.5515153666806,229.17864281048733,254.00579989868132,305.7505750198126","1,7,6,5,4,3,2,1","WHEAT CROP,CORN CROP,CORN CROP,CORN CROP,CORN CROP,CORN CROP,CORN CROP,CORN CROP","0,0,0,0,0,0,0,0","20,20,20,20,20,20,20,20","10,10,10,10,10,10,10,10","20,20,20,20,20,20,20,20","20,20,20,20,20,20,20,20","20,20,20,20,20,20,20,20","0,0,0,0,0,0,0,0","20,20,20,20,20,20,20,20","10,10,10,10,10,10,10,10","20,20,20,20,20,20,20,20","20,20,20,20,20,20,20,20","20,20,20,20,20,20,20,20","1,0,1,1,1,1,1,1","1936,1747,791,644,294,358,241,194","34.657767500652476,36.237864819761676,26.01835029153996,4.65023156148623,28.22513887643074,21.280133094492392,-1.274326730038723,21.353049088373844","16.952631346019388,5.433804412897198,37.705886233783716,24.411824719999707,31.627127443806735,24.827157088193978,51.74477512113123,15.886501313775502","0","0"
"222","86","text","0","185","1526731","0-0","","","","","","","","","","","","","","","","","","","","","","","","","","","","","","","","","","","","",""
"","","plant-game","0","186","1540081","0-0","","200","190","8","WHEAT CROP","Left","200","120","4","NETTLE WEED","experimental","80","1,2,3,4,5,6,7,8","190,232.16583549928362,251.60971242907607,249.34296082064594,262.5488643327973,261.50661880385536,271.63458372697187,248.36562391867457","8,7,6,5,4,3,2,1","WHEAT CROP,WHEAT CROP,WHEAT CROP,WHEAT CROP,WHEAT CROP,WHEAT CROP,WHEAT CROP,WHEAT CROP","120,117.29838173744788,170.77342143112233,137.72675307251382,160,189.70805260231657,191.8393479690434,164.83992170491464","4,3,2,1,4,3,2,1","NETTLE WEED,NETTLE WEED,NETTLE WEED,NETTLE WEED,THISTLE WEED,THISTLE WEED,THISTLE WEED,THISTLE WEED","20,20,20,20,20,20,20,20","20,20,20,20,20,20,20,20","10,10,10,10,10,10,10,10","20,20,20,20,20,20,20,20","0,0,0,0,0,0,0,0","20,20,20,20,20,20,20,20","20,20,20,20,20,20,20,20","20,20,20,20,20,20,20,20","10,10,10,10,10,10,10,10","20,20,20,20,20,20,20,20","0,0,0,0,0,0,0,0","20,20,20,20,20,20,20,20","0,0,1,1,1,1,1,1","3091,1510,591,419,936,376,701,436","42.1658354992836,19.443876929792456,-2.266751608430121,13.205903512151343,-1.0422455289418975,10.127964923116526,-23.268959808297286,-9.920021118490869","-2.701618262552117,53.47503969367445,-33.046668358608514,12.190567327245612,29.708052602316574,2.1312953667268033,-26.999426264128754,-3.0806189230967056","0","0"
"2404","86","text","0","187","1542575","0-0","","","","","","","","","","","","","","","","","","","","","","","","","","","","","","","","","","","","",""
"","","plant-game","0","188","1559248","0-0","","200","120","8","CORN CROP","Left","200","180","2","NETTLE WEED","experimental","81","1,2,3,4,5,6,7,8","120,111.15325766321473,96.99097549362628,152.05562648526802,179.76639774845944,195.57690848466328,220.95977110686022,217.8880487907885","8,7,6,5,4,3,2,1","CORN CROP,CORN CROP,CORN CROP,CORN CROP,CORN CROP,CORN CROP,CORN CROP,CORN CROP","180,205.9585022569691,140,136.0067474425044,144.98857606375884,159.76594121563025,162.0747759562022,200.92906356728537","2,1,6,5,4,3,2,1","NETTLE WEED,NETTLE WEED,THISTLE WEED,THISTLE WEED,THISTLE WEED,THISTLE WEED,THISTLE WEED,THISTLE WEED","20,20,20,20,20,20,20,20","20,20,20,20,20,20,20,20","10,10,10,10,10,10,10,10","20,20,20,20,20,20,20,20","0,0,0,0,0,0,0,0","20,20,20,20,20,20,20,20","20,20,20,20,20,20,20,20","20,20,20,20,20,20,20,20","10,10,10,10,10,10,10,10","20,20,20,20,20,20,20,20","0,0,0,0,0,0,0,0","20,20,20,20,20,20,20,20","1,1,0,0,0,0,0,1","5114,587,818,377,285,371,1480,509","-8.846742336785276,-14.162282169588448,55.06465099164175,27.71077126319142,15.810510736203835,25.382862622196946,-3.071722316071707,-11.571559471118682","25.958502256969105,-30.808603456002658,-3.993252557495591,8.981828621254426,14.777365151871415,2.3088347405719354,38.85428761108317,-10.29674341996956","0","0"
"137","86","text","0","189","1559512","0-0","","","","","","","","","","","","","","","","","","","","","","","","","","","","","","","","","","","","",""
"","","plant-game","0","190","1564606","0-0","","200","160","1","CORN CROP","Left","200","120","1","NETTLE WEED","experimental","82","1","160","1","CORN CROP","120","1","NETTLE WEED","20","20","10","20","0","20","20","20","10","20","0","20","0","2065","32.43057409420219","8.762427116460119","0","0"
"964","86","text","0","191","1565700","0-0","","","","","","","","","","","","","","","","","","","","","","","","","","","","","","","","","","","","",""
