"rt","key_press","trial_type","trial_index","trial_index_global","time_elapsed","internal_chunk_id","responses","experimental_goal_height","experimental_start_height","experimental_weeks_total","experimental_crop_type","experimental_crop_side","fixed_goal_height","fixed_start_height","fixed_weeks_total","fixed_crop_type","trial_kind","trial_number","stage","left_current_height","left_weeks_remaining","left_crop_type","right_current_height","right_weeks_remaining","right_crop_type","mean_left_growth_given_left","sd_left_growth_given_left","mean_left_growth_given_middle","sd_left_growth_given_middle","mean_left_growth_given_right","sd_left_growth_given_right","mean_right_growth_given_left","sd_right_growth_given_left","mean_right_growth_given_middle","sd_right_growth_given_middle","mean_right_growth_given_right","sd_right_growth_given_right","response","response_time","left_growth","right_growth","other_key_pressed","mouse_clicked"
"1668128","87","text","0","0","1668265","0-0","","","","","","","","","","","","","","","","","","","","","","","","","","","","","","","","","","","","",""
"4590","","survey-text","0","1","1673872","0-0","{""Q0"":""17""}","","","","","","","","","","","","","","","","","","","","","","","","","","","","","","","","","","","",""
"12128","86","text","0","2","12208","0-0","","","","","","","","","","","","","","","","","","","","","","","","","","","","","","","","","","","","",""
"","","plant-game","0","3","67779","0-0","","200","120","8","CORN CROP","Left","200","120","8","THISTLE WEED","practice","1","1,2,3,4,5,6,7,8","120,154.2074049180646,149.2323568348003,189.26527458697035,213.9315703859859,223.26188562271483,251.64511697103745,273.9215298432609","8,7,6,5,4,3,2,1","CORN CROP,CORN CROP,CORN CROP,CORN CROP,CORN CROP,CORN CROP,CORN CROP,CORN CROP","120,138.2504687759657,189.08854406334794,193.85508984340322,208.74041417850393,225.13871652222588,218.3100502036647,234.56502472511676","8,7,6,5,4,3,2,1","THISTLE WEED,THISTLE WEED,THISTLE WEED,THISTLE WEED,THISTLE WEED,THISTLE WEED,THISTLE WEED,THISTLE WEED","20,20,20,20,20,20,20,20","20,20,20,20,20,20,20,20","10,10,10,10,10,10,10,10","20,20,20,20,20,20,20,20","0,0,0,0,0,0,0,0","20,20,20,20,20,20,20,20","20,20,20,20,20,20,20,20","20,20,20,20,20,20,20,20","10,10,10,10,10,10,10,10","20,20,20,20,20,20,20,20","0,0,0,0,0,0,0,0","20,20,20,20,20,20,20,20","0,0,1,1,0,0,0,0","9030,4789,2276,3253,4894,2409,1495,1294","34.20740491806461,-4.9750480832643085,40.032917752170064,24.666295799015565,9.330315236728925,28.38323134832261,22.276412872223446,19.447103504981065","18.25046877596568,50.83807528738225,4.76654578005527,14.885324335100702,16.398302343721948,-6.828666318561169,16.254974521452045,4.6121722895404655","0","1"
"1327","86","text","0","4","69226","0-0","","","","","","","","","","","","","","","","","","","","","","","","","","","","","","","","","","","","",""
"","","plant-game","0","5","99258","0-0","","200","160","4","WHEAT CROP","Left","200","160","4","THISTLE WEED","practice","2","1,2,3,4","160,189.31767272617174,175.58494405444705,149.94676600934253","4,3,2,1","WHEAT CROP,WHEAT CROP,WHEAT CROP,WHEAT CROP","160,189.17616679069758,197.45685367099742,214.69230032028568","4,3,2,1","THISTLE WEED,THISTLE WEED,THISTLE WEED,THISTLE WEED","20,20,20,20","20,20,20,20","10,10,10,10","20,20,20,20","0,0,0,0","20,20,20,20","20,20,20,20","20,20,20,20","10,10,10,10","20,20,20,20","0,0,0,0","20,20,20,20","0,1,1,0","8465,1491,2796,2822","29.317672726171736,-13.732728671724697,-25.638178045104514,3.1408678491089894","29.176166790697586,8.280686880299834,17.235446649288264,81.38286771894161","0","0"
"791","86","text","0","6","100179","0-0","","","","","","","","","","","","","","","","","","","","","","","","","","","","","","","","","","","","",""
"","","plant-game","0","7","119221","0-0","","200","180","2","WHEAT CROP","Right","200","180","2","NETTLE WEED","practice","3","1,2","180,180.97272712639548","2,1","NETTLE WEED,NETTLE WEED","180,212.50426518605977","2,1","WHEAT CROP,WHEAT CROP","0,0","20,20","10,10","20,20","20,20","20,20","0,0","20,20","10,10","20,20","20,20","20,20","1,1","1699,2875","0.9727271263954727,67.76208909228896","32.50426518605977,41.52573723904474","0","0"
"1000","86","text","0","8","120389","0-0","","","","","","","","","","","","","","","","","","","","","","","","","","","","","","","","","","","","",""
"","","plant-game","0","9","135749","0-0","","200","190","1","WHEAT CROP","Right","200","190","1","THISTLE WEED","practice","4","1","190","1","THISTLE WEED","190","1","WHEAT CROP","0","20","10","20","20","20","0","20","10","20","20","20","1","2361","18.868808468774358","23.775863157910248","0","0"
"920","86","text","0","10","136813","0-0","","","","","","","","","","","","","","","","","","","","","","","","","","","","","","","","","","","","",""
"","","plant-game","0","11","164533","0-0","","200","120","8","CORN CROP","Left","200","160","8","THISTLE WEED","practice","5","1,2,3,4,5,6,7,8","120,139.01448078070732,132.25589294850394,129.4396165056138,127.3266117618604,143.00638608692725,124.75849282051165,93.74743823177218","8,7,6,5,4,3,2,1","CORN CROP,CORN CROP,CORN CROP,CORN CROP,CORN CROP,CORN CROP,CORN CROP,CORN CROP","160,179.31831549682408,205.9547158277875,255.3977509560608,284.7157024922784,288.42132270110665,283.834683564315,299.32620114019994","8,7,6,5,4,3,2,1","THISTLE WEED,THISTLE WEED,THISTLE WEED,THISTLE WEED,THISTLE WEED,THISTLE WEED,THISTLE WEED,THISTLE WEED","20,20,20,20,20,20,20,20","20,20,20,20,20,20,20,20","10,10,10,10,10,10,10,10","20,20,20,20,20,20,20,20","0,0,0,0,0,0,0,0","20,20,20,20,20,20,20,20","20,20,20,20,20,20,20,20","20,20,20,20,20,20,20,20","10,10,10,10,10,10,10,10","20,20,20,20,20,20,20,20","0,0,0,0,0,0,0,0","20,20,20,20,20,20,20,20","0,1,0,0,1,1,1,0","6877,1161,3161,2067,1522,490,1066,995","19.014480780707316,-6.758587832203372,-2.8162764428901284,-2.1130047437533896,15.679774325066848,-18.247893266415605,-31.011054588739473,22.839725106333443","19.318315496824088,26.63640033096342,49.44303512827328,29.317951536217585,3.705620208828258,-4.586639136791622,15.491517575884933,25.978134162679478","1","0"
"848","86","text","0","12","165517","0-0","","","","","","","","","","","","","","","","","","","","","","","","","","","","","","","","","","","","",""
"","","plant-game","0","13","185488","0-0","","200","180","4","WHEAT CROP","Right","200","160","4","NETTLE WEED","practice","6","1,2,3,4","160,139.16075564421322,135.48029711694485,142.5474157588064","4,3,2,1","NETTLE WEED,NETTLE WEED,NETTLE WEED,NETTLE WEED","180,228.8755287579213,213.9161006817394,249.39329372310814","4,3,2,1","WHEAT CROP,WHEAT CROP,WHEAT CROP,WHEAT CROP","0,0,0,0","20,20,20,20","10,10,10,10","20,20,20,20","20,20,20,20","20,20,20,20","0,0,0,0","20,20,20,20","10,10,10,10","20,20,20,20","20,20,20,20","20,20,20,20","1,0,1,0","2287,2586,950,1332","-20.839244355786768,-3.6804585272683745,7.067118641861558,33.936454306166006","48.875528757921316,-14.959428076181908,35.477193041368736,8.259309460286584","0","0"
"976","86","text","0","14","186632","0-0","","","","","","","","","","","","","","","","","","","","","","","","","","","","","","","","","","","","",""
"","","plant-game","0","15","203744","0-0","","200","180","2","WHEAT CROP","Left","200","190","2","THISTLE WEED","practice","7","1,2","180,195.08418011513444","2,1","WHEAT CROP,WHEAT CROP","190,207.3024874994058","2,1","THISTLE WEED,THISTLE WEED","20,20","20,20","10,10","20,20","0,0","20,20","20,20","20,20","10,10","20,20","0,0","20,20","0,0","4532,3686","15.084180115134437,14.026834536329307","17.3024874994058,16.940779232303193","0","0"
"543","86","text","0","16","204439","0-0","","","","","","","","","","","","","","","","","","","","","","","","","","","","","","","","","","","","",""
"","","plant-game","0","17","255321","0-0","","200","120","4","CORN CROP","Right","200","120","8","NETTLE WEED","practice","8","1,2,3,4,5,6,7,8","120,112.21511282817993,134.1560380996489,125.46124197484059,154.6132331639593,172.61637191374615,184.90242237111033,214.4514852431328","8,7,6,5,4,3,2,1","NETTLE WEED,NETTLE WEED,NETTLE WEED,NETTLE WEED,NETTLE WEED,NETTLE WEED,NETTLE WEED,NETTLE WEED","120,98.65527605802714,121.00500496096616,145.6632208613768,160,184.8074907736644,189.06508548656177,209.08674251248067","4,3,2,1,4,3,2,1","CORN CROP,CORN CROP,CORN CROP,CORN CROP,WHEAT CROP,WHEAT CROP,WHEAT CROP,WHEAT CROP","0,0,0,0,0,0,0,0","20,20,20,20,20,20,20,20","10,10,10,10,10,10,10,10","20,20,20,20,20,20,20,20","20,20,20,20,20,20,20,20","20,20,20,20,20,20,20,20","0,0,0,0,0,0,0,0","20,20,20,20,20,20,20,20","10,10,10,10,10,10,10,10","20,20,20,20,20,20,20,20","20,20,20,20,20,20,20,20","20,20,20,20,20,20,20,20","0,1,1,1,1,0,1,0","7733,1401,3370,1567,4188,3106,2521,2164","-7.784887171820078,21.940925271468974,-8.69479612480831,29.151991189118718,18.00313874978683,12.28605045736418,29.549062872022468,-38.57079172036386","-21.344723941972855,22.34972890293902,24.658215900410646,1.1470214693779361,24.807490773664387,4.257594712897378,20.0216570259189,-13.185942975623446","0","0"
"1128","86","text","0","18","256649","0-0","","","","","","","","","","","","","","","","","","","","","","","","","","","","","","","","","","","","",""
"","","plant-game","0","19","285400","0-0","","200","160","4","WHEAT CROP","Right","200","160","2","NETTLE WEED","practice","9","1,2,3,4","160,180.8723972000758,180,207.54943217455042","2,1,2,1","NETTLE WEED,NETTLE WEED,THISTLE WEED,THISTLE WEED","160,198.55510015683635,220.6110013051906,231.31902133448347","4,3,2,1","WHEAT CROP,WHEAT CROP,WHEAT CROP,WHEAT CROP","0,0,0,0","20,20,20,20","10,10,10,10","20,20,20,20","20,20,20,20","20,20,20,20","0,0,0,0","20,20,20,20","10,10,10,10","20,20,20,20","20,20,20,20","20,20,20,20","1,0,0,1","3031,4112,3763,2574","20.87239720007581,-36.33411032804698,27.54943217455043,77.98782634158675","38.555100156836346,22.05590114835426,10.70802002929286,47.4846093650209","0","0"
"511","86","text","0","20","286048","0-0","","","","","","","","","","","","","","","","","","","","","","","","","","","","","","","","","","","","",""
"","","plant-game","0","21","317274","0-0","","200","180","2","WHEAT CROP","Right","200","180","1","THISTLE WEED","practice","10","1,2","180,190","1,1","THISTLE WEED,NETTLE WEED","180,151.59989862251618","2,1","WHEAT CROP,WHEAT CROP","0,0","20,20","10,10","20,20","20,20","20,20","0,0","20,20","10,10","20,20","20,20","20,20","1,0","8612,4004","7.788418827973938,3.8315567542607774","-28.40010137748382,-18.497693694202944","0","0"
"536","86","text","0","22","317946","0-0","","","","","","","","","","","","","","","","","","","","","","","","","","","","","","","","","","","","",""
"","","plant-game","0","23","350194","0-0","","200","120","8","CORN CROP","Left","200","160","4","NETTLE WEED","practice","11","1,2,3,4,5,6,7,8","120,153.58970253098641,140.07423793411942,147.22286015027606,180.04870593082268,175.21166495185335,157.4348026762585,171.35420516823018","8,7,6,5,4,3,2,1","CORN CROP,CORN CROP,CORN CROP,CORN CROP,CORN CROP,CORN CROP,CORN CROP,CORN CROP","160,159.85231638486647,151.22296051483977,184.83184916421737,160,176.5910537387674,182.1591141232093,198.0362261200788","4,3,2,1,4,3,2,1","NETTLE WEED,NETTLE WEED,NETTLE WEED,NETTLE WEED,THISTLE WEED,THISTLE WEED,THISTLE WEED,THISTLE WEED","20,20,20,20,20,20,20,20","20,20,20,20,20,20,20,20","10,10,10,10,10,10,10,10","20,20,20,20,20,20,20,20","0,0,0,0,0,0,0,0","20,20,20,20,20,20,20,20","20,20,20,20,20,20,20,20","20,20,20,20,20,20,20,20","10,10,10,10,10,10,10,10","20,20,20,20,20,20,20,20","0,0,0,0,0,0,0,0","20,20,20,20,20,20,20,20","1,1,0,1,0,1,0,1","6841,1272,1497,947,3722,1306,891,1363","33.58970253098641,-13.515464596866982,7.14862221615663,32.825845780546615,-4.8370409789693305,-17.77686227559486,13.919402491971667,17.09523000056275","-0.14768361513353917,-8.629355870026693,33.60888864937759,34.89179905548068,16.591053738767418,5.568060384441881,15.877111996869507,9.333908565807619","0","0"
"832","86","text","0","24","351178","0-0","","","","","","","","","","","","","","","","","","","","","","","","","","","","","","","","","","","","",""
"","","plant-game","0","25","376126","0-0","","200","180","2","CORN CROP","Right","200","160","4","NETTLE WEED","practice","12","1,2,3,4","160,159.160563941155,174.1612089767934,170.2493115910566","4,3,2,1","NETTLE WEED,NETTLE WEED,NETTLE WEED,NETTLE WEED","180,193.47798760118255,180,210.27084757921844","2,1,2,1","CORN CROP,CORN CROP,WHEAT CROP,WHEAT CROP","0,0,0,0","20,20,20,20","10,10,10,10","20,20,20,20","20,20,20,20","20,20,20,20","0,0,0,0","20,20,20,20","10,10,10,10","20,20,20,20","20,20,20,20","20,20,20,20","1,1,0,1","3884,1867,4363,2492","-0.8394360588449885,15.000645035638403,-3.9118973857368067,-13.367335350389872","13.477987601182553,32.68191975207458,30.27084757921844,24.931251850148705","0","0"
"1983","86","text","0","26","378254","0-0","","","","","","","","","","","","","","","","","","","","","","","","","","","","","","","","","","","","",""
"10199","86","text","0","27","389590","0-0","","","","","","","","","","","","","","","","","","","","","","","","","","","","","","","","","","","","",""
"","","plant-game","0","28","410534","0-0","","200","180","4","CORN CROP","Right","200","180","4","THISTLE WEED","experimental","1","1,2,3,4","180,215.42396660581682,219.45570849892127,178.0563756258216","4,3,2,1","THISTLE WEED,THISTLE WEED,THISTLE WEED,THISTLE WEED","180,178.75195745584097,200.94299506087827,215.02278566756752","4,3,2,1","CORN CROP,CORN CROP,CORN CROP,CORN CROP","0,0,0,0","20,20,20,20","10,10,10,10","20,20,20,20","20,20,20,20","20,20,20,20","0,0,0,0","20,20,20,20","10,10,10,10","20,20,20,20","20,20,20,20","20,20,20,20","1,0,0,0","5974,2169,2316,4427","35.42396660581681,4.031741893104464,-41.39933287309966,-24.475662548136082","-1.24804254415902,22.191037605037316,14.079790606689231,-30.855041315961316","0","0"
"720","86","text","0","29","411406","0-0","","","","","","","","","","","","","","","","","","","","","","","","","","","","","","","","","","","","",""
"","","plant-game","0","30","422893","0-0","","200","180","1","CORN CROP","Left","200","180","1","NETTLE WEED","experimental","2","1","180","1","CORN CROP","180","1","NETTLE WEED","20","20","10","20","0","20","20","20","10","20","0","20","0","5777","25.539581291178603","25.46157901426517","0","0"
"663","86","text","0","31","423685","0-0","","","","","","","","","","","","","","","","","","","","","","","","","","","","","","","","","","","","",""
"","","plant-game","0","32","449792","0-0","","200","180","4","CORN CROP","Left","200","190","1","THISTLE WEED","experimental","3","1,2,3,4","180,208.00131990503664,223.21871428287835,247.16179645687885","4,3,2,1","CORN CROP,CORN CROP,CORN CROP,CORN CROP","190,170,200.58828987370927,183.0507811651588","1,3,2,1","THISTLE WEED,NETTLE WEED,NETTLE WEED,NETTLE WEED","20,20,20,20","20,20,20,20","10,10,10,10","20,20,20,20","0,0,0,0","20,20,20,20","20,20,20,20","20,20,20,20","10,10,10,10","20,20,20,20","0,0,0,0","20,20,20,20","0,0,1,1","5539,6843,1563,3821","28.001319905036645,15.217394377841723,23.943082174000484,3.300362469532108","47.802457242672666,30.588289873709268,-17.537508708550455,-6.387939773532666","0","0"
"584","86","text","0","33","450536","0-0","","","","","","","","","","","","","","","","","","","","","","","","","","","","","","","","","","","","",""
"","","plant-game","0","34","462752","0-0","","200","160","1","CORN CROP","Right","200","190","1","THISTLE WEED","experimental","4","1","190","1","THISTLE WEED","160","1","CORN CROP","0","20","10","20","20","20","0","20","10","20","20","20","0","7048","-8.952967460570079","5.836268981280766","0","0"
"856","86","text","0","35","463720","0-0","","","","","","","","","","","","","","","","","","","","","","","","","","","","","","","","","","","","",""
"","","plant-game","0","36","494954","0-0","","200","160","2","CORN CROP","Right","200","120","8","NETTLE WEED","experimental","5","1,2,3,4,5,6,7,8","120,101.28599438042457,100.45953769427491,123.47010832875061,146.5904899578425,173.06071723625445,196.8385166653441,215.83543150399305","8,7,6,5,4,3,2,1","NETTLE WEED,NETTLE WEED,NETTLE WEED,NETTLE WEED,NETTLE WEED,NETTLE WEED,NETTLE WEED,NETTLE WEED","160,200.08169228387982,140,173.5774866034281,248.0606491394342,234.90979536853968,257.9123070157693,291.4238223212463","2,1,6,5,4,3,2,1","CORN CROP,CORN CROP,WHEAT CROP,WHEAT CROP,WHEAT CROP,WHEAT CROP,WHEAT CROP,WHEAT CROP","0,0,0,0,0,0,0,0","20,20,20,20,20,20,20,20","10,10,10,10,10,10,10,10","20,20,20,20,20,20,20,20","20,20,20,20,20,20,20,20","20,20,20,20,20,20,20,20","0,0,0,0,0,0,0,0","20,20,20,20,20,20,20,20","10,10,10,10,10,10,10,10","20,20,20,20,20,20,20,20","20,20,20,20,20,20,20,20","20,20,20,20,20,20,20,20","0,0,1,1,0,1,1,0","5445,2888,3273,1437,3057,1274,1995,2038","-18.71400561957543,-0.8264566861496601,23.010570634475698,23.12038162909189,26.470227278411954,23.777799429089633,18.996914838648955,-29.08770370580131","40.08169228387981,-2.9545562549687765,33.57748660342809,74.4831625360061,-13.150853770894525,23.002511647229582,33.511515305477005,-11.4857593112313","0","0"
"696","86","text","0","37","495802","0-0","","","","","","","","","","","","","","","","","","","","","","","","","","","","","","","","","","","","",""
"","","plant-game","0","38","518018","0-0","","200","190","4","WHEAT CROP","Left","200","120","1","NETTLE WEED","experimental","6","1,2,3,4","190,191.07693101108043,230.6547405373885,220.89632105413492","4,3,2,1","WHEAT CROP,WHEAT CROP,WHEAT CROP,WHEAT CROP","120,170,184.50519570377836,168.12859915423303","1,3,2,1","NETTLE WEED,THISTLE WEED,THISTLE WEED,THISTLE WEED","20,20,20,20","20,20,20,20","10,10,10,10","20,20,20,20","0,0,0,0","20,20,20,20","20,20,20,20","20,20,20,20","10,10,10,10","20,20,20,20","0,0,0,0","20,20,20,20","0,0,1,0","5070,4050,1790,957","1.0769310110804327,39.57780952630808,-9.7584194832536,-12.412049039642547","29.570194021934977,14.505195703778345,-16.376596549545322,28.260806872742773","0","0"
"631","86","text","0","39","518794","0-0","","","","","","","","","","","","","","","","","","","","","","","","","","","","","","","","","","","","",""
"","","plant-game","0","40","536714","0-0","","200","120","2","CORN CROP","Right","200","160","4","THISTLE WEED","experimental","7","1,2,3,4","160,185.6221016521679,179.79098831899213,225.98503972515232","4,3,2,1","THISTLE WEED,THISTLE WEED,THISTLE WEED,THISTLE WEED","120,113.6744919180272,180,183.33202028786988","2,1,2,1","CORN CROP,CORN CROP,WHEAT CROP,WHEAT CROP","0,0,0,0","20,20,20,20","10,10,10,10","20,20,20,20","20,20,20,20","20,20,20,20","0,0,0,0","20,20,20,20","10,10,10,10","20,20,20,20","20,20,20,20","20,20,20,20","1,0,1,1","2663,1387,1679,1957","25.622101652167913,-5.831113333175779,46.194051406160185,9.741452053413767","-6.325508081972792,-8.21204757279951,3.3320202878698737,16.421833457065407","0","0"
"632","86","text","0","41","537482","0-0","","","","","","","","","","","","","","","","","","","","","","","","","","","","","","","","","","","","",""
"","","plant-game","0","42","569428","0-0","","200","190","8","CORN CROP","Left","200","190","2","THISTLE WEED","experimental","8","1,2,3,4,5,6,7,8","190,193.28940599805833,204.85036427345705,218.5456106224717,229.0761881258725,224.21491962013698,251.09436752266586,221.38750147463796","8,7,6,5,4,3,2,1","CORN CROP,CORN CROP,CORN CROP,CORN CROP,CORN CROP,CORN CROP,CORN CROP,CORN CROP","190,189.52163984273798,140,174.81533099882955,183.81006500066707,207.80746503744783,239.84048847228974,266.03134270195983","2,1,6,5,4,3,2,1","THISTLE WEED,THISTLE WEED,NETTLE WEED,NETTLE WEED,NETTLE WEED,NETTLE WEED,NETTLE WEED,NETTLE WEED","20,20,20,20,20,20,20,20","20,20,20,20,20,20,20,20","10,10,10,10,10,10,10,10","20,20,20,20,20,20,20,20","0,0,0,0,0,0,0,0","20,20,20,20,20,20,20,20","20,20,20,20,20,20,20,20","20,20,20,20,20,20,20,20","10,10,10,10,10,10,10,10","20,20,20,20,20,20,20,20","0,0,0,0,0,0,0,0","20,20,20,20,20,20,20,20","1,1,0,1,1,0,1,0","6950,3202,4571,1306,2242,1858,810,1733","3.2894059980583155,11.56095827539871,13.695246349014656,10.530577503400789,-4.861268505735521,26.879447902528888,-29.706866048027916,28.92306629700293","-0.4783601572620105,1.4554044843340086,34.81533099882954,8.994734001837509,23.99740003678076,32.03302343484191,26.1908542296701,8.71657221162318","0","0"
"680","86","text","0","43","570276","0-0","","","","","","","","","","","","","","","","","","","","","","","","","","","","","","","","","","","","",""
"","","plant-game","0","44","592411","0-0","","200","180","8","WHEAT CROP","Left","200","120","8","THISTLE WEED","experimental","9","1,2,3,4,5,6,7,8","180,201.9180051731363,233.76650187417852,249.56275577617572,212.11627759735444,194.49212653737027,162.2483374565776,208.0016154734057","8,7,6,5,4,3,2,1","WHEAT CROP,WHEAT CROP,WHEAT CROP,WHEAT CROP,WHEAT CROP,WHEAT CROP,WHEAT CROP,WHEAT CROP","120,126.08328720488427,152.5153405174025,165.50189170949264,163.86017642312885,195.42923140204167,183.38725424030437,193.1615232555668","8,7,6,5,4,3,2,1","THISTLE WEED,THISTLE WEED,THISTLE WEED,THISTLE WEED,THISTLE WEED,THISTLE WEED,THISTLE WEED,THISTLE WEED","20,20,20,20,20,20,20,20","20,20,20,20,20,20,20,20","10,10,10,10,10,10,10,10","20,20,20,20,20,20,20,20","0,0,0,0,0,0,0,0","20,20,20,20,20,20,20,20","20,20,20,20,20,20,20,20","20,20,20,20,20,20,20,20","10,10,10,10,10,10,10,10","20,20,20,20,20,20,20,20","0,0,0,0,0,0,0,0","20,20,20,20,20,20,20,20","0,0,0,1,0,1,0,1","3538,1168,1777,1022,1118,2612,829,4653","21.918005173136283,31.848496701042237,15.796253901997192,-37.44647817882129,-17.62415105998418,-32.24378908079267,45.75327801682812,-39.22495503996471","6.083287204884266,26.43205331251824,12.98655119209014,-1.6417152863637776,31.569054978912824,-12.04197716173728,9.774269015262448,16.756515849461774","0","0"
"591","86","text","0","45","593116","0-0","","","","","","","","","","","","","","","","","","","","","","","","","","","","","","","","","","","","",""
"","","plant-game","0","46","616510","0-0","","200","120","4","CORN CROP","Right","200","190","1","NETTLE WEED","experimental","10","1,2,3,4","190,170,169.06272895779864,220.70230980143535","1,3,2,1","NETTLE WEED,THISTLE WEED,THISTLE WEED,THISTLE WEED","120,113.84004880492489,114.94282844687815,129.1728501845917","4,3,2,1","CORN CROP,CORN CROP,CORN CROP,CORN CROP","0,0,0,0","20,20,20,20","10,10,10,10","20,20,20,20","20,20,20,20","20,20,20,20","0,0,0,0","20,20,20,20","10,10,10,10","20,20,20,20","20,20,20,20","20,20,20,20","0,0,1,0","5724,7875,1163,1388","-0.6808400231914535,-0.9372710422013619,51.6395808436367,-56.79636234145321","-6.159951195075104,1.1027796419532665,14.230021737713567,38.052233279342424","0","0"
"896","86","text","0","47","617550","0-0","","","","","","","","","","","","","","","","","","","","","","","","","","","","","","","","","","","","",""
"","","plant-game","0","48","648734","0-0","","200","120","8","WHEAT CROP","Left","200","160","2","THISTLE WEED","experimental","11","1,2,3,4,5,6,7,8","120,129.21751291406176,156.8788698850895,184.131094731685,214.1581857601569,232.5368506532477,227.27666998751985,217.4698025744557","8,7,6,5,4,3,2,1","WHEAT CROP,WHEAT CROP,WHEAT CROP,WHEAT CROP,WHEAT CROP,WHEAT CROP,WHEAT CROP,WHEAT CROP","160,152.61134339624655,140,152.0385432664366,198.55833065273816,177.6649447008566,180.9038383899485,203.09044530885274","2,1,6,5,4,3,2,1","THISTLE WEED,THISTLE WEED,NETTLE WEED,NETTLE WEED,NETTLE WEED,NETTLE WEED,NETTLE WEED,NETTLE WEED","20,20,20,20,20,20,20,20","20,20,20,20,20,20,20,20","10,10,10,10,10,10,10,10","20,20,20,20,20,20,20,20","0,0,0,0,0,0,0,0","20,20,20,20,20,20,20,20","20,20,20,20,20,20,20,20","20,20,20,20,20,20,20,20","10,10,10,10,10,10,10,10","20,20,20,20,20,20,20,20","0,0,0,0,0,0,0,0","20,20,20,20,20,20,20,20","0,0,0,0,1,1,0,1","6204,1297,4377,1418,1587,4849,1467,1771","9.21751291406177,27.66135697102774,27.25222484659552,30.027091028471894,18.378664893090814,-5.260180665727868,-9.806867413064147,-22.823604667753532","-7.388656603753457,34.51567123340353,12.03854326643659,46.51978738630156,-20.89338595188157,3.2388936890918885,22.186606918904246,16.423161990359148","0","0"
"616","86","text","0","49","649454","0-0","","","","","","","","","","","","","","","","","","","","","","","","","","","","","","","","","","","","",""
"","","plant-game","0","50","668822","0-0","","200","120","4","CORN CROP","Right","200","120","2","NETTLE WEED","experimental","12","1,2,3,4","120,142.25278192883889,180,165.89165536494312","2,1,2,1","NETTLE WEED,NETTLE WEED,THISTLE WEED,THISTLE WEED","120,135.8032035000074,158.1354227175667,148.6022622600139","4,3,2,1","CORN CROP,CORN CROP,CORN CROP,CORN CROP","0,0,0,0","20,20,20,20","10,10,10,10","20,20,20,20","20,20,20,20","20,20,20,20","0,0,0,0","20,20,20,20","10,10,10,10","20,20,20,20","20,20,20,20","20,20,20,20","1,1,0,1","6368,1147,3730,699","22.252781928838896,13.2359720765507,-14.108344635056874,53.78265958689164","15.8032035000074,22.3322192175593,-9.533160457552798,18.790944961546167","0","0"
"536","86","text","0","51","669502","0-0","","","","","","","","","","","","","","","","","","","","","","","","","","","","","","","","","","","","",""
"","","plant-game","0","52","690736","0-0","","200","190","1","CORN CROP","Right","200","190","8","THISTLE WEED","experimental","13","1,2,3,4,5,6,7,8","190,197.27280506646397,214.74167949314943,237.62278774942692,262.01690421733144,313.3004340645401,309.55449364939295,327.4118032086144","8,7,6,5,4,3,2,1","THISTLE WEED,THISTLE WEED,THISTLE WEED,THISTLE WEED,THISTLE WEED,THISTLE WEED,THISTLE WEED,THISTLE WEED","190,130,106.70032134151371,96.68331556468962,66.22293618109094,59.19870760077073,77.72360668036588,53.82602097974557","1,7,6,5,4,3,2,1","CORN CROP,WHEAT CROP,WHEAT CROP,WHEAT CROP,WHEAT CROP,WHEAT CROP,WHEAT CROP,WHEAT CROP","0,0,0,0,0,0,0,0","20,20,20,20,20,20,20,20","10,10,10,10,10,10,10,10","20,20,20,20,20,20,20,20","20,20,20,20,20,20,20,20","20,20,20,20,20,20,20,20","0,0,0,0,0,0,0,0","20,20,20,20,20,20,20,20","10,10,10,10,10,10,10,10","20,20,20,20,20,20,20,20","20,20,20,20,20,20,20,20","20,20,20,20,20,20,20,20","1,0,1,1,1,0,0,0","2169,3672,1741,1461,612,772,371,68","7.2728050664639845,17.468874426685446,22.881108256277486,24.394116467904524,51.28352984720868,-3.7459404151471833,17.857309559221473,-19.061419845952187","-0.7935258724851479,-23.299678658486286,-10.017005776824092,-30.46037938359867,-7.024228580320212,18.524899079595144,-23.897585700620304,31.643339827582516","0","0"
"688","86","text","0","53","691560","0-0","","","","","","","","","","","","","","","","","","","","","","","","","","","","","","","","","","","","",""
"","","plant-game","0","54","721287","0-0","","200","190","8","CORN CROP","Right","200","120","2","THISTLE WEED","experimental","14","1,2,3,4,5,6,7,8","120,154.80462440718543,140,109.67142662903846,96.55518997497435,116.00320139865858,91.31972638127098,51.40095135110068","2,1,6,5,4,3,2,1","THISTLE WEED,THISTLE WEED,NETTLE WEED,NETTLE WEED,NETTLE WEED,NETTLE WEED,NETTLE WEED,NETTLE WEED","190,194.06556233134563,243.0308486028613,239.24802521719863,263.8711367380459,210.505002731206,215.71574847941528,199.21208233490773","8,7,6,5,4,3,2,1","CORN CROP,CORN CROP,CORN CROP,CORN CROP,CORN CROP,CORN CROP,CORN CROP,CORN CROP","0,0,0,0,0,0,0,0","20,20,20,20,20,20,20,20","10,10,10,10,10,10,10,10","20,20,20,20,20,20,20,20","20,20,20,20,20,20,20,20","20,20,20,20,20,20,20,20","0,0,0,0,0,0,0,0","20,20,20,20,20,20,20,20","10,10,10,10,10,10,10,10","20,20,20,20,20,20,20,20","20,20,20,20,20,20,20,20","20,20,20,20,20,20,20,20","1,1,0,0,0,0,0,1","5422,1402,6721,1602,1449,1767,1661,1412","34.80462440718542,24.074600146052088,-30.328573370961532,-13.116236654064103,19.44801142368422,-24.683475017387586,-39.9187750301703,16.48213162208781","4.065562331345642,48.96528627151568,-3.7828233856626685,24.62311152084725,-53.366134006839914,5.210745748209292,-16.503666144507562,20.761079791784297","0","0"
"799","86","text","0","55","722239","0-0","","","","","","","","","","","","","","","","","","","","","","","","","","","","","","","","","","","","",""
"","","plant-game","0","56","743243","0-0","","200","120","4","WHEAT CROP","Left","200","120","1","THISTLE WEED","experimental","15","1,2,3,4","120,102.21407516232448,117.91022840855541,172.17752169211255","4,3,2,1","WHEAT CROP,WHEAT CROP,WHEAT CROP,WHEAT CROP","120,170,194.73049706678003,167.48269159978287","1,3,2,1","THISTLE WEED,NETTLE WEED,NETTLE WEED,NETTLE WEED","20,20,20,20","20,20,20,20","10,10,10,10","20,20,20,20","0,0,0,0","20,20,20,20","20,20,20,20","20,20,20,20","10,10,10,10","20,20,20,20","0,0,0,0","20,20,20,20","0,0,1,1","4311,4696,2195,2740","-17.785924837675523,15.696153246230942,54.26729328355714,31.43447380033097","20.83556431335452,24.73049706678003,-27.247805466997164,-22.372912171933535","0","0"
"768","86","text","0","57","744155","0-0","","","","","","","","","","","","","","","","","","","","","","","","","","","","","","","","","","","","",""
"","","plant-game","0","58","768370","0-0","","200","180","8","WHEAT CROP","Right","200","180","8","NETTLE WEED","experimental","16","1,2,3,4,5,6,7,8","180,210.29453928238138,222.6329500141975,213.39924238473287,194.51302446575477,181.4950156868547,198.09758762000894,249.46171273907862","8,7,6,5,4,3,2,1","NETTLE WEED,NETTLE WEED,NETTLE WEED,NETTLE WEED,NETTLE WEED,NETTLE WEED,NETTLE WEED,NETTLE WEED","180,178.2969307328507,208.07808131114663,209.9166020549658,220.86232530539843,228.47745755038122,250.48216395064748,261.6583869257076","8,7,6,5,4,3,2,1","WHEAT CROP,WHEAT CROP,WHEAT CROP,WHEAT CROP,WHEAT CROP,WHEAT CROP,WHEAT CROP,WHEAT CROP","0,0,0,0,0,0,0,0","20,20,20,20,20,20,20,20","10,10,10,10,10,10,10,10","20,20,20,20,20,20,20,20","20,20,20,20,20,20,20,20","20,20,20,20,20,20,20,20","0,0,0,0,0,0,0,0","20,20,20,20,20,20,20,20","10,10,10,10,10,10,10,10","20,20,20,20,20,20,20,20","20,20,20,20,20,20,20,20","20,20,20,20,20,20,20,20","1,1,0,0,0,0,1,0","5336,1752,1601,1505,1530,1451,2124,1540","30.29453928238139,12.338410731816097,-9.23370762946461,-18.886217918978105,-13.018008778900043,16.602571933154234,51.3641251190697,-24.38467514888344","-1.7030692671492957,29.78115057829592,1.838520743819179,10.945723250432618,7.615132244982795,22.004706400266247,11.176222975060101,5.39531484263855","0","0"
"4063","86","text","0","59","772554","0-0","","","","","","","","","","","","","","","","","","","","","","","","","","","","","","","","","","","","",""
"","","plant-game","0","60","790442","0-0","","200","160","8","CORN CROP","Right","200","190","8","THISTLE WEED","experimental","17","1,2,3,4,5,6,7,8","190,208.53001969395805,232.85791122579033,217.77836918805806,247.45198584875436,224.73905586526655,183.24540272320166,211.2829525950997","8,7,6,5,4,3,2,1","THISTLE WEED,THISTLE WEED,THISTLE WEED,THISTLE WEED,THISTLE WEED,THISTLE WEED,THISTLE WEED,THISTLE WEED","160,160.12554151392695,184.59234084922298,233.18163303564103,257.19967080325614,228.8099727817516,259.1705638050247,285.0663513944274","8,7,6,5,4,3,2,1","CORN CROP,CORN CROP,CORN CROP,CORN CROP,CORN CROP,CORN CROP,CORN CROP,CORN CROP","0,0,0,0,0,0,0,0","20,20,20,20,20,20,20,20","10,10,10,10,10,10,10,10","20,20,20,20,20,20,20,20","20,20,20,20,20,20,20,20","20,20,20,20,20,20,20,20","0,0,0,0,0,0,0,0","20,20,20,20,20,20,20,20","10,10,10,10,10,10,10,10","20,20,20,20,20,20,20,20","20,20,20,20,20,20,20,20","20,20,20,20,20,20,20,20","0,1,1,1,0,0,1,0","4621,1875,616,837,1075,690,1723,1148","18.530019693958046,24.32789153183228,-15.07954203773226,29.673616660696297,-22.712929983487818,-41.493653142064886,28.037549871898033,3.6325611888913345","0.1255415139269511,24.466799335296038,48.589292186418035,24.01803776761514,-28.389698021504536,30.36059102327307,25.895787589402666,-6.235450005948038","0","0"
"680","86","text","0","61","791210","0-0","","","","","","","","","","","","","","","","","","","","","","","","","","","","","","","","","","","","",""
"","","plant-game","0","62","810021","0-0","","200","190","2","WHEAT CROP","Right","200","180","4","THISTLE WEED","experimental","18","1,2,3,4","180,228.9796109001719,223.8392597339584,250.1670477491227","4,3,2,1","THISTLE WEED,THISTLE WEED,THISTLE WEED,THISTLE WEED","190,203.617174216197,180,190.18464748034205","2,1,2,1","WHEAT CROP,WHEAT CROP,CORN CROP,CORN CROP","0,0,0,0","20,20,20,20","10,10,10,10","20,20,20,20","20,20,20,20","20,20,20,20","0,0,0,0","20,20,20,20","10,10,10,10","20,20,20,20","20,20,20,20","20,20,20,20","1,0,1,1","5184,931,3011,903","48.979610900171906,-5.14035116621352,26.327788015164323,14.318832280461892","13.617174216196972,-38.025296538515164,10.184647480342065,16.880312061860742","0","0"
"640","86","text","0","63","810789","0-0","","","","","","","","","","","","","","","","","","","","","","","","","","","","","","","","","","","","",""
"","","plant-game","0","64","833749","0-0","","200","180","1","CORN CROP","Right","200","180","8","NETTLE WEED","experimental","19","1,2,3,4,5,6,7,8","180,189.68933815666412,171.79402162161597,179.2968920330004,176.78812874458217,221.340277976726,248.18554448347612,250.00437149180453","8,7,6,5,4,3,2,1","NETTLE WEED,NETTLE WEED,NETTLE WEED,NETTLE WEED,NETTLE WEED,NETTLE WEED,NETTLE WEED,NETTLE WEED","180,130,156.66940018346807,182.19327968919026,180.05213194176991,199.09454746890336,219.3622021200997,214.95793278792547","1,7,6,5,4,3,2,1","CORN CROP,WHEAT CROP,WHEAT CROP,WHEAT CROP,WHEAT CROP,WHEAT CROP,WHEAT CROP,WHEAT CROP","0,0,0,0,0,0,0,0","20,20,20,20,20,20,20,20","10,10,10,10,10,10,10,10","20,20,20,20,20,20,20,20","20,20,20,20,20,20,20,20","20,20,20,20,20,20,20,20","0,0,0,0,0,0,0,0","20,20,20,20,20,20,20,20","10,10,10,10,10,10,10,10","20,20,20,20,20,20,20,20","20,20,20,20,20,20,20,20","20,20,20,20,20,20,20,20","1,1,1,1,1,0,0,1","4883,2685,1132,970,1586,1162,1316,711","9.689338156664114,-17.895316535048167,7.502870411384437,-2.508763288418244,44.552149232143805,26.84526650675013,1.8188270083284166,31.249931340405663","9.254351578082199,26.669400183468074,25.523879505722192,-2.141147747420341,19.042415527133446,20.26765465119634,-4.404269332174243,16.266378226385452","0","0"
"608","86","text","0","65","834557","0-0","","","","","","","","","","","","","","","","","","","","","","","","","","","","","","","","","","","","",""
"","","plant-game","0","66","851661","0-0","","200","160","2","WHEAT CROP","Right","200","160","1","NETTLE WEED","experimental","20","1,2","160,190","1,1","NETTLE WEED,THISTLE WEED","160,136.39349898584075","2,1","WHEAT CROP,WHEAT CROP","0,0","20,20","10,10","20,20","20,20","20,20","0,0","20,20","10,10","20,20","20,20","20,20","0,1","3128,4565","-28.803227282970838,60.769858445066816","-23.60650101415926,20.028601392303564","0","0"
"800","86","text","0","67","852557","0-0","","","","","","","","","","","","","","","","","","","","","","","","","","","","","","","","","","","","",""
"","","plant-game","0","68","876447","0-0","","200","160","1","WHEAT CROP","Right","200","180","8","THISTLE WEED","experimental","21","1,2,3,4,5,6,7,8","180,176.61867241936102,179.96041706981717,172.8798023163073,211.86884841593863,263.92986175230686,261.61223975601513,267.4716829476146","8,7,6,5,4,3,2,1","THISTLE WEED,THISTLE WEED,THISTLE WEED,THISTLE WEED,THISTLE WEED,THISTLE WEED,THISTLE WEED,THISTLE WEED","160,130,115.74539665837096,149.60226858735592,145.9985514895113,165.28849838275127,161.4448662604169,194.06109368567832","1,7,6,5,4,3,2,1","WHEAT CROP,CORN CROP,CORN CROP,CORN CROP,CORN CROP,CORN CROP,CORN CROP,CORN CROP","0,0,0,0,0,0,0,0","20,20,20,20,20,20,20,20","10,10,10,10,10,10,10,10","20,20,20,20,20,20,20,20","20,20,20,20,20,20,20,20","20,20,20,20,20,20,20,20","0,0,0,0,0,0,0,0","20,20,20,20,20,20,20,20","10,10,10,10,10,10,10,10","20,20,20,20,20,20,20,20","20,20,20,20,20,20,20,20","20,20,20,20,20,20,20,20","0,1,1,1,1,0,0,0","5177,2333,1809,1094,2524,815,643,804","-3.381327580638967,3.3417446504561497,-7.080614753509874,38.98904609963133,52.06101333636825,-2.317621996291717,5.859443191599506,-25.861352568713837","-18.17749585632289,-14.254603341629036,33.85687192898496,-3.6037170978446156,19.28994689323998,-3.8436321223343883,32.61622742526143,4.743322282717624","0","0"
"527","86","text","0","69","877104","0-0","","","","","","","","","","","","","","","","","","","","","","","","","","","","","","","","","","","","",""
"","","plant-game","0","70","907031","0-0","","200","160","8","CORN CROP","Right","200","160","8","NETTLE WEED","experimental","22","1,2,3,4,5,6,7,8","160,176.71419698395906,188.14280661104348,190.94519881199125,197.7586629845149,253.7236074759548,226.66960530407886,236.78039525200947","8,7,6,5,4,3,2,1","NETTLE WEED,NETTLE WEED,NETTLE WEED,NETTLE WEED,NETTLE WEED,NETTLE WEED,NETTLE WEED,NETTLE WEED","160,166.55029874391565,212.59111327641978,230.07845982422555,260.8600106459924,289.2200791413099,272.14758450229414,262.85418086012714","8,7,6,5,4,3,2,1","CORN CROP,CORN CROP,CORN CROP,CORN CROP,CORN CROP,CORN CROP,CORN CROP,CORN CROP","0,0,0,0,0,0,0,0","20,20,20,20,20,20,20,20","10,10,10,10,10,10,10,10","20,20,20,20,20,20,20,20","20,20,20,20,20,20,20,20","20,20,20,20,20,20,20,20","0,0,0,0,0,0,0,0","20,20,20,20,20,20,20,20","10,10,10,10,10,10,10,10","20,20,20,20,20,20,20,20","20,20,20,20,20,20,20,20","20,20,20,20,20,20,20,20","1,1,1,1,1,0,0,0","8323,2688,2791,2058,2199,2276,1535,2296","16.71419698395905,11.428609627084429,2.8023922009477538,6.813464172523654,55.96494449143991,-27.054002171875943,10.110789947930616,-22.30615947300359","6.550298743915645,46.04081453250413,17.487346547805778,30.781550821766885,28.36006849531749,-17.072494639015765,-9.293403642166965,-25.71327889297798","0","0"
"544","86","text","0","71","907687","0-0","","","","","","","","","","","","","","","","","","","","","","","","","","","","","","","","","","","","",""
"","","plant-game","0","72","916039","0-0","","200","160","2","WHEAT CROP","Right","200","120","2","THISTLE WEED","experimental","23","1,2","120,159.17734839478425","2,1","THISTLE WEED,THISTLE WEED","160,179.88766374752234","2,1","WHEAT CROP,WHEAT CROP","0,0","20,20","10,10","20,20","20,20","20,20","0,0","20,20","10,10","20,20","20,20","20,20","1,1","3113,988","39.17734839478423,32.011804517159774","19.887663747522343,2.315669662434214","0","0"
"945","86","text","0","73","917104","0-0","","","","","","","","","","","","","","","","","","","","","","","","","","","","","","","","","","","","",""
"","","plant-game","0","74","937385","0-0","","200","120","4","WHEAT CROP","Right","200","160","2","NETTLE WEED","experimental","24","1,2,3,4","160,173.4938938431681,180,179.98411728569522","2,1,2,1","NETTLE WEED,NETTLE WEED,THISTLE WEED,THISTLE WEED","120,118.04197315677264,138.85878122535175,135.39702992876525","4,3,2,1","WHEAT CROP,WHEAT CROP,WHEAT CROP,WHEAT CROP","0,0,0,0","20,20,20,20","10,10,10,10","20,20,20,20","20,20,20,20","20,20,20,20","0,0,0,0","20,20,20,20","10,10,10,10","20,20,20,20","20,20,20,20","20,20,20,20","0,1,1,1","3978,994,7539,1375","13.493893843168102,-20.932136555552958,-0.015882714304780166,-28.240477364282192","-1.9580268432273527,20.816808068579103,-3.461751296586499,20.4160916428182","0","0"
"631","86","text","0","75","938121","0-0","","","","","","","","","","","","","","","","","","","","","","","","","","","","","","","","","","","","",""
"","","plant-game","0","76","945385","0-0","","200","120","1","CORN CROP","Right","200","160","1","NETTLE WEED","experimental","25","1","160","1","NETTLE WEED","120","1","CORN CROP","0","20","10","20","20","20","0","20","10","20","20","20","1","3584","-10.79650817895724","28.862055702031398","0","0"
"576","86","text","0","77","946105","0-0","","","","","","","","","","","","","","","","","","","","","","","","","","","","","","","","","","","","",""
"","","plant-game","0","78","968144","0-0","","200","180","4","WHEAT CROP","Left","200","160","8","NETTLE WEED","experimental","26","1,2,3,4,5,6,7,8","180,194.33241260961853,229.73576988103906,258.85624795151784,160,148.58356538170017,173.44979829573316,192.31782943079122","4,3,2,1,4,3,2,1","WHEAT CROP,WHEAT CROP,WHEAT CROP,WHEAT CROP,CORN CROP,CORN CROP,CORN CROP,CORN CROP","160,200.2634369154403,220.38864678075063,266.496423431959,284.5869413520246,304.83188347946043,365.8527571652751,354.28402449239036","8,7,6,5,4,3,2,1","NETTLE WEED,NETTLE WEED,NETTLE WEED,NETTLE WEED,NETTLE WEED,NETTLE WEED,NETTLE WEED,NETTLE WEED","20,20,20,20,20,20,20,20","20,20,20,20,20,20,20,20","10,10,10,10,10,10,10,10","20,20,20,20,20,20,20,20","0,0,0,0,0,0,0,0","20,20,20,20,20,20,20,20","20,20,20,20,20,20,20,20","20,20,20,20,20,20,20,20","10,10,10,10,10,10,10,10","20,20,20,20,20,20,20,20","0,0,0,0,0,0,0,0","20,20,20,20,20,20,20,20","0,0,0,1,1,0,1,0","2117,3100,1819,522,2922,1043,1204,1087","14.33241260961853,35.403357271420525,29.120478070478764,-11.120442854976035,-11.416434618299833,24.866232914032995,18.86803113505805,19.353411679790803","40.2634369154403,20.125209865310328,46.10777665120833,18.090517920065608,20.244942127435806,61.020873685814664,-11.568732672884716,60.24810639931126","0","0"
"552","86","text","0","79","968849","0-0","","","","","","","","","","","","","","","","","","","","","","","","","","","","","","","","","","","","",""
"","","plant-game","0","80","987620","0-0","","200","180","4","WHEAT CROP","Right","200","190","2","THISTLE WEED","experimental","27","1,2,3,4","190,158.2420656568199,180,160.53462041859433","2,1,2,1","THISTLE WEED,THISTLE WEED,NETTLE WEED,NETTLE WEED","180,161.34531923948128,157.30574889561632,145.79289955375393","4,3,2,1","WHEAT CROP,WHEAT CROP,WHEAT CROP,WHEAT CROP","0,0,0,0","20,20,20,20","10,10,10,10","20,20,20,20","20,20,20,20","20,20,20,20","0,0,0,0","20,20,20,20","10,10,10,10","20,20,20,20","20,20,20,20","20,20,20,20","0,0,0,1","4720,2395,3574,693","-31.757934343180104,-20.621197798769316,-19.465379581405685,-13.6279650224484","-18.65468076051872,-4.039570343864969,-11.512849341862392,59.2738104617585","0","0"
"775","86","text","0","81","988500","0-0","","","","","","","","","","","","","","","","","","","","","","","","","","","","","","","","","","","","",""
"","","plant-game","0","82","1008476","0-0","","200","160","4","CORN CROP","Right","200","160","2","THISTLE WEED","experimental","28","1,2,3,4","160,191.95994218215827,180,207.03790769444223","2,1,2,1","THISTLE WEED,THISTLE WEED,NETTLE WEED,NETTLE WEED","160,164.05521277797223,166.29215792289807,168.75881216103554","4,3,2,1","CORN CROP,CORN CROP,CORN CROP,CORN CROP","0,0,0,0","20,20,20,20","10,10,10,10","20,20,20,20","20,20,20,20","20,20,20,20","0,0,0,0","20,20,20,20","10,10,10,10","20,20,20,20","20,20,20,20","20,20,20,20","1,0,0,1","5103,3419,3003,2740","31.959942182158283,-15.720712115980264,27.037907694442232,11.860558521082154","4.055212777972228,2.236945144925839,2.4666542381374685,62.747715551866996","0","0"
"592","86","text","0","83","1009188","0-0","","","","","","","","","","","","","","","","","","","","","","","","","","","","","","","","","","","","",""
"","","plant-game","0","84","1031003","0-0","","200","190","2","WHEAT CROP","Right","200","160","8","THISTLE WEED","experimental","29","1,2,3,4,5,6,7,8","160,160.558137073226,139.68496558997208,145.1924567774044,177.38019086506307,156.82571363712376,165.23483723423777,209.2004759805204","8,7,6,5,4,3,2,1","THISTLE WEED,THISTLE WEED,THISTLE WEED,THISTLE WEED,THISTLE WEED,THISTLE WEED,THISTLE WEED,THISTLE WEED","190,198.48884219740165,140,100.27704953292185,140.52613226279928,157.0554753050746,145.0293694094608,166.21685583103948","2,1,6,5,4,3,2,1","WHEAT CROP,WHEAT CROP,CORN CROP,CORN CROP,CORN CROP,CORN CROP,CORN CROP,CORN CROP","0,0,0,0,0,0,0,0","20,20,20,20,20,20,20,20","10,10,10,10,10,10,10,10","20,20,20,20,20,20,20,20","20,20,20,20,20,20,20,20","20,20,20,20,20,20,20,20","0,0,0,0,0,0,0,0","20,20,20,20,20,20,20,20","10,10,10,10,10,10,10,10","20,20,20,20,20,20,20,20","20,20,20,20,20,20,20,20","20,20,20,20,20,20,20,20","0,0,0,1,0,0,1,0","4001,1410,4134,1170,1041,1179,1205,1211","0.5581370732259987,-20.873171483253913,5.507491187432335,32.18773408765868,-20.554477227939316,8.409123597114027,43.96563874628262,-19.798223521810794","8.488842197401649,25.85148592885143,-39.72295046707815,40.249082729877436,16.52934304227533,-12.026105895613783,21.18748642157868,-20.93049141393623","0","0"
"559","86","text","0","85","1031667","0-0","","","","","","","","","","","","","","","","","","","","","","","","","","","","","","","","","","","","",""
"","","plant-game","0","86","1051142","0-0","","200","160","8","CORN CROP","Right","200","190","2","NETTLE WEED","experimental","30","1,2,3,4,5,6,7,8","190,181.3639270599652,140,134.71012955356534,133.9229883458628,129.11353341746437,145.19155029581793,180.95497871767594","2,1,6,5,4,3,2,1","NETTLE WEED,NETTLE WEED,THISTLE WEED,THISTLE WEED,THISTLE WEED,THISTLE WEED,THISTLE WEED,THISTLE WEED","160,166.11279196183244,149.67208621128938,189.49855930283684,186.62987322456098,194.83596411107195,189.45731551833728,198.04666654730704","8,7,6,5,4,3,2,1","CORN CROP,CORN CROP,CORN CROP,CORN CROP,CORN CROP,CORN CROP,CORN CROP,CORN CROP","0,0,0,0,0,0,0,0","20,20,20,20,20,20,20,20","10,10,10,10,10,10,10,10","20,20,20,20,20,20,20,20","20,20,20,20,20,20,20,20","20,20,20,20,20,20,20,20","0,0,0,0,0,0,0,0","20,20,20,20,20,20,20,20","10,10,10,10,10,10,10,10","20,20,20,20,20,20,20,20","20,20,20,20,20,20,20,20","20,20,20,20,20,20,20,20","0,0,1,1,1,1,1,0","3740,1329,1253,1066,1082,1917,1164,1094","-8.636072940034818,2.034160330440005,-5.289870446434662,-0.787141207702561,-4.80945492839842,16.07801687835355,35.763428421858,-21.815430182828127","6.112791961832453,-16.44070575054306,39.826473091547456,-2.86868607827585,8.206090886510973,-5.378648592734656,8.589351028969762,8.378550241699704","0","0"
"711","86","text","0","87","1051966","0-0","","","","","","","","","","","","","","","","","","","","","","","","","","","","","","","","","","","","",""
"","","plant-game","0","88","1068094","0-0","","200","120","8","CORN CROP","Right","200","190","2","NETTLE WEED","experimental","31","1,2,3,4,5,6,7,8","190,153.01637230099166,140,166.09712523123596,164.87727262179624,195.04792831388818,168.76449124506863,190.03322523572925","2,1,6,5,4,3,2,1","NETTLE WEED,NETTLE WEED,THISTLE WEED,THISTLE WEED,THISTLE WEED,THISTLE WEED,THISTLE WEED,THISTLE WEED","120,88.81267650945965,79.23891688925977,124.89370870228825,104.75527069436575,119.56673144221608,134.09764421133508,108.85203324342658","8,7,6,5,4,3,2,1","CORN CROP,CORN CROP,CORN CROP,CORN CROP,CORN CROP,CORN CROP,CORN CROP,CORN CROP","0,0,0,0,0,0,0,0","20,20,20,20,20,20,20,20","10,10,10,10,10,10,10,10","20,20,20,20,20,20,20,20","20,20,20,20,20,20,20,20","20,20,20,20,20,20,20,20","0,0,0,0,0,0,0,0","20,20,20,20,20,20,20,20","10,10,10,10,10,10,10,10","20,20,20,20,20,20,20,20","20,20,20,20,20,20,20,20","20,20,20,20,20,20,20,20","0,0,1,0,1,0,0,0","1832,1307,697,941,881,1070,1956,1847","-36.98362769900834,4.914648194726468,26.09712523123595,-1.2198526094397302,30.17065569209193,-26.283437068819545,21.26873399066063,24.547074219474567","-31.187323490540354,-9.573759620199874,45.65479181302849,-20.138438007922502,14.811460747850326,14.530912769119,-25.24561096790851,-13.265513467777147","0","0"
"960","86","text","0","89","1069198","0-0","","","","","","","","","","","","","","","","","","","","","","","","","","","","","","","","","","","","",""
"","","plant-game","0","90","1083614","0-0","","200","160","4","CORN CROP","Right","200","160","1","THISTLE WEED","experimental","32","1,2,3,4","160,170,178.5139898813534,195.97513389061425","1,3,2,1","THISTLE WEED,NETTLE WEED,NETTLE WEED,NETTLE WEED","160,162.48772617284914,163.81036858522288,149.7500440961291","4,3,2,1","CORN CROP,CORN CROP,CORN CROP,CORN CROP","0,0,0,0","20,20,20,20","10,10,10,10","20,20,20,20","20,20,20,20","20,20,20,20","0,0,0,0","20,20,20,20","10,10,10,10","20,20,20,20","20,20,20,20","20,20,20,20","1,0,0,1","2807,4075,932,1020","9.460784533318554,8.5139898813534,17.461144009260835,6.696104042329008","2.4877261728491504,1.322642412373747,-14.060324489093768,12.47000933604093","0","0"
"1872","86","text","0","91","1085614","0-0","","","","","","","","","","","","","","","","","","","","","","","","","","","","","","","","","","","","",""
"","","plant-game","0","92","1101790","0-0","","200","160","2","WHEAT CROP","Left","200","190","1","THISTLE WEED","experimental","33","1,2","160,159.35146439059866","2,1","WHEAT CROP,WHEAT CROP","190,190","1,1","THISTLE WEED,NETTLE WEED","20,20","20,20","10,10","20,20","0,0","20,20","20,20","20,20","10,10","20,20","0,0","20,20","1,1","6170,4459","-0.6485356094013268,21.501379644089305","18.535635465968518,-4.618017809947465","0","0"
"616","86","text","0","93","1102526","0-0","","","","","","","","","","","","","","","","","","","","","","","","","","","","","","","","","","","","",""
"","","plant-game","0","94","1118057","0-0","","200","120","4","CORN CROP","Right","200","180","1","NETTLE WEED","experimental","34","1,2,3,4","180,170,193.37492669021697,190.86998077309417","1,3,2,1","NETTLE WEED,THISTLE WEED,THISTLE WEED,THISTLE WEED","120,163.98405352113897,162.3298021188985,162.50594036280793","4,3,2,1","CORN CROP,CORN CROP,CORN CROP,CORN CROP","0,0,0,0","20,20,20,20","10,10,10,10","20,20,20,20","20,20,20,20","20,20,20,20","0,0,0,0","20,20,20,20","10,10,10,10","20,20,20,20","20,20,20,20","20,20,20,20","0,0,0,1","3668,3050,1853,1190","-2.2321171039664844,23.37492669021698,-2.5049459171227935,16.43584743679007","43.98405352113898,-1.654251402240468,0.1761382439094224,17.854242936973442","0","0"
"536","86","text","0","95","1118713","0-0","","","","","","","","","","","","","","","","","","","","","","","","","","","","","","","","","","","","",""
"","","plant-game","0","96","1132777","0-0","","200","180","2","CORN CROP","Right","200","190","1","THISTLE WEED","experimental","35","1,2","190,190","1,1","THISTLE WEED,NETTLE WEED","180,177.95018075611168","2,1","CORN CROP,CORN CROP","0,0","20,20","10,10","20,20","20,20","20,20","0,0","20,20","10,10","20,20","20,20","20,20","0,1","4782,4094","3.149977227122597,32.110489784987024","-2.0498192438883294,39.612272217983985","0","0"
"656","86","text","0","97","1133569","0-0","","","","","","","","","","","","","","","","","","","","","","","","","","","","","","","","","","","","",""
"","","plant-game","0","98","1143320","0-0","","200","180","4","CORN CROP","Right","200","160","4","THISTLE WEED","experimental","36","1,2,3,4","160,202.49591257308626,190.87121598908982,202.113508957724","4,3,2,1","THISTLE WEED,THISTLE WEED,THISTLE WEED,THISTLE WEED","180,163.34088434299946,125.71793369679747,164.88656911350245","4,3,2,1","CORN CROP,CORN CROP,CORN CROP,CORN CROP","0,0,0,0","20,20,20,20","10,10,10,10","20,20,20,20","20,20,20,20","20,20,20,20","0,0,0,0","20,20,20,20","10,10,10,10","20,20,20,20","20,20,20,20","20,20,20,20","1,0,1,1","1586,1677,1053,1485","42.49591257308625,-11.62469658399644,11.242292968634187,8.923861475433695","-16.659115657000555,-37.622950646201986,39.168635416704966,53.56344993420378","0","0"
"537","86","text","0","99","1144017","0-0","","","","","","","","","","","","","","","","","","","","","","","","","","","","","","","","","","","","",""
"","","plant-game","0","100","1163057","0-0","","200","190","8","CORN CROP","Right","200","180","1","THISTLE WEED","experimental","37","1,2,3,4,5,6,7,8","180,130,153.9085016757956,181.10925138587885,171.43554580169152,161.59821545699032,153.52715290001888,173.17451579809273","1,7,6,5,4,3,2,1","THISTLE WEED,NETTLE WEED,NETTLE WEED,NETTLE WEED,NETTLE WEED,NETTLE WEED,NETTLE WEED,NETTLE WEED","190,185.11398122648995,197.34937859851868,217.92704027164316,217.47554161154054,263.53450505067656,292.8631127401761,321.95394122965433","8,7,6,5,4,3,2,1","CORN CROP,CORN CROP,CORN CROP,CORN CROP,CORN CROP,CORN CROP,CORN CROP,CORN CROP","0,0,0,0,0,0,0,0","20,20,20,20,20,20,20,20","10,10,10,10,10,10,10,10","20,20,20,20,20,20,20,20","20,20,20,20,20,20,20,20","20,20,20,20,20,20,20,20","0,0,0,0,0,0,0,0","20,20,20,20,20,20,20,20","10,10,10,10,10,10,10,10","20,20,20,20,20,20,20,20","20,20,20,20,20,20,20,20","20,20,20,20,20,20,20,20","1,1,1,0,1,0,1,0","3066,1655,603,1788,693,1381,1478,1312","-7.3473762047660784,23.908501675795616,27.200749710083254,-9.67370558418734,-9.837330344701197,-8.071062556971448,19.64736289807386,-6.681606645298105","-4.886018773510052,12.235397372028718,20.577661673124492,-0.4514986601026313,46.058963439135994,29.328607689499535,29.0908284894782,12.870912400853507","0","0"
"560","86","text","0","101","1163745","0-0","","","","","","","","","","","","","","","","","","","","","","","","","","","","","","","","","","","","",""
"","","plant-game","0","102","1178178","0-0","","200","160","2","WHEAT CROP","Right","200","180","4","THISTLE WEED","experimental","38","1,2,3,4","180,148.11583080506713,137.12307348469943,151.68190688175514","4,3,2,1","THISTLE WEED,THISTLE WEED,THISTLE WEED,THISTLE WEED","160,133.93984658225958,180,179.21810344502637","2,1,2,1","WHEAT CROP,WHEAT CROP,CORN CROP,CORN CROP","0,0,0,0","20,20,20,20","10,10,10,10","20,20,20,20","20,20,20,20","20,20,20,20","0,0,0,0","20,20,20,20","10,10,10,10","20,20,20,20","20,20,20,20","20,20,20,20","0,1,1,0","3212,1533,1950,1376","-31.884169194932866,-10.992757320367698,14.558833397055711,-27.35588045602394","-26.060153417740434,-2.0280895643854926,-0.7818965549736205,3.4468876709171425","0","0"
"513","86","text","0","103","1178827","0-0","","","","","","","","","","","","","","","","","","","","","","","","","","","","","","","","","","","","",""
"","","plant-game","0","104","1194826","0-0","","200","120","1","WHEAT CROP","Left","200","190","4","NETTLE WEED","experimental","39","1,2,3,4","120,170,136.7893266161675,184.42176664272284","1,3,2,1","WHEAT CROP,CORN CROP,CORN CROP,CORN CROP","190,231.4070974889761,229.30895736091009,252.4761565480934","4,3,2,1","NETTLE WEED,NETTLE WEED,NETTLE WEED,NETTLE WEED","20,20,20,20","20,20,20,20","10,10,10,10","20,20,20,20","0,0,0,0","20,20,20,20","20,20,20,20","20,20,20,20","10,10,10,10","20,20,20,20","0,0,0,0","20,20,20,20","0,1,0,1","6106,2581,1078,742","43.992553971474834,-33.2106733838325,47.63244002655536,-2.3886926355163367","41.40709748897609,-2.0981401280660132,23.167199187183307,6.453661201751794","0","0"
"648","86","text","0","105","1195610","0-0","","","","","","","","","","","","","","","","","","","","","","","","","","","","","","","","","","","","",""
"","","plant-game","0","106","1215555","0-0","","200","190","8","WHEAT CROP","Left","200","180","2","NETTLE WEED","experimental","40","1,2,3,4,5,6,7,8","190,225.82449722752227,255.47023143813604,278.3834387038094,277.2496815469984,293.0152944602486,268.13929704068823,308.8569590856327","8,7,6,5,4,3,2,1","WHEAT CROP,WHEAT CROP,WHEAT CROP,WHEAT CROP,WHEAT CROP,WHEAT CROP,WHEAT CROP,WHEAT CROP","180,226.40198005052224,140,157.39075529651137,146.11694987263286,188.1944107184966,180.95138134463926,256.91160758750016","2,1,6,5,4,3,2,1","NETTLE WEED,NETTLE WEED,THISTLE WEED,THISTLE WEED,THISTLE WEED,THISTLE WEED,THISTLE WEED,THISTLE WEED","20,20,20,20,20,20,20,20","20,20,20,20,20,20,20,20","10,10,10,10,10,10,10,10","20,20,20,20,20,20,20,20","0,0,0,0,0,0,0,0","20,20,20,20,20,20,20,20","20,20,20,20,20,20,20,20","20,20,20,20,20,20,20,20","10,10,10,10,10,10,10,10","20,20,20,20,20,20,20,20","0,0,0,0,0,0,0,0","20,20,20,20,20,20,20,20","0,0,0,1,0,1,0,1","3530,1621,2320,781,701,574,1614,993","35.82449722752227,29.64573421061376,22.91320726567337,-1.1337571568110194,15.76561291325022,-24.875997419560374,40.71766204494447,9.015419257382714","46.401980050522226,25.325831685914533,17.39075529651138,-11.273805423878521,42.077460845863754,-7.243029373857354,75.96022624286093,-10.485665333289777","0","0"
"615","86","text","0","107","1216306","0-0","","","","","","","","","","","","","","","","","","","","","","","","","","","","","","","","","","","","",""
"","","plant-game","0","108","1238621","0-0","","200","160","8","CORN CROP","Right","200","180","4","THISTLE WEED","experimental","41","1,2,3,4,5,6,7,8","180,200.39728672505007,255.47645524902953,281.14393568158454,160,162.97348744564718,173.34569422570772,203.55173434676703","4,3,2,1,4,3,2,1","THISTLE WEED,THISTLE WEED,THISTLE WEED,THISTLE WEED,NETTLE WEED,NETTLE WEED,NETTLE WEED,NETTLE WEED","160,161.7654717051172,201.509438868701,217.75722676321485,229.60779940525708,250.64086627134517,283.6346877908476,289.8648101466979","8,7,6,5,4,3,2,1","CORN CROP,CORN CROP,CORN CROP,CORN CROP,CORN CROP,CORN CROP,CORN CROP,CORN CROP","0,0,0,0,0,0,0,0","20,20,20,20,20,20,20,20","10,10,10,10,10,10,10,10","20,20,20,20,20,20,20,20","20,20,20,20,20,20,20,20","20,20,20,20,20,20,20,20","0,0,0,0,0,0,0,0","20,20,20,20,20,20,20,20","10,10,10,10,10,10,10,10","20,20,20,20,20,20,20,20","20,20,20,20,20,20,20,20","20,20,20,20,20,20,20,20","0,1,0,1,1,1,1,0","5746,1253,1302,1134,2016,1350,1238,1111","20.397286725050073,55.07916852397945,25.66748043255499,-4.724177245735348,2.9734874456471765,10.372206780060546,30.206040121059303,13.055401506125484","1.7654717051171878,39.74396716358383,16.247787894513834,11.85057264204225,21.03306686608808,32.993821519502404,6.230122355850295,26.6620412169037","0","0"
"800","86","text","0","109","1239549","0-0","","","","","","","","","","","","","","","","","","","","","","","","","","","","","","","","","","","","",""
"","","plant-game","0","110","1255341","0-0","","200","120","8","WHEAT CROP","Right","200","180","2","THISTLE WEED","experimental","42","1,2,3,4,5,6,7,8","180,187.2334539228743,140,179.41634332293359,156.42989122963382,140.95710326308097,140.84808294862717,152.95399376569904","2,1,6,5,4,3,2,1","THISTLE WEED,THISTLE WEED,NETTLE WEED,NETTLE WEED,NETTLE WEED,NETTLE WEED,NETTLE WEED,NETTLE WEED","120,113.15189176473785,155.24846964815643,144.4989480196673,145.92805130643305,184.08239938307327,199.2983168053778,242.5577249393854","8,7,6,5,4,3,2,1","WHEAT CROP,WHEAT CROP,WHEAT CROP,WHEAT CROP,WHEAT CROP,WHEAT CROP,WHEAT CROP,WHEAT CROP","0,0,0,0,0,0,0,0","20,20,20,20,20,20,20,20","10,10,10,10,10,10,10,10","20,20,20,20,20,20,20,20","20,20,20,20,20,20,20,20","20,20,20,20,20,20,20,20","0,0,0,0,0,0,0,0","20,20,20,20,20,20,20,20","10,10,10,10,10,10,10,10","20,20,20,20,20,20,20,20","20,20,20,20,20,20,20,20","20,20,20,20,20,20,20,20","0,0,1,0,1,0,1,1","3306,1029,1366,1317,620,871,1023,1239","7.233453922874306,18.130046940837133,39.4163433229336,-22.986452093299757,-15.472787966552872,-0.10902031445380359,12.105910817071871,18.279712147547162","-6.848108235262153,42.09657788341858,-10.749521628489134,1.4291032867657472,38.15434807664022,15.215917422304539,43.25940813400759,3.142561800746158","0","0"
"528","86","text","0","111","1256013","0-0","","","","","","","","","","","","","","","","","","","","","","","","","","","","","","","","","","","","",""
"","","plant-game","0","112","1267805","0-0","","200","120","4","WHEAT CROP","Right","200","120","4","NETTLE WEED","experimental","43","1,2,3,4","120,146.63711152322387,156.93087383249465,148.10019732783655","4,3,2,1","NETTLE WEED,NETTLE WEED,NETTLE WEED,NETTLE WEED","120,124.05176874502492,153.04879511060344,119.72055324838745","4,3,2,1","WHEAT CROP,WHEAT CROP,WHEAT CROP,WHEAT CROP","0,0,0,0","20,20,20,20","10,10,10,10","20,20,20,20","20,20,20,20","20,20,20,20","0,0,0,0","20,20,20,20","10,10,10,10","20,20,20,20","20,20,20,20","20,20,20,20","1,1,0,1","2490,1174,1837,517","26.63711152322387,10.293762309270784,-8.830676504658108,50.928168244161","4.051768745024917,28.99702636557851,-33.32824186221599,34.63671988978422","0","0"
"584","86","text","0","113","1268509","0-0","","","","","","","","","","","","","","","","","","","","","","","","","","","","","","","","","","","","",""
"","","plant-game","0","114","1278252","0-0","","200","190","1","WHEAT CROP","Right","200","180","2","THISTLE WEED","experimental","44","1,2","180,204.96160605560326","2,1","THISTLE WEED,THISTLE WEED","190,190","1,1","WHEAT CROP,CORN CROP","0,0","20,20","10,10","20,20","20,20","20,20","0,0","20,20","10,10","20,20","20,20","20,20","1,0","1218,1103","24.961606055603262,29.521119911756422","17.54486664707396,-11.645823967293044","0","0"
"935","86","text","0","115","1279309","0-0","","","","","","","","","","","","","","","","","","","","","","","","","","","","","","","","","","","","",""
"","","plant-game","0","116","1296350","0-0","","200","120","8","WHEAT CROP","Right","200","190","1","THISTLE WEED","experimental","45","1,2,3,4,5,6,7,8","190,130,168.08928115960794,210.7042103612814,215.06304428714637,237.86856970710494,268.56257544343345,273.6318878757804","1,7,6,5,4,3,2,1","THISTLE WEED,NETTLE WEED,NETTLE WEED,NETTLE WEED,NETTLE WEED,NETTLE WEED,NETTLE WEED,NETTLE WEED","120,142.25653017077735,182.4950210552065,202.6764969361367,206.86132361671966,223.16020888410023,255.90917839584503,281.12879352120285","8,7,6,5,4,3,2,1","WHEAT CROP,WHEAT CROP,WHEAT CROP,WHEAT CROP,WHEAT CROP,WHEAT CROP,WHEAT CROP,WHEAT CROP","0,0,0,0,0,0,0,0","20,20,20,20,20,20,20,20","10,10,10,10,10,10,10,10","20,20,20,20,20,20,20,20","20,20,20,20,20,20,20,20","20,20,20,20,20,20,20,20","0,0,0,0,0,0,0,0","20,20,20,20,20,20,20,20","10,10,10,10,10,10,10,10","20,20,20,20,20,20,20,20","20,20,20,20,20,20,20,20","20,20,20,20,20,20,20,20","0,1,1,0,1,0,0,0","3609,739,756,812,1087,607,1367,1150","22.524144568372385,38.08928115960792,42.61492920167347,4.358833925864968,22.805525419958585,30.694005736328506,5.069312432346965,-11.406721429362875","22.256530170777342,40.238490884429154,20.18147588093018,4.184826680582966,16.298885267380573,32.74896951174481,25.2196151253578,-4.297104002024248","0","0"
"1256","86","text","0","117","1297742","0-0","","","","","","","","","","","","","","","","","","","","","","","","","","","","","","","","","","","","",""
"","","plant-game","0","118","1334846","0-0","","200","160","4","CORN CROP","Left","200","190","1","THISTLE WEED","experimental","46","1,2,3,4","160,151.27065364973762,177.0449073842254,196.88444117370426","4,3,2,1","CORN CROP,CORN CROP,CORN CROP,CORN CROP","190,170,190.96923852479398,202.21432560071096","1,3,2,1","THISTLE WEED,NETTLE WEED,NETTLE WEED,NETTLE WEED","20,20,20,20","20,20,20,20","10,10,10,10","20,20,20,20","0,0,0,0","20,20,20,20","20,20,20,20","20,20,20,20","10,10,10,10","20,20,20,20","0,0,0,0","20,20,20,20","1,0,1,0","19596,8526,1773,1263","-8.729346350262388,25.774253734487786,19.839533789478857,-2.6342127258663197","13.406263617156174,20.969238524793987,11.245087075916976,36.343364967721115","0","0"
"584","86","text","0","119","1335550","0-0","","","","","","","","","","","","","","","","","","","","","","","","","","","","","","","","","","","","",""
"","","plant-game","0","120","1353681","0-0","","200","180","4","CORN CROP","Right","200","120","2","NETTLE WEED","experimental","47","1,2,3,4","120,167.20261062394317,180,181.68046771752321","2,1,2,1","NETTLE WEED,NETTLE WEED,THISTLE WEED,THISTLE WEED","180,189.41822870666977,208.858825111749,217.4213771163719","4,3,2,1","CORN CROP,CORN CROP,CORN CROP,CORN CROP","0,0,0,0","20,20,20,20","10,10,10,10","20,20,20,20","20,20,20,20","20,20,20,20","0,0,0,0","20,20,20,20","10,10,10,10","20,20,20,20","20,20,20,20","20,20,20,20","1,1,0,0","2442,1526,5909,2866","47.20261062394317,23.5141229339522,1.6804677175232252,23.293633089444707","9.418228706669765,19.440596405079255,8.562552004622887,14.862238396741693","0","0"
"656","86","text","0","121","1354474","0-0","","","","","","","","","","","","","","","","","","","","","","","","","","","","","","","","","","","","",""
"","","plant-game","0","122","1368889","0-0","","200","160","4","WHEAT CROP","Left","200","120","1","THISTLE WEED","experimental","48","1,2,3,4","160,225.36587710794848,180.11014842530813,214.67231633204446","4,3,2,1","WHEAT CROP,WHEAT CROP,WHEAT CROP,WHEAT CROP","120,170,178.53374151567323,184.52190194838604","1,3,2,1","THISTLE WEED,NETTLE WEED,NETTLE WEED,NETTLE WEED","20,20,20,20","20,20,20,20","10,10,10,10","20,20,20,20","0,0,0,0","20,20,20,20","20,20,20,20","20,20,20,20","10,10,10,10","20,20,20,20","0,0,0,0","20,20,20,20","0,1,0,0","2410,1870,1270,2807","65.36587710794848,-45.25572868264036,34.562167906736335,24.67190902379624","41.08363959233243,8.533741515673219,5.988160432712808,-1.4026054717769263","0","0"
"912","86","text","0","123","1369921","0-0","","","","","","","","","","","","","","","","","","","","","","","","","","","","","","","","","","","","",""
"","","plant-game","0","124","1384065","0-0","","200","190","4","WHEAT CROP","Left","200","160","2","NETTLE WEED","experimental","49","1,2,3,4","190,194.57939320645204,189.13200435853022,227.4948405910366","4,3,2,1","WHEAT CROP,WHEAT CROP,WHEAT CROP,WHEAT CROP","160,187.36128603252223,180,265.1112907650162","2,1,2,1","NETTLE WEED,NETTLE WEED,THISTLE WEED,THISTLE WEED","20,20,20,20","20,20,20,20","10,10,10,10","20,20,20,20","0,0,0,0","20,20,20,20","20,20,20,20","20,20,20,20","10,10,10,10","20,20,20,20","0,0,0,0","20,20,20,20","0,0,0,1","1994,1093,1374,1440","4.579393206452041,-5.4473888479218076,38.36283623250637,-0.8411192821114268","27.361286032522237,10.98884516976442,85.11129076501616,18.935373100004117","0","0"
"536","86","text","0","125","1384705","0-0","","","","","","","","","","","","","","","","","","","","","","","","","","","","","","","","","","","","",""
"","","plant-game","0","126","1403064","0-0","","200","180","8","WHEAT CROP","Left","200","190","1","NETTLE WEED","experimental","50","1,2,3,4,5,6,7,8","180,213.69210158539912,208.33374760754836,224.17333503311374,214.36291097182783,250.431054430542,254.28687649846185,291.14616361977585","8,7,6,5,4,3,2,1","WHEAT CROP,WHEAT CROP,WHEAT CROP,WHEAT CROP,WHEAT CROP,WHEAT CROP,WHEAT CROP,WHEAT CROP","190,130,131.95443967628876,155.12752649847823,131.5297009176077,193.9682071462842,173.55159601422787,164.96831755933755","1,7,6,5,4,3,2,1","NETTLE WEED,THISTLE WEED,THISTLE WEED,THISTLE WEED,THISTLE WEED,THISTLE WEED,THISTLE WEED,THISTLE WEED","20,20,20,20,20,20,20,20","20,20,20,20,20,20,20,20","10,10,10,10,10,10,10,10","20,20,20,20,20,20,20,20","0,0,0,0,0,0,0,0","20,20,20,20,20,20,20,20","20,20,20,20,20,20,20,20","20,20,20,20,20,20,20,20","10,10,10,10,10,10,10,10","20,20,20,20,20,20,20,20","0,0,0,0,0,0,0,0","20,20,20,20,20,20,20,20","1,1,0,1,0,1,0,0","2057,1647,1115,768,599,1071,2158,2191","33.692101585399115,-5.35835397785076,15.839587425565384,-9.810424061285905,36.06814345871416,3.855822067919851,36.85928712131399,15.204810421535505","-23.609206726905686,1.9544396762887664,23.17308682218947,-23.597825580870545,62.43850622867648,-20.41661113205633,-8.58327845489033,2.070701229381555","0","0"
"599","86","text","0","127","1403776","0-0","","","","","","","","","","","","","","","","","","","","","","","","","","","","","","","","","","","","",""
"","","plant-game","0","128","1424835","0-0","","200","190","1","CORN CROP","Left","200","180","4","NETTLE WEED","experimental","51","1,2,3,4","190,170,186.52617697488836,185.95778409601198","1,3,2,1","CORN CROP,WHEAT CROP,WHEAT CROP,WHEAT CROP","180,184.90999920942033,191.9260063058104,244.8878102735514","4,3,2,1","NETTLE WEED,NETTLE WEED,NETTLE WEED,NETTLE WEED","20,20,20,20","20,20,20,20","10,10,10,10","20,20,20,20","0,0,0,0","20,20,20,20","20,20,20,20","20,20,20,20","10,10,10,10","20,20,20,20","0,0,0,0","20,20,20,20","0,0,0,0","4267,2344,5118,3286","-11.66291512669585,16.526176974888372,-0.5683928788763879,16.11399976854275","4.9099992094203255,7.016007096390071,52.96180396774099,79.9090182118008","0","0"
"792","86","text","0","129","1425747","0-0","","","","","","","","","","","","","","","","","","","","","","","","","","","","","","","","","","","","",""
"","","plant-game","0","130","1458331","0-0","","200","180","8","WHEAT CROP","Right","200","180","2","THISTLE WEED","experimental","52","1,2,3,4,5,6,7,8","180,214.13704436780256,140,171.53125383676888,190.37198061897388,219.59329744264315,191.57761021007425,221.73414149141084","2,1,6,5,4,3,2,1","THISTLE WEED,THISTLE WEED,NETTLE WEED,NETTLE WEED,NETTLE WEED,NETTLE WEED,NETTLE WEED,NETTLE WEED","180,210.65047763268768,226.97981020178582,207.13178014591756,220.98773908801584,231.57729710304156,248.3303917661212,290.23818643769084","8,7,6,5,4,3,2,1","WHEAT CROP,WHEAT CROP,WHEAT CROP,WHEAT CROP,WHEAT CROP,WHEAT CROP,WHEAT CROP,WHEAT CROP","0,0,0,0,0,0,0,0","20,20,20,20,20,20,20,20","10,10,10,10,10,10,10,10","20,20,20,20,20,20,20,20","20,20,20,20,20,20,20,20","20,20,20,20,20,20,20,20","0,0,0,0,0,0,0,0","20,20,20,20,20,20,20,20","10,10,10,10,10,10,10,10","20,20,20,20,20,20,20,20","20,20,20,20,20,20,20,20","20,20,20,20,20,20,20,20","1,0,0,1,0,1,1,0","10634,1133,7564,2496,836,1264,1206,975","34.13704436780256,-16.442071015687908,31.531253836768887,18.840726782204985,29.22131682366928,-28.015687232568887,30.156531281336584,8.149513911237541","30.650477632687693,16.329332569098135,-19.84803005586825,13.855958942098273,10.589558015025723,16.753094663079654,41.90779467156965,-17.24011450589302","0","0"
"647","86","text","0","131","1459108","0-0","","","","","","","","","","","","","","","","","","","","","","","","","","","","","","","","","","","","",""
"","","plant-game","0","132","1490582","0-0","","200","160","2","WHEAT CROP","Right","200","120","1","THISTLE WEED","experimental","53","1,2","120,190","1,1","THISTLE WEED,NETTLE WEED","160,161.09427100856954","2,1","WHEAT CROP,WHEAT CROP","0,0","20,20","10,10","20,20","20,20","20,20","0,0","20,20","10,10","20,20","20,20","20,20","1,1","2560,22907","14.653443140920334,24.885054847394237","1.0942710085695282,40.821748191505094","0","0"
"664","86","text","0","133","1491358","0-0","","","","","","","","","","","","","","","","","","","","","","","","","","","","","","","","","","","","",""
"","","plant-game","0","134","1502814","0-0","","200","160","2","CORN CROP","Left","200","190","4","THISTLE WEED","experimental","54","1,2,3,4","160,195.8852676280141,180,165.05339533316936","2,1,2,1","CORN CROP,CORN CROP,WHEAT CROP,WHEAT CROP","190,210.72776460244123,258.675542679968,276.6243023388895","4,3,2,1","THISTLE WEED,THISTLE WEED,THISTLE WEED,THISTLE WEED","20,20,20,20","20,20,20,20","10,10,10,10","20,20,20,20","0,0,0,0","20,20,20,20","20,20,20,20","20,20,20,20","10,10,10,10","20,20,20,20","0,0,0,0","20,20,20,20","0,0,1,1","2867,1109,1136,1112","35.8852676280141,12.30342262494011,-14.946604666830636,6.126553962941202","20.727764602441237,47.94777807752675,17.948759658921517,-7.113346864175241","0","0"
"528","86","text","0","135","1503478","0-0","","","","","","","","","","","","","","","","","","","","","","","","","","","","","","","","","","","","",""
"","","plant-game","0","136","1517054","0-0","","200","160","1","WHEAT CROP","Right","200","190","4","THISTLE WEED","experimental","55","1,2,3,4","190,228.02108541141564,249.46062314311797,263.07478485039974","4,3,2,1","THISTLE WEED,THISTLE WEED,THISTLE WEED,THISTLE WEED","160,170,162.6847158491101,160.28957576162256","1,3,2,1","WHEAT CROP,CORN CROP,CORN CROP,CORN CROP","0,0,0,0","20,20,20,20","10,10,10,10","20,20,20,20","20,20,20,20","20,20,20,20","0,0,0,0","20,20,20,20","10,10,10,10","20,20,20,20","20,20,20,20","20,20,20,20","1,0,1,1","2914,1941,614,968","38.021085411415626,21.439537731702316,13.614161707281765,-24.631274073299068","39.350872296876126,-7.315284150889923,-2.3951400874875333,11.224494017894447","0","0"
"760","86","text","0","137","1517950","0-0","","","","","","","","","","","","","","","","","","","","","","","","","","","","","","","","","","","","",""
"","","plant-game","0","138","1538102","0-0","","200","120","1","CORN CROP","Right","200","180","8","THISTLE WEED","experimental","56","1,2,3,4,5,6,7,8","180,182.17365301202122,189.47195251183138,183.5609603569587,190.42290032717162,202.29402166941424,216.57942060888598,224.23887741265324","8,7,6,5,4,3,2,1","THISTLE WEED,THISTLE WEED,THISTLE WEED,THISTLE WEED,THISTLE WEED,THISTLE WEED,THISTLE WEED,THISTLE WEED","120,130,138.85353981793037,147.50568477833812,172.9083198063156,160.9545457175393,205.68491710730603,216.08752611160745","1,7,6,5,4,3,2,1","CORN CROP,WHEAT CROP,WHEAT CROP,WHEAT CROP,WHEAT CROP,WHEAT CROP,WHEAT CROP,WHEAT CROP","0,0,0,0,0,0,0,0","20,20,20,20,20,20,20,20","10,10,10,10,10,10,10,10","20,20,20,20,20,20,20,20","20,20,20,20,20,20,20,20","20,20,20,20,20,20,20,20","0,0,0,0,0,0,0,0","20,20,20,20,20,20,20,20","10,10,10,10,10,10,10,10","20,20,20,20,20,20,20,20","20,20,20,20,20,20,20,20","20,20,20,20,20,20,20,20","0,0,1,1,0,1,0,1","4834,1211,927,1534,823,901,1257,1110","2.1736530120212287,7.2982994998101685,-5.910992154872684,6.861939970212909,11.87112134224262,14.285398939471756,7.659456803767258,26.63228531852878","14.97176337011364,8.85353981793037,8.652144960407755,25.402635027977478,-11.953774088776296,44.73037138976674,10.402609004301409,45.68020125715635","0","0"
"440","86","text","0","139","1538646","0-0","","","","","","","","","","","","","","","","","","","","","","","","","","","","","","","","","","","","",""
"","","plant-game","0","140","1548536","0-0","","200","120","2","CORN CROP","Right","200","190","2","NETTLE WEED","experimental","57","1,2","190,201.2346316104531","2,1","NETTLE WEED,NETTLE WEED","120,108.94884178002502","2,1","CORN CROP,CORN CROP","0,0","20,20","10,10","20,20","20,20","20,20","0,0","20,20","10,10","20,20","20,20","20,20","0,0","2770,3623","11.234631610453103,32.97104864039762","-11.051158219974987,-21.75083824216463","0","0"
"800","86","text","0","141","1549448","0-0","","","","","","","","","","","","","","","","","","","","","","","","","","","","","","","","","","","","",""
"","","plant-game","0","142","1558695","0-0","","200","120","4","WHEAT CROP","Right","200","180","4","THISTLE WEED","experimental","58","1,2,3,4","180,213.92078107183968,249.94670710756384,236.765154418154","4,3,2,1","THISTLE WEED,THISTLE WEED,THISTLE WEED,THISTLE WEED","120,116.5474644259989,174.35000709170112,168.3685430912755","4,3,2,1","WHEAT CROP,WHEAT CROP,WHEAT CROP,WHEAT CROP","0,0,0,0","20,20,20,20","10,10,10,10","20,20,20,20","20,20,20,20","20,20,20,20","0,0,0,0","20,20,20,20","10,10,10,10","20,20,20,20","20,20,20,20","20,20,20,20","1,1,0,1","1394,838,2757,806","33.920781071839684,36.02592603572414,-13.181552689409843,26.836133403337623","-3.4525355740011037,57.80254266570223,-5.981464000425597,7.084259142310685","0","0"
"1303","86","text","0","143","1560111","0-0","","","","","","","","","","","","","","","","","","","","","","","","","","","","","","","","","","","","",""
"","","plant-game","0","144","1569640","0-0","","200","120","2","CORN CROP","Left","200","160","1","THISTLE WEED","experimental","59","1,2","120,151.96929917720593","2,1","CORN CROP,CORN CROP","160,190","1,1","THISTLE WEED,NETTLE WEED","20,20","20,20","10,10","20,20","0,0","20,20","20,20","20,20","10,10","20,20","0,0","20,20","0,0","2619,1079","31.969299177205926,10.156910319691395","13.686123723915468,11.018962152674126","0","0"
"720","86","text","0","145","1570480","0-0","","","","","","","","","","","","","","","","","","","","","","","","","","","","","","","","","","","","",""
"","","plant-game","0","146","1580039","0-0","","200","120","4","CORN CROP","Left","200","160","1","NETTLE WEED","experimental","60","1,2,3,4","120,139.31632849355734,148.73950053981864,155.6370307263473","4,3,2,1","CORN CROP,CORN CROP,CORN CROP,CORN CROP","160,170,181.5120151414434,164.5113615021487","1,3,2,1","NETTLE WEED,THISTLE WEED,THISTLE WEED,THISTLE WEED","20,20,20,20","20,20,20,20","10,10,10,10","20,20,20,20","0,0,0,0","20,20,20,20","20,20,20,20","20,20,20,20","10,10,10,10","20,20,20,20","0,0,0,0","20,20,20,20","0,0,1,0","1546,821,1142,1159","19.316328493557325,9.42317204626129,6.897530186528657,-2.1343960001702484","15.150137503797232,11.512015141443417,-17.00065363929471,29.018604090509356","0","0"
"649","86","text","0","147","1580824","0-0","","","","","","","","","","","","","","","","","","","","","","","","","","","","","","","","","","","","",""
"","","plant-game","0","148","1596535","0-0","","200","190","2","WHEAT CROP","Left","200","180","8","THISTLE WEED","experimental","61","1,2,3,4,5,6,7,8","190,202.42356101108487,140,145.30865374475417,157.057442492955,128.3738967566877,154.73770956058348,162.04777880908853","2,1,6,5,4,3,2,1","WHEAT CROP,WHEAT CROP,CORN CROP,CORN CROP,CORN CROP,CORN CROP,CORN CROP,CORN CROP","180,216.06457653853266,249.45058497390497,254.54233426632797,299.44110733076593,320.10263112621055,346.7422975931174,354.4074019336051","8,7,6,5,4,3,2,1","THISTLE WEED,THISTLE WEED,THISTLE WEED,THISTLE WEED,THISTLE WEED,THISTLE WEED,THISTLE WEED,THISTLE WEED","20,20,20,20,20,20,20,20","20,20,20,20,20,20,20,20","10,10,10,10,10,10,10,10","20,20,20,20,20,20,20,20","0,0,0,0,0,0,0,0","20,20,20,20,20,20,20,20","20,20,20,20,20,20,20,20","20,20,20,20,20,20,20,20","10,10,10,10,10,10,10,10","20,20,20,20,20,20,20,20","0,0,0,0,0,0,0,0","20,20,20,20,20,20,20,20","0,1,0,0,1,0,0,0","1266,2797,1365,1828,1392,583,94,337","12.423561011084875,-13.711236789132467,5.308653744754157,11.748788748200848,-28.683545736267288,26.363812803895755,7.310069248505059,10.422087584268564","36.06457653853268,33.386008435372304,5.091749292422996,44.89877306443797,20.66152379544465,26.639666466906903,7.665104340487661,19.796956227049137","0","0"
"632","86","text","0","149","1597271","0-0","","","","","","","","","","","","","","","","","","","","","","","","","","","","","","","","","","","","",""
"","","plant-game","0","150","1613978","0-0","","200","120","8","WHEAT CROP","Right","200","160","4","NETTLE WEED","experimental","62","1,2,3,4,5,6,7,8","160,193.80595246409683,194.46097941437145,205.2772335206358,160,192.53660947517926,172.93625772549052,203.6552174549325","4,3,2,1,4,3,2,1","NETTLE WEED,NETTLE WEED,NETTLE WEED,NETTLE WEED,THISTLE WEED,THISTLE WEED,THISTLE WEED,THISTLE WEED","120,166.27455293628844,199.38447019080752,188.50044574722978,206.88778566985417,208.87966023957753,216.5802673817257,250.01785712510784","8,7,6,5,4,3,2,1","WHEAT CROP,WHEAT CROP,WHEAT CROP,WHEAT CROP,WHEAT CROP,WHEAT CROP,WHEAT CROP,WHEAT CROP","0,0,0,0,0,0,0,0","20,20,20,20,20,20,20,20","10,10,10,10,10,10,10,10","20,20,20,20,20,20,20,20","20,20,20,20,20,20,20,20","20,20,20,20,20,20,20,20","0,0,0,0,0,0,0,0","20,20,20,20,20,20,20,20","10,10,10,10,10,10,10,10","20,20,20,20,20,20,20,20","20,20,20,20,20,20,20,20","20,20,20,20,20,20,20,20","1,1,1,0,1,0,1,0","2386,870,990,1892,2023,950,607,1201","33.80595246409682,0.6550269502746175,10.816254106264354,-1.1800713125969238,32.53660947517925,-19.60035174968875,30.71895972944199,-12.17658228051903","46.27455293628843,33.10991725451909,-10.884024443577736,18.3873399226244,1.991874569723361,7.700607142148152,33.43758974338215,-25.564674827438335","0","0"
"688","86","text","0","151","1614802","0-0","","","","","","","","","","","","","","","","","","","","","","","","","","","","","","","","","","","","",""
"","","plant-game","0","152","1630354","0-0","","200","160","4","CORN CROP","Right","200","190","8","THISTLE WEED","experimental","63","1,2,3,4,5,6,7,8","190,214.4350829551614,223.50105982585882,214.14212435784304,237.62041580569596,251.42586217350126,273.1175110866236,266.6035661580412","8,7,6,5,4,3,2,1","THISTLE WEED,THISTLE WEED,THISTLE WEED,THISTLE WEED,THISTLE WEED,THISTLE WEED,THISTLE WEED,THISTLE WEED","160,132.17599066973364,148.90247201042706,185.54132985935,160,160.83050781710557,179.48943266768245,154.2331372924399","4,3,2,1,4,3,2,1","CORN CROP,CORN CROP,CORN CROP,CORN CROP,WHEAT CROP,WHEAT CROP,WHEAT CROP,WHEAT CROP","0,0,0,0,0,0,0,0","20,20,20,20,20,20,20,20","10,10,10,10,10,10,10,10","20,20,20,20,20,20,20,20","20,20,20,20,20,20,20,20","20,20,20,20,20,20,20,20","0,0,0,0,0,0,0,0","20,20,20,20,20,20,20,20","10,10,10,10,10,10,10,10","20,20,20,20,20,20,20,20","20,20,20,20,20,20,20,20","20,20,20,20,20,20,20,20","0,1,1,1,0,1,0,1","1874,2685,446,637,1380,750,590,447","24.435082955161388,9.065976870697428,-9.358935468015783,23.47829144785291,13.805446367805299,21.69164891312233,-6.513944928582398,45.12147848147619","-27.82400933026636,16.72648134069344,36.638857848922925,12.25604120119107,0.830507817105567,18.65892485057688,-25.256295375242544,12.625493335478765","0","0"
"640","86","text","0","153","1631122","0-0","","","","","","","","","","","","","","","","","","","","","","","","","","","","","","","","","","","","",""
"","","plant-game","0","154","1640850","0-0","","200","160","2","WHEAT CROP","Left","200","180","1","THISTLE WEED","experimental","64","1,2","160,158.6049006135917","2,1","WHEAT CROP,WHEAT CROP","180,190","1,1","THISTLE WEED,NETTLE WEED","20,20","20,20","10,10","20,20","0,0","20,20","20,20","20,20","10,10","20,20","0,0","20,20","0,0","2907,1190","-1.3950993864083152,61.573215491062996","33.406805563294924,11.152055934112054","0","0"
"1816","86","text","0","155","1642778","0-0","","","","","","","","","","","","","","","","","","","","","","","","","","","","","","","","","","","","",""
"","","plant-game","0","156","1664978","0-0","","200","120","4","CORN CROP","Right","200","190","2","THISTLE WEED","experimental","65","1,2,3,4","190,193.72523352325388,180,200.27276256961358","2,1,2,1","THISTLE WEED,THISTLE WEED,NETTLE WEED,NETTLE WEED","120,159.09228513800466,143.4520900513588,168.6232821452007","4,3,2,1","CORN CROP,CORN CROP,CORN CROP,CORN CROP","0,0,0,0","20,20,20,20","10,10,10,10","20,20,20,20","20,20,20,20","20,20,20,20","0,0,0,0","20,20,20,20","10,10,10,10","20,20,20,20","20,20,20,20","20,20,20,20","1,1,1,0","9515,2798,1800,1232","3.7252335232538663,24.6501989585579,20.272762569613565,9.870971897696869","39.09228513800465,-15.640195086645868,25.17119209384192,24.252585814577607","0","0"
"696","86","text","0","157","1665914","0-0","","","","","","","","","","","","","","","","","","","","","","","","","","","","","","","","","","","","",""
"","","plant-game","0","158","1677156","0-0","","200","180","2","CORN CROP","Left","200","180","1","THISTLE WEED","experimental","66","1,2","180,192.5551497930747","2,1","CORN CROP,CORN CROP","180,190","1,1","THISTLE WEED,NETTLE WEED","20,20","20,20","10,10","20,20","0,0","20,20","20,20","20,20","10,10","20,20","0,0","20,20","0,0","2956,1734","12.555149793074701,22.172707088087854","21.183089033828338,26.459341257437842","0","0"
"520","86","text","0","159","1677828","0-0","","","","","","","","","","","","","","","","","","","","","","","","","","","","","","","","","","","","",""
"","","plant-game","0","160","1686276","0-0","","200","120","2","CORN CROP","Left","200","120","2","THISTLE WEED","experimental","67","1,2","120,144.0939606532939","2,1","CORN CROP,CORN CROP","120,162.92999850119196","2,1","THISTLE WEED,THISTLE WEED","20,20","20,20","10,10","20,20","0,0","20,20","20,20","20,20","10,10","20,20","0,0","20,20","0,0","3593,861","24.093960653293898,0.8446513989662492","42.929998501191974,28.852853814953015","0","0"
"600","86","text","0","161","1687052","0-0","","","","","","","","","","","","","","","","","","","","","","","","","","","","","","","","","","","","",""
"","","plant-game","0","162","1703684","0-0","","200","180","8","WHEAT CROP","Left","200","120","2","NETTLE WEED","experimental","68","1,2,3,4,5,6,7,8","180,259.3640187866422,265.33365416687275,305.97044888364417,284.16525230032425,279.0075913058088,268.2021499144449,249.41993388191523","8,7,6,5,4,3,2,1","WHEAT CROP,WHEAT CROP,WHEAT CROP,WHEAT CROP,WHEAT CROP,WHEAT CROP,WHEAT CROP,WHEAT CROP","120,126.75524670651967,140,156.03540087999275,147.51034092010735,211.48156457402354,209.6321056295046,231.9446763056721","2,1,6,5,4,3,2,1","NETTLE WEED,NETTLE WEED,THISTLE WEED,THISTLE WEED,THISTLE WEED,THISTLE WEED,THISTLE WEED,THISTLE WEED","20,20,20,20,20,20,20,20","20,20,20,20,20,20,20,20","10,10,10,10,10,10,10,10","20,20,20,20,20,20,20,20","0,0,0,0,0,0,0,0","20,20,20,20,20,20,20,20","20,20,20,20,20,20,20,20","20,20,20,20,20,20,20,20","10,10,10,10,10,10,10,10","20,20,20,20,20,20,20,20","0,0,0,0,0,0,0,0","20,20,20,20,20,20,20,20","0,0,0,1,0,1,1,0","1506,901,1252,1867,549,1046,934,1060","79.36401878664218,5.969635380230567,40.63679471677144,-21.805196583319937,-5.157660994515471,-10.805441391363885,-18.782216032529654,34.16739023746017","6.755246706519664,-11.467261695702149,16.03540087999275,-8.525059959885384,63.97122365391617,-1.8494589445189316,22.312570676167507,1.3748146091416373","0","0"
"256","86","text","0","163","1704044","0-0","","","","","","","","","","","","","","","","","","","","","","","","","","","","","","","","","","","","",""
"","","plant-game","0","164","1719395","0-0","","200","180","8","WHEAT CROP","Left","200","190","2","NETTLE WEED","experimental","69","1,2,3,4,5,6,7,8","180,198.30250881636303,242.56995579748815,302.4206726564326,299.48412065384116,321.9861481257212,313.5847991627082,338.0255748422532","8,7,6,5,4,3,2,1","WHEAT CROP,WHEAT CROP,WHEAT CROP,WHEAT CROP,WHEAT CROP,WHEAT CROP,WHEAT CROP,WHEAT CROP","190,209.2594131661815,140,161.15718737587912,162.67263449678077,191.64257829612893,212.63142086370632,221.7012072762988","2,1,6,5,4,3,2,1","NETTLE WEED,NETTLE WEED,THISTLE WEED,THISTLE WEED,THISTLE WEED,THISTLE WEED,THISTLE WEED,THISTLE WEED","20,20,20,20,20,20,20,20","20,20,20,20,20,20,20,20","10,10,10,10,10,10,10,10","20,20,20,20,20,20,20,20","0,0,0,0,0,0,0,0","20,20,20,20,20,20,20,20","20,20,20,20,20,20,20,20","20,20,20,20,20,20,20,20","10,10,10,10,10,10,10,10","20,20,20,20,20,20,20,20","0,0,0,0,0,0,0,0","20,20,20,20,20,20,20,20","0,0,0,1,0,1,1,0","1914,1230,1661,797,509,725,1776,695","18.302508816363023,44.267446981125104,59.85071685894446,-2.9365520025914407,22.502027471880016,-8.401348963012987,24.44077567954504,13.028454351532934","19.259413166181492,27.604149222020716,21.157187375879108,1.5154471209016611,28.969943799348144,20.98884256757739,9.069786412592466,23.198850072131478","0","0"
"816","86","text","0","165","1720347","0-0","","","","","","","","","","","","","","","","","","","","","","","","","","","","","","","","","","","","",""
"","","plant-game","0","166","1725932","0-0","","200","180","2","WHEAT CROP","Left","200","160","2","NETTLE WEED","experimental","70","1,2","180,207.0115375445652","2,1","WHEAT CROP,WHEAT CROP","160,147.07736720347108","2,1","NETTLE WEED,NETTLE WEED","20,20","20,20","10,10","20,20","0,0","20,20","20,20","20,20","10,10","20,20","0,0","20,20","0,0","1194,950","27.011537544565194,39.54545951832071","-12.922632796528916,29.39670412734745","0","0"
"552","86","text","0","167","1726604","0-0","","","","","","","","","","","","","","","","","","","","","","","","","","","","","","","","","","","","",""
"","","plant-game","0","168","1735822","0-0","","200","120","2","WHEAT CROP","Left","200","120","1","THISTLE WEED","experimental","71","1,2","120,119.33596448808028","2,1","WHEAT CROP,WHEAT CROP","120,190","1,1","THISTLE WEED,NETTLE WEED","20,20","20,20","10,10","20,20","0,0","20,20","20,20","20,20","10,10","20,20","0,0","20,20","0,1","1498,1255","-0.664035511919721,-15.374060623654183","3.4364047988191864,3.434148629053605","0","0"
"2336","86","text","0","169","1738319","0-0","","","","","","","","","","","","","","","","","","","","","","","","","","","","","","","","","","","","",""
"","","plant-game","0","170","1754750","0-0","","200","160","1","CORN CROP","Left","200","120","8","NETTLE WEED","experimental","72","1,2,3,4,5,6,7,8","160,130,168.64512075219207,214.72044937608734,251.09521866950067,278.96904562663156,291.57106742503333,249.00729861884548","1,7,6,5,4,3,2,1","CORN CROP,WHEAT CROP,WHEAT CROP,WHEAT CROP,WHEAT CROP,WHEAT CROP,WHEAT CROP,WHEAT CROP","120,132.0170248209,136.92321043024245,168.14002115376104,185.22086096659106,227.4764409061857,232.7825183207924,283.0580806412043","8,7,6,5,4,3,2,1","NETTLE WEED,NETTLE WEED,NETTLE WEED,NETTLE WEED,NETTLE WEED,NETTLE WEED,NETTLE WEED,NETTLE WEED","20,20,20,20,20,20,20,20","20,20,20,20,20,20,20,20","10,10,10,10,10,10,10,10","20,20,20,20,20,20,20,20","0,0,0,0,0,0,0,0","20,20,20,20,20,20,20,20","20,20,20,20,20,20,20,20","20,20,20,20,20,20,20,20","10,10,10,10,10,10,10,10","20,20,20,20,20,20,20,20","0,0,0,0,0,0,0,0","20,20,20,20,20,20,20,20","0,0,0,0,0,1,0,0","1618,2583,844,1172,1100,1143,897,1431","45.15696815801252,38.64512075219207,46.07532862389529,36.37476929341332,27.873826957130884,12.602021798401768,-42.563768806187866,21.578690261910094","12.017024820900001,4.906185609342446,31.216810723518595,17.08083981283001,42.255579939594625,5.306077414606704,50.27556232041191,52.64826927714601","0","0"
"544","86","text","0","171","1755415","0-0","","","","","","","","","","","","","","","","","","","","","","","","","","","","","","","","","","","","",""
"","","plant-game","0","172","1769254","0-0","","200","180","2","CORN CROP","Left","200","160","8","THISTLE WEED","experimental","73","1,2,3,4,5,6,7,8","180,237.15564508075008,140,150.93161873713595,154.18095105968288,181.4524581307343,185.03191836356206,186.84951741836974","2,1,6,5,4,3,2,1","CORN CROP,CORN CROP,WHEAT CROP,WHEAT CROP,WHEAT CROP,WHEAT CROP,WHEAT CROP,WHEAT CROP","160,187.20511830404308,217.74542044853695,205.45649057505526,181.327337972759,218.31842471880492,205.26173260479857,209.72666844953773","8,7,6,5,4,3,2,1","THISTLE WEED,THISTLE WEED,THISTLE WEED,THISTLE WEED,THISTLE WEED,THISTLE WEED,THISTLE WEED,THISTLE WEED","20,20,20,20,20,20,20,20","20,20,20,20,20,20,20,20","10,10,10,10,10,10,10,10","20,20,20,20,20,20,20,20","0,0,0,0,0,0,0,0","20,20,20,20,20,20,20,20","20,20,20,20,20,20,20,20","20,20,20,20,20,20,20,20","10,10,10,10,10,10,10,10","20,20,20,20,20,20,20,20","0,0,0,0,0,0,0,0","20,20,20,20,20,20,20,20","0,1,0,1,0,1,1,0","1650,1732,1024,477,1000,901,479,751","57.155645080750084,3.30535975159372,10.931618737135953,3.2493323225469406,27.271507071051417,3.579460232827747,1.8175990548076912,8.27547634972182","27.205118304043072,30.540302144493857,-12.288929873481685,-24.129152602296237,36.99108674604592,-13.056692114006365,4.464935844739169,53.76260625569509","0","0"
"608","86","text","0","173","1769990","0-0","","","","","","","","","","","","","","","","","","","","","","","","","","","","","","","","","","","","",""
"","","plant-game","0","174","1778966","0-0","","200","160","8","CORN CROP","Left","200","120","8","THISTLE WEED","experimental","74","1,2,3,4,5,6,7,8","160,171.2387822372115,179.86121866758603,179.03399235211552,172.1205616104081,189.87855306242966,184.89696902069568,220.64933154244883","8,7,6,5,4,3,2,1","CORN CROP,CORN CROP,CORN CROP,CORN CROP,CORN CROP,CORN CROP,CORN CROP,CORN CROP","120,125.57076750776582,153.31173443937644,171.78182634080108,165.52269154333507,174.9087133892322,194.51112870483533,238.2827012925921","8,7,6,5,4,3,2,1","THISTLE WEED,THISTLE WEED,THISTLE WEED,THISTLE WEED,THISTLE WEED,THISTLE WEED,THISTLE WEED,THISTLE WEED","20,20,20,20,20,20,20,20","20,20,20,20,20,20,20,20","10,10,10,10,10,10,10,10","20,20,20,20,20,20,20,20","0,0,0,0,0,0,0,0","20,20,20,20,20,20,20,20","20,20,20,20,20,20,20,20","20,20,20,20,20,20,20,20","10,10,10,10,10,10,10,10","20,20,20,20,20,20,20,20","0,0,0,0,0,0,0,0","20,20,20,20,20,20,20,20","0,0,0,1,0,1,0,0","794,406,342,598,582,470,676,1525","11.238782237211506,8.622436430374542,-0.8272263154705009,-6.9134307417074305,17.757991452021585,-4.981584041733988,35.752362521753156,36.971338266979714","5.570767507765824,27.740966931610615,18.470091901424645,-6.259134797465999,9.38602184589713,19.602415315603146,43.771572587756765,73.51335877483338","0","0"
"711","86","text","0","175","1779807","0-0","","","","","","","","","","","","","","","","","","","","","","","","","","","","","","","","","","","","",""
"","","plant-game","0","176","1790742","0-0","","200","160","2","CORN CROP","Right","200","120","4","NETTLE WEED","experimental","75","1,2,3,4","120,127.48375560613366,172.7526442765851,233.10052482831838","4,3,2,1","NETTLE WEED,NETTLE WEED,NETTLE WEED,NETTLE WEED","160,152.8314015337204,180,208.41128983767499","2,1,2,1","CORN CROP,CORN CROP,WHEAT CROP,WHEAT CROP","0,0,0,0","20,20,20,20","10,10,10,10","20,20,20,20","20,20,20,20","20,20,20,20","0,0,0,0","20,20,20,20","10,10,10,10","20,20,20,20","20,20,20,20","20,20,20,20","1,1,1,1","3225,1005,1471,1255","7.483755606133657,45.268888670451446,60.34788055173327,20.247487255823145","-7.168598466279615,2.687492029744984,28.411289837674992,66.6352508992255","0","0"
"759","86","text","0","177","1791623","0-0","","","","","","","","","","","","","","","","","","","","","","","","","","","","","","","","","","","","",""
"","","plant-game","0","178","1810640","0-0","","200","190","4","CORN CROP","Left","200","160","8","THISTLE WEED","experimental","76","1,2,3,4,5,6,7,8","190,193.67350035792063,191.46637369295328,244.7845122049884,160,146.25616102942595,152.52588774083486,192.75937012818375","4,3,2,1,4,3,2,1","CORN CROP,CORN CROP,CORN CROP,CORN CROP,WHEAT CROP,WHEAT CROP,WHEAT CROP,WHEAT CROP","160,207.39249549344797,248.5802784382166,270.98628313758866,238.85057935332446,222.69543221318517,230.40919842460295,229.5000894897478","8,7,6,5,4,3,2,1","THISTLE WEED,THISTLE WEED,THISTLE WEED,THISTLE WEED,THISTLE WEED,THISTLE WEED,THISTLE WEED,THISTLE WEED","20,20,20,20,20,20,20,20","20,20,20,20,20,20,20,20","10,10,10,10,10,10,10,10","20,20,20,20,20,20,20,20","0,0,0,0,0,0,0,0","20,20,20,20,20,20,20,20","20,20,20,20,20,20,20,20","20,20,20,20,20,20,20,20","10,10,10,10,10,10,10,10","20,20,20,20,20,20,20,20","0,0,0,0,0,0,0,0","20,20,20,20,20,20,20,20","0,0,0,1,1,1,1,1","1530,885,3469,1205,1534,897,1638,1215","3.6735003579206307,-2.207126664967344,53.31813851203513,13.321484509287572,-13.743838970574052,6.269726711408917,40.23348238734889,-11.842495225848364","47.39249549344796,41.18778294476862,22.406004699372076,-32.1357037842642,-16.155147140139285,7.713766211417777,-0.9091089348551497,40.50269059874475","0","0"
"488","86","text","0","179","1811256","0-0","","","","","","","","","","","","","","","","","","","","","","","","","","","","","","","","","","","","",""
"","","plant-game","0","180","1834336","0-0","","200","180","1","CORN CROP","Left","200","120","4","THISTLE WEED","experimental","77","1,2,3,4","180,170,203.0637766378721,218.63433959560425","1,3,2,1","CORN CROP,WHEAT CROP,WHEAT CROP,WHEAT CROP","120,144.35542272327973,172.58265424824202,157.80586599661274","4,3,2,1","THISTLE WEED,THISTLE WEED,THISTLE WEED,THISTLE WEED","20,20,20,20","20,20,20,20","10,10,10,10","20,20,20,20","0,0,0,0","20,20,20,20","20,20,20,20","20,20,20,20","10,10,10,10","20,20,20,20","0,0,0,0","20,20,20,20","0,0,1,1","1978,1136,8823,4654","33.105863892956364,33.06377663787212,15.57056295773214,-28.140762114538255","24.355422723279734,28.22723152496229,-14.776788251629272,-16.20508473908326","0","0"
"808","86","text","0","181","1835280","0-0","","","","","","","","","","","","","","","","","","","","","","","","","","","","","","","","","","","","",""
"","","plant-game","0","182","1869731","0-0","","200","120","8","CORN CROP","Left","200","120","2","THISTLE WEED","experimental","78","1,2,3,4,5,6,7,8","120,115.08162164994181,140.58262095133188,132.79357160152628,166.72187876637145,203.26225499190812,196.38203604386206,229.38106270496448","8,7,6,5,4,3,2,1","CORN CROP,CORN CROP,CORN CROP,CORN CROP,CORN CROP,CORN CROP,CORN CROP,CORN CROP","120,149.85604590483766,140,153.16027360823756,162.714043550341,172.95885071514547,164.76986873081594,203.57589725079274","2,1,6,5,4,3,2,1","THISTLE WEED,THISTLE WEED,NETTLE WEED,NETTLE WEED,NETTLE WEED,NETTLE WEED,NETTLE WEED,NETTLE WEED","20,20,20,20,20,20,20,20","20,20,20,20,20,20,20,20","10,10,10,10,10,10,10,10","20,20,20,20,20,20,20,20","0,0,0,0,0,0,0,0","20,20,20,20,20,20,20,20","20,20,20,20,20,20,20,20","20,20,20,20,20,20,20,20","10,10,10,10,10,10,10,10","20,20,20,20,20,20,20,20","0,0,0,0,0,0,0,0","20,20,20,20,20,20,20,20","0,0,0,0,1,0,0,1","2890,1325,6381,821,4913,9894,1238,1847","-4.918378350058198,25.50099930139006,-7.789049349805591,33.92830716484518,36.54037622553668,-6.880218948046071,32.99902666110241,-46.388080316239304","29.856045904837657,19.030123845388793,13.160273608237546,9.553769942103433,10.244807164804481,-8.188981984329537,38.8060285199768,-15.875535833148508","0","0"
"623","86","text","0","183","1870475","0-0","","","","","","","","","","","","","","","","","","","","","","","","","","","","","","","","","","","","",""
"","","plant-game","0","184","1887834","0-0","","200","190","8","WHEAT CROP","Right","200","160","4","NETTLE WEED","experimental","79","1,2,3,4,5,6,7,8","160,163.2714853109097,215.16681911744396,221.30477104873378,160,216.40679144751957,223.36881305660506,236.47299873624732","4,3,2,1,4,3,2,1","NETTLE WEED,NETTLE WEED,NETTLE WEED,NETTLE WEED,THISTLE WEED,THISTLE WEED,THISTLE WEED,THISTLE WEED","190,202.3316583800323,245.35365496884577,268.4720219380918,273.09510010437384,271.10904016253863,267.69693322011346,277.02950347440446","8,7,6,5,4,3,2,1","WHEAT CROP,WHEAT CROP,WHEAT CROP,WHEAT CROP,WHEAT CROP,WHEAT CROP,WHEAT CROP,WHEAT CROP","0,0,0,0,0,0,0,0","20,20,20,20,20,20,20,20","10,10,10,10,10,10,10,10","20,20,20,20,20,20,20,20","20,20,20,20,20,20,20,20","20,20,20,20,20,20,20,20","0,0,0,0,0,0,0,0","20,20,20,20,20,20,20,20","10,10,10,10,10,10,10,10","20,20,20,20,20,20,20,20","20,20,20,20,20,20,20,20","20,20,20,20,20,20,20,20","1,1,0,0,1,0,0,0","1810,1005,1213,870,2868,1133,631,887","3.271485310909693,51.89533380653427,6.137951931289807,-19.917850247659846,56.40679144751956,6.9620216090854825,13.104185679642264,-3.1882951652815947","12.331658380032302,43.021996588813465,23.11836696924604,4.623078166282035,-1.9860599418351867,-3.412106942425196,9.332570254290983,24.758853467119625","0","0"
"431","86","text","0","185","1888378","0-0","","","","","","","","","","","","","","","","","","","","","","","","","","","","","","","","","","","","",""
"","","plant-game","0","186","1901346","0-0","","200","190","1","WHEAT CROP","Right","200","190","4","THISTLE WEED","experimental","80","1,2,3,4","190,185.12100460087308,205.19789650288692,207.6988839794439","4,3,2,1","THISTLE WEED,THISTLE WEED,THISTLE WEED,THISTLE WEED","190,170,191.01256566395384,224.31799221381686","1,3,2,1","WHEAT CROP,CORN CROP,CORN CROP,CORN CROP","0,0,0,0","20,20,20,20","10,10,10,10","20,20,20,20","20,20,20,20","20,20,20,20","0,0,0,0","20,20,20,20","10,10,10,10","20,20,20,20","20,20,20,20","20,20,20,20","1,1,1,0","1097,1240,3280,2334","-4.878995399126914,20.076891902013855,2.500987476556972,-18.475627641616526","7.234604656882251,21.012565663953847,33.30542654986304,18.33735419949535","0","0"
"1535","86","text","0","187","1902986","0-0","","","","","","","","","","","","","","","","","","","","","","","","","","","","","","","","","","","","",""
"","","plant-game","0","188","1911650","0-0","","200","190","4","CORN CROP","Right","200","190","4","THISTLE WEED","experimental","81","1,2,3,4","190,232.57714828901644,258.6116461565711,282.63837289384986","4,3,2,1","THISTLE WEED,THISTLE WEED,THISTLE WEED,THISTLE WEED","190,198.4018121338538,197.04113675483714,226.44036352984108","4,3,2,1","CORN CROP,CORN CROP,CORN CROP,CORN CROP","0,0,0,0","20,20,20,20","10,10,10,10","20,20,20,20","20,20,20,20","20,20,20,20","0,0,0,0","20,20,20,20","10,10,10,10","20,20,20,20","20,20,20,20","20,20,20,20","1,0,1,1","2162,1173,966,1477","42.57714828901643,26.034497867554688,24.02672673727874,3.8795036830299203","8.401812133853795,-1.3606753790166621,29.399226775003946,51.00433738550363","0","0"
"592","86","text","0","189","1912338","0-0","","","","","","","","","","","","","","","","","","","","","","","","","","","","","","","","","","","","",""
"","","plant-game","0","190","1922213","0-0","","200","160","1","WHEAT CROP","Left","200","180","2","THISTLE WEED","experimental","82","1,2","160,190","1,1","WHEAT CROP,CORN CROP","180,194.27267699238016","2,1","THISTLE WEED,THISTLE WEED","20,20","20,20","10,10","20,20","0,0","20,20","20,20","20,20","10,10","20,20","0,0","20,20","1,0","2876,1534","23.82526175740649,56.352934818334795","14.272676992380147,22.888529166173935","0","0"
"512","86","text","0","191","1922829","0-0","","","","","","","","","","","","","","","","","","","","","","","","","","","","","","","","","","","","",""
