"rt","key_press","trial_type","trial_index","trial_index_global","time_elapsed","internal_chunk_id","responses","experimental_goal_height","experimental_start_height","experimental_weeks_total","experimental_crop_type","experimental_crop_side","fixed_goal_height","fixed_start_height","fixed_weeks_total","fixed_crop_type","trial_kind","trial_number","stage","left_current_height","left_weeks_remaining","left_crop_type","right_current_height","right_weeks_remaining","right_crop_type","mean_left_growth_given_left","sd_left_growth_given_left","mean_left_growth_given_middle","sd_left_growth_given_middle","mean_left_growth_given_right","sd_left_growth_given_right","mean_right_growth_given_left","sd_right_growth_given_left","mean_right_growth_given_middle","sd_right_growth_given_middle","mean_right_growth_given_right","sd_right_growth_given_right","response","response_time","left_growth","right_growth","other_key_pressed","mouse_clicked"
"3534869","77","text","0","0","3534979","0-0","","","","","","","","","","","","","","","","","","","","","","","","","","","","","","","","","","","","",""
"8366","","survey-text","0","1","3544361","0-0","{""Q0"":""17""}","","","","","","","","","","","","","","","","","","","","","","","","","","","","","","","","","","","",""
"3330","86","text","0","2","3424","0-0","","","","","","","","","","","","","","","","","","","","","","","","","","","","","","","","","","","","",""
"","","plant-game","0","3","69926","0-0","","200","120","8","CORN CROP","Right","200","120","8","THISTLE WEED","practice","1","1,2,3,4,5,6,7,8","120,116.12062550291084,146.50858200758904,136.20297357993525,99.25313728063202,97.63985790921541,86.8616678865333,116.8854873847849","8,7,6,5,4,3,2,1","THISTLE WEED,THISTLE WEED,THISTLE WEED,THISTLE WEED,THISTLE WEED,THISTLE WEED,THISTLE WEED,THISTLE WEED","120,105.63873155958633,100.04744907213303,79.76040538722525,83.63898761800775,87.35194769869821,85.16950658343278,109.0698945056653","8,7,6,5,4,3,2,1","CORN CROP,CORN CROP,CORN CROP,CORN CROP,CORN CROP,CORN CROP,CORN CROP,CORN CROP","0,0,0,0,0,0,0,0","20,20,20,20,20,20,20,20","10,10,10,10,10,10,10,10","20,20,20,20,20,20,20,20","20,20,20,20,20,20,20,20","20,20,20,20,20,20,20,20","0,0,0,0,0,0,0,0","20,20,20,20,20,20,20,20","10,10,10,10,10,10,10,10","20,20,20,20,20,20,20,20","20,20,20,20,20,20,20,20","20,20,20,20,20,20,20,20","0,1,1,0,0,0,1,1","20287,6562,3267,7051,415,659,2300,2636","-3.8793744970891586,30.387956504678208,-10.305608427653805,-36.949836299303236,-1.613279371416606,-10.778190022682104,30.023819498251598,3.2658789710435414","-14.361268440413673,-5.591282487453299,-20.287043684907786,3.8785822307824964,3.7129600806904577,-2.1824411152654286,23.900387922232525,1.0808192439393096","0","0"
"897","86","text","0","4","70963","0-0","","","","","","","","","","","","","","","","","","","","","","","","","","","","","","","","","","","","",""
"","","plant-game","0","5","95930","0-0","","200","160","4","CORN CROP","Left","200","160","4","THISTLE WEED","practice","2","1,2,3,4","160,199.72799808746026,196.51625173214708,224.1076640325308","4,3,2,1","CORN CROP,CORN CROP,CORN CROP,CORN CROP","160,204.2811625967406,225.54076835770505,206.70163674351681","4,3,2,1","THISTLE WEED,THISTLE WEED,THISTLE WEED,THISTLE WEED","20,20,20,20","20,20,20,20","10,10,10,10","20,20,20,20","0,0,0,0","20,20,20,20","20,20,20,20","20,20,20,20","10,10,10,10","20,20,20,20","0,0,0,0","20,20,20,20","0,1,1,1","6598,2073,2930,2597","39.72799808746027,-3.211746355313187,27.59141230038371,-27.488847763897887","44.281162596740586,21.259605760964458,-18.839131614188243,24.984034571726312","0","0"
"600","86","text","0","6","96680","0-0","","","","","","","","","","","","","","","","","","","","","","","","","","","","","","","","","","","","",""
"","","plant-game","0","7","114874","0-0","","200","180","2","CORN CROP","Right","200","180","2","NETTLE WEED","practice","3","1,2","180,161.27859027176953","2,1","NETTLE WEED,NETTLE WEED","180,205.56566882265975","2,1","CORN CROP,CORN CROP","0,0","20,20","10,10","20,20","20,20","20,20","0,0","20,20","10,10","20,20","20,20","20,20","0,0","427,2066","-18.72140972823048,5.164561575575481","25.565668822659738,-21.560566477970752","0","0"
"626","86","text","0","8","115630","0-0","","","","","","","","","","","","","","","","","","","","","","","","","","","","","","","","","","","","",""
"","","plant-game","0","9","134683","0-0","","200","190","1","CORN CROP","Left","200","190","1","THISTLE WEED","practice","4","1","190","1","CORN CROP","190","1","THISTLE WEED","20","20","10","20","0","20","20","20","10","20","0","20","1","300","-31.63777808454483","-9.084295625996274","0","0"
"787","86","text","0","10","135579","0-0","","","","","","","","","","","","","","","","","","","","","","","","","","","","","","","","","","","","",""
"","","plant-game","0","11","155956","0-0","","200","120","8","CORN CROP","Left","200","160","8","NETTLE WEED","practice","5","1,2,3,4,5,6,7,8","120,87.12633027083669,96.25075310315569,121.39286521296944,121.53026377871655,148.8026973077873,134.07692926842475,176.52455445842884","8,7,6,5,4,3,2,1","CORN CROP,CORN CROP,CORN CROP,CORN CROP,CORN CROP,CORN CROP,CORN CROP,CORN CROP","160,125.26853951183315,109.13266808536096,85.49448974774864,70.63821974975261,63.963951857074605,68.85846509385473,76.11949159987773","8,7,6,5,4,3,2,1","NETTLE WEED,NETTLE WEED,NETTLE WEED,NETTLE WEED,NETTLE WEED,NETTLE WEED,NETTLE WEED,NETTLE WEED","20,20,20,20,20,20,20,20","20,20,20,20,20,20,20,20","10,10,10,10,10,10,10,10","20,20,20,20,20,20,20,20","0,0,0,0,0,0,0,0","20,20,20,20,20,20,20,20","20,20,20,20,20,20,20,20","20,20,20,20,20,20,20,20","10,10,10,10,10,10,10,10","20,20,20,20,20,20,20,20","0,0,0,0,0,0,0,0","20,20,20,20,20,20,20,20","1,1,1,1,0,0,0,0","323,575,1435,1052,1215,600,1247,1071","-32.8736697291633,9.124422832319,25.142112109813745,0.1373985657471096,27.27243352907074,-14.725768039362535,42.44762519000409,-19.289275380190993","-34.73146048816684,-16.1358714264722,-23.63817833761231,-14.85626999799604,-6.6742678926779995,4.894513236780135,7.261026506023002,-3.476452108678771","0","0"
"484","86","text","0","12","156580","0-0","","","","","","","","","","","","","","","","","","","","","","","","","","","","","","","","","","","","",""
"","","plant-game","0","13","178626","0-0","","200","180","4","CORN CROP","Right","200","160","4","THISTLE WEED","practice","6","1,2,3,4","160,186.17225275194295,203.07023050657912,225.2821811606701","4,3,2,1","THISTLE WEED,THISTLE WEED,THISTLE WEED,THISTLE WEED","180,188.13129453950503,171.4650719595861,220.52274626365207","4,3,2,1","CORN CROP,CORN CROP,CORN CROP,CORN CROP","0,0,0,0","20,20,20,20","10,10,10,10","20,20,20,20","20,20,20,20","20,20,20,20","0,0,0,0","20,20,20,20","10,10,10,10","20,20,20,20","20,20,20,20","20,20,20,20","1,0,0,1","1913,1616,3035,3531","26.172252751942942,16.897977754636166,22.211950654090963,38.05001176610719","8.131294539505042,-16.666222579918912,49.057674304065955,24.73156530090614","0","0"
"1023","86","text","0","14","179779","0-0","","","","","","","","","","","","","","","","","","","","","","","","","","","","","","","","","","","","",""
"","","plant-game","0","15","197666","0-0","","200","180","2","CORN CROP","Right","200","190","2","THISTLE WEED","practice","7","1,2","190,196.60413009808084","2,1","THISTLE WEED,THISTLE WEED","180,174.648490519803","2,1","CORN CROP,CORN CROP","0,0","20,20","10,10","20,20","20,20","20,20","0,0","20,20","10,10","20,20","20,20","20,20","0,1","296,1695","6.604130098080835,44.52263807065651","-5.351509480196988,45.44628082828916","0","0"
"570","86","text","0","16","198366","0-0","","","","","","","","","","","","","","","","","","","","","","","","","","","","","","","","","","","","",""
"","","plant-game","0","17","232659","0-0","","200","120","4","WHEAT CROP","Left","200","120","8","THISTLE WEED","practice","8","1,2,3,4,5,6,7,8","120,168.4246311009602,193.0338694546471,242.38167793334395,160,183.73438099484585,190.19461357655186,198.51546969457226","4,3,2,1,4,3,2,1","WHEAT CROP,WHEAT CROP,WHEAT CROP,WHEAT CROP,CORN CROP,CORN CROP,CORN CROP,CORN CROP","120,79.89855979273709,112.14194151127734,162.1337048553438,137.1039038006742,149.6664579268519,147.75163099410034,198.6112237313194","8,7,6,5,4,3,2,1","THISTLE WEED,THISTLE WEED,THISTLE WEED,THISTLE WEED,THISTLE WEED,THISTLE WEED,THISTLE WEED,THISTLE WEED","20,20,20,20,20,20,20,20","20,20,20,20,20,20,20,20","10,10,10,10,10,10,10,10","20,20,20,20,20,20,20,20","0,0,0,0,0,0,0,0","20,20,20,20,20,20,20,20","20,20,20,20,20,20,20,20","20,20,20,20,20,20,20,20","10,10,10,10,10,10,10,10","20,20,20,20,20,20,20,20","0,0,0,0,0,0,0,0","20,20,20,20,20,20,20,20","1,0,0,1,0,0,0,1","359,1366,707,1501,5948,678,517,1857","48.42463110096019,24.60923835368689,49.34780847869686,10.576138136865207,23.73438099484584,6.460232581706009,8.320856118020394,-28.39838711800021","-40.10144020726291,32.24338171854024,49.99176334406646,-25.029801054669612,12.562554126177707,-1.9148269327515735,50.85959273721905,29.422221095662433","0","0"
"509","86","text","0","18","233325","0-0","","","","","","","","","","","","","","","","","","","","","","","","","","","","","","","","","","","","",""
"","","plant-game","0","19","263902","0-0","","200","160","4","CORN CROP","Right","200","160","2","NETTLE WEED","practice","9","1,2,3,4","160,157.81110508396782,180,160.6619618900509","2,1,2,1","NETTLE WEED,NETTLE WEED,THISTLE WEED,THISTLE WEED","160,142.46182447115194,190.05482472545606,189.2962821309326","4,3,2,1","CORN CROP,CORN CROP,CORN CROP,CORN CROP","0,0,0,0","20,20,20,20","10,10,10,10","20,20,20,20","20,20,20,20","20,20,20,20","0,0,0,0","20,20,20,20","10,10,10,10","20,20,20,20","20,20,20,20","20,20,20,20","0,0,0,0","7166,392,1029,1741","-2.188894916032174,-7.12410760080754,-19.3380381099491,3.652720498271264","-17.538175528848058,47.5930002543041,-0.7585425945234535,21.983495562888542","0","0"
"523","86","text","0","20","264558","0-0","","","","","","","","","","","","","","","","","","","","","","","","","","","","","","","","","","","","",""
"","","plant-game","0","21","282421","0-0","","200","180","2","CORN CROP","Left","200","180","1","THISTLE WEED","practice","10","1,2","180,160.94840399515684","2,1","CORN CROP,CORN CROP","180,190","1,1","THISTLE WEED,NETTLE WEED","20,20","20,20","10,10","20,20","0,0","20,20","20,20","20,20","10,10","20,20","0,0","20,20","1,1","257,3552","-19.051596004843173,-1.1901231049086718","1.1027596064248908,13.368843283758984","0","0"
"410","86","text","0","22","282981","0-0","","","","","","","","","","","","","","","","","","","","","","","","","","","","","","","","","","","","",""
"","","plant-game","0","23","303086","0-0","","200","120","8","CORN CROP","Left","200","160","4","NETTLE WEED","practice","11","1,2,3,4,5,6,7,8","120,125.18291317279935,139.39270067706173,131.57635578436168,125.13337643536619,136.49035798511488,148.55465740149072,208.33079075288708","8,7,6,5,4,3,2,1","CORN CROP,CORN CROP,CORN CROP,CORN CROP,CORN CROP,CORN CROP,CORN CROP,CORN CROP","160,171.7378485065943,179.54185918935593,179.65016584755514,160,179.15696094990858,186.90043470196068,189.70465526536435","4,3,2,1,4,3,2,1","NETTLE WEED,NETTLE WEED,NETTLE WEED,NETTLE WEED,THISTLE WEED,THISTLE WEED,THISTLE WEED,THISTLE WEED","20,20,20,20,20,20,20,20","20,20,20,20,20,20,20,20","10,10,10,10,10,10,10,10","20,20,20,20,20,20,20,20","0,0,0,0,0,0,0,0","20,20,20,20,20,20,20,20","20,20,20,20,20,20,20,20","20,20,20,20,20,20,20,20","10,10,10,10,10,10,10,10","20,20,20,20,20,20,20,20","0,0,0,0,0,0,0,0","20,20,20,20,20,20,20,20","1,1,1,1,0,0,0,1","1633,336,350,360,1090,356,747,4353","5.182913172799348,14.20978750426238,-7.816344892700041,-6.442979348995487,11.356981549748696,12.064299416375839,59.77613335139635,22.348900067929918","11.737848506594315,7.804010682761616,0.10830665819922167,30.80416487091036,19.15696094990859,7.743473752052097,2.804220563403689,-27.19515045880527","0","0"
"460","86","text","0","24","303716","0-0","","","","","","","","","","","","","","","","","","","","","","","","","","","","","","","","","","","","",""
"","","plant-game","0","25","324177","0-0","","200","180","2","CORN CROP","Right","200","160","4","THISTLE WEED","practice","12","1,2,3,4","160,132.4698131555148,158.84644536185166,198.7269852402069","4,3,2,1","THISTLE WEED,THISTLE WEED,THISTLE WEED,THISTLE WEED","180,157.55625148107558,180,190.49546425018985","2,1,2,1","CORN CROP,CORN CROP,WHEAT CROP,WHEAT CROP","0,0,0,0","20,20,20,20","10,10,10,10","20,20,20,20","20,20,20,20","20,20,20,20","0,0,0,0","20,20,20,20","10,10,10,10","20,20,20,20","20,20,20,20","20,20,20,20","0,0,1,0","573,609,575,1718","-27.530186844485204,26.376632206336865,39.880539878355236,-16.382124032468063","-22.443748518924433,16.13697508872177,10.495464250189846,23.043579215862145","0","0"
"423","86","text","0","26","324710","0-0","","","","","","","","","","","","","","","","","","","","","","","","","","","","","","","","","","","","",""
"6629","86","text","0","27","332451","0-0","","","","","","","","","","","","","","","","","","","","","","","","","","","","","","","","","","","","",""
"","","plant-game","0","28","360413","0-0","","200","160","8","WHEAT CROP","Right","200","120","2","THISTLE WEED","experimental","1","1,2,3,4,5,6,7,8","120,103.62749529046226,140,138.39277917431104,143.52250480776215,126.56551894782154,177.12694732035652,186.8727196382278","2,1,6,5,4,3,2,1","THISTLE WEED,THISTLE WEED,NETTLE WEED,NETTLE WEED,NETTLE WEED,NETTLE WEED,NETTLE WEED,NETTLE WEED","160,164.31448274092213,176.98109539898712,167.4743425871935,164.79913964411827,154.12398020403452,165.45175639570422,175.1705558052117","8,7,6,5,4,3,2,1","WHEAT CROP,WHEAT CROP,WHEAT CROP,WHEAT CROP,WHEAT CROP,WHEAT CROP,WHEAT CROP,WHEAT CROP","0,0,0,0,0,0,0,0","20,20,20,20,20,20,20,20","10,10,10,10,10,10,10,10","20,20,20,20,20,20,20,20","20,20,20,20,20,20,20,20","20,20,20,20,20,20,20,20","0,0,0,0,0,0,0,0","20,20,20,20,20,20,20,20","10,10,10,10,10,10,10,10","20,20,20,20,20,20,20,20","20,20,20,20,20,20,20,20","20,20,20,20,20,20,20,20","0,1,0,0,1,1,0,1","6605,3605,3695,467,2462,605,813,2623","-16.37250470953773,-1.0507304156049493,-1.6072208256889433,5.129725633451106,-16.956985859940602,50.56142837253497,9.745772317871284,17.571825669834645","4.314482740922123,12.666612658065004,-9.506752811793643,-2.675202943075217,-10.675159440083732,11.327776191669692,9.71879940950749,0.94267681999915","0","0"
"673","86","text","0","29","361216","0-0","","","","","","","","","","","","","","","","","","","","","","","","","","","","","","","","","","","","",""
"","","plant-game","0","30","377566","0-0","","200","160","2","CORN CROP","Right","200","190","4","NETTLE WEED","experimental","2","1,2,3,4","190,174.60182060223423,175.20042814905898,137.1590401279694","4,3,2,1","NETTLE WEED,NETTLE WEED,NETTLE WEED,NETTLE WEED","160,158.3209968047601,180,177.9157561260949","2,1,2,1","CORN CROP,CORN CROP,WHEAT CROP,WHEAT CROP","0,0,0,0","20,20,20,20","10,10,10,10","20,20,20,20","20,20,20,20","20,20,20,20","0,0,0,0","20,20,20,20","10,10,10,10","20,20,20,20","20,20,20,20","20,20,20,20","0,0,0,1","4048,1334,2334,1952","-15.398179397765773,0.5986075468247456,-38.04138802108958,47.58976517046813","-1.6790031952398843,6.232717851950697,-2.0842438739051037,32.454135767580695","0","0"
"500","86","text","0","31","378236","0-0","","","","","","","","","","","","","","","","","","","","","","","","","","","","","","","","","","","","",""
"","","plant-game","0","32","391220","0-0","","200","160","2","CORN CROP","Right","200","190","1","NETTLE WEED","experimental","3","1,2","190,190","1,1","NETTLE WEED,THISTLE WEED","160,156.27486976200905","2,1","CORN CROP,CORN CROP","0,0","20,20","10,10","20,20","20,20","20,20","0,0","20,20","10,10","20,20","20,20","20,20","0,0","4542,2806","1.509064688039259,13.875612722390771","-3.7251302379909412,-12.687682724828935","0","0"
"397","86","text","0","33","391737","0-0","","","","","","","","","","","","","","","","","","","","","","","","","","","","","","","","","","","","",""
"","","plant-game","0","34","407403","0-0","","200","180","8","WHEAT CROP","Right","200","180","8","NETTLE WEED","experimental","4","1,2,3,4,5,6,7,8","180,128.26486255960418,125.25788193688965,117.13422415946717,123.1589925965768,141.01773068695357,150.2283174135101,165.22722892623344","8,7,6,5,4,3,2,1","NETTLE WEED,NETTLE WEED,NETTLE WEED,NETTLE WEED,NETTLE WEED,NETTLE WEED,NETTLE WEED,NETTLE WEED","180,206.31915803327504,218.70367616579884,233.99628044112666,208.7648717674769,221.15906541891803,232.7552329178037,225.94233047607733","8,7,6,5,4,3,2,1","WHEAT CROP,WHEAT CROP,WHEAT CROP,WHEAT CROP,WHEAT CROP,WHEAT CROP,WHEAT CROP,WHEAT CROP","0,0,0,0,0,0,0,0","20,20,20,20,20,20,20,20","10,10,10,10,10,10,10,10","20,20,20,20,20,20,20,20","20,20,20,20,20,20,20,20","20,20,20,20,20,20,20,20","0,0,0,0,0,0,0,0","20,20,20,20,20,20,20,20","10,10,10,10,10,10,10,10","20,20,20,20,20,20,20,20","20,20,20,20,20,20,20,20","20,20,20,20,20,20,20,20","0,0,0,0,0,0,0,0","7674,1429,503,357,270,207,239,250","-51.73513744039581,-3.006980622714532,-8.123657777422478,6.024768437109635,17.858738090376786,9.21058672655654,14.998911512723339,-19.8715038272679","26.319158033275055,12.384518132523795,15.292604275327825,-25.231408673649767,12.39419365144113,11.596167498885688,-6.812902441726387,-13.99104594247073","0","0"
"507","86","text","0","35","408050","0-0","","","","","","","","","","","","","","","","","","","","","","","","","","","","","","","","","","","","",""
"","","plant-game","0","36","421157","0-0","","200","180","4","WHEAT CROP","Right","200","120","8","NETTLE WEED","experimental","5","1,2,3,4,5,6,7,8","120,109.93159145351133,112.04082779914678,101.58903377616387,90.06614579783874,135.99367301369284,173.66327143574426,162.9154033104392","8,7,6,5,4,3,2,1","NETTLE WEED,NETTLE WEED,NETTLE WEED,NETTLE WEED,NETTLE WEED,NETTLE WEED,NETTLE WEED,NETTLE WEED","180,173.35791729734657,119.99838608135968,137.012108608134,160,186.55675143011416,201.191712787676,206.5952477181994","4,3,2,1,4,3,2,1","WHEAT CROP,WHEAT CROP,WHEAT CROP,WHEAT CROP,CORN CROP,CORN CROP,CORN CROP,CORN CROP","0,0,0,0,0,0,0,0","20,20,20,20,20,20,20,20","10,10,10,10,10,10,10,10","20,20,20,20,20,20,20,20","20,20,20,20,20,20,20,20","20,20,20,20,20,20,20,20","0,0,0,0,0,0,0,0","20,20,20,20,20,20,20,20","10,10,10,10,10,10,10,10","20,20,20,20,20,20,20,20","20,20,20,20,20,20,20,20","20,20,20,20,20,20,20,20","0,0,0,0,1,1,0,0","1698,269,206,340,2200,394,1180,406","-10.068408546488673,2.1092363456354564,-10.451794022982915,-11.522887978325137,45.927527215854084,37.66959842205142,-10.747868125305072,20.051574402606562","-6.642082702653437,-53.359531215986884,17.01372252677433,10.68997196490804,26.55675143011417,14.634961357561856,5.4035349305233895,-13.01046435901289","0","0"
"530","86","text","0","37","421877","0-0","","","","","","","","","","","","","","","","","","","","","","","","","","","","","","","","","","","","",""
"","","plant-game","0","38","434653","0-0","","200","180","1","WHEAT CROP","Right","200","180","8","THISTLE WEED","experimental","6","1,2,3,4,5,6,7,8","180,182.71736534816412,200.77722334160143,240.94181427142595,280.8872620220885,294.132210832135,332.9628524046392,341.27472281429084","8,7,6,5,4,3,2,1","THISTLE WEED,THISTLE WEED,THISTLE WEED,THISTLE WEED,THISTLE WEED,THISTLE WEED,THISTLE WEED,THISTLE WEED","180,130,147.0626517079372,164.41817567814905,198.6448730196035,241.17751891760042,251.27366152120086,274.5098826813657","1,7,6,5,4,3,2,1","WHEAT CROP,CORN CROP,CORN CROP,CORN CROP,CORN CROP,CORN CROP,CORN CROP,CORN CROP","0,0,0,0,0,0,0,0","20,20,20,20,20,20,20,20","10,10,10,10,10,10,10,10","20,20,20,20,20,20,20,20","20,20,20,20,20,20,20,20","20,20,20,20,20,20,20,20","0,0,0,0,0,0,0,0","20,20,20,20,20,20,20,20","10,10,10,10,10,10,10,10","20,20,20,20,20,20,20,20","20,20,20,20,20,20,20,20","20,20,20,20,20,20,20,20","1,1,1,1,1,1,1,1","2387,704,666,530,384,1469,236,233","2.7173653481641296,18.059857993437312,40.16459092982453,39.945447750662595,13.244948810046498,38.83064157250419,8.311870409651636,25.624227114914273","-2.223432962256563,17.06265170793719,17.355523970211866,34.22669734145444,42.53264589799692,10.096142603600452,23.236221160164813,74.512045839523","0","0"
"413","86","text","0","39","435176","0-0","","","","","","","","","","","","","","","","","","","","","","","","","","","","","","","","","","","","",""
"","","plant-game","0","40","459550","0-0","","200","160","4","CORN CROP","Left","200","160","8","NETTLE WEED","experimental","7","1,2,3,4,5,6,7,8","160,183.35075000550722,227.4271989615719,232.88095572041175,160,167.5551482549412,176.71159532914552,213.2758260250404","4,3,2,1,4,3,2,1","CORN CROP,CORN CROP,CORN CROP,CORN CROP,WHEAT CROP,WHEAT CROP,WHEAT CROP,WHEAT CROP","160,184.51177616156608,226.02037477239145,230.20237105706988,216.75666705089122,216.24726563019985,222.560338486698,207.81422505011946","8,7,6,5,4,3,2,1","NETTLE WEED,NETTLE WEED,NETTLE WEED,NETTLE WEED,NETTLE WEED,NETTLE WEED,NETTLE WEED,NETTLE WEED","20,20,20,20,20,20,20,20","20,20,20,20,20,20,20,20","10,10,10,10,10,10,10,10","20,20,20,20,20,20,20,20","0,0,0,0,0,0,0,0","20,20,20,20,20,20,20,20","20,20,20,20,20,20,20,20","20,20,20,20,20,20,20,20","10,10,10,10,10,10,10,10","20,20,20,20,20,20,20,20","0,0,0,0,0,0,0,0","20,20,20,20,20,20,20,20","0,0,1,1,0,1,0,0","3859,4499,1217,440,1324,1485,4117,1425","23.350750005507226,44.07644895606468,5.453756758839864,-31.6019864531432,7.555148254941191,9.156447074204316,36.56423069589488,27.809996138090426","24.511776161566086,41.50859861082537,4.181996284678421,-13.445704006178655,-0.5094014206913755,6.313072856498129,-14.746113436578526,51.95404966511089","0","0"
"550","86","text","0","41","460220","0-0","","","","","","","","","","","","","","","","","","","","","","","","","","","","","","","","","","","","",""
"","","plant-game","0","42","473860","0-0","","200","180","8","CORN CROP","Right","200","120","4","NETTLE WEED","experimental","8","1,2,3,4,5,6,7,8","120,107.30843685322196,133.24943451011154,120.37517293230944,160,163.36425519475668,197.32833314119085,185.2713980110847","4,3,2,1,4,3,2,1","NETTLE WEED,NETTLE WEED,NETTLE WEED,NETTLE WEED,THISTLE WEED,THISTLE WEED,THISTLE WEED,THISTLE WEED","180,193.7140047434601,192.81869732174027,213.43700706569254,186.06823951105906,149.02065552189387,143.76031758441187,135.38527098111575","8,7,6,5,4,3,2,1","CORN CROP,CORN CROP,CORN CROP,CORN CROP,CORN CROP,CORN CROP,CORN CROP,CORN CROP","0,0,0,0,0,0,0,0","20,20,20,20,20,20,20,20","10,10,10,10,10,10,10,10","20,20,20,20,20,20,20,20","20,20,20,20,20,20,20,20","20,20,20,20,20,20,20,20","0,0,0,0,0,0,0,0","20,20,20,20,20,20,20,20","10,10,10,10,10,10,10,10","20,20,20,20,20,20,20,20","20,20,20,20,20,20,20,20","20,20,20,20,20,20,20,20","0,0,0,0,0,0,0,0","3577,385,362,842,1840,350,260,442","-12.691563146778035,25.94099765688959,-12.8742615778021,-19.186829928325526,3.364255194756669,33.96407794643419,-12.056935130106165,19.087174177987418","13.714004743460084,-0.8953074217198116,20.618309743952278,-27.368767554633475,-37.04758398916518,-5.260337937481994,-8.375046603296099,-14.533918187349634","0","0"
"386","86","text","0","43","474436","0-0","","","","","","","","","","","","","","","","","","","","","","","","","","","","","","","","","","","","",""
"","","plant-game","0","44","488010","0-0","","200","120","8","CORN CROP","Left","200","190","4","THISTLE WEED","experimental","9","1,2,3,4,5,6,7,8","120,147.1870068983784,128.85712939189042,124.58391993820939,133.14262212086538,186.51892453874956,176.3132475864984,175.36925413014313","8,7,6,5,4,3,2,1","CORN CROP,CORN CROP,CORN CROP,CORN CROP,CORN CROP,CORN CROP,CORN CROP,CORN CROP","190,233.1018891425967,263.0395519932198,273.72093080017146,160,189.38287059210666,221.07794338001543,234.08000463363476","4,3,2,1,4,3,2,1","THISTLE WEED,THISTLE WEED,THISTLE WEED,THISTLE WEED,NETTLE WEED,NETTLE WEED,NETTLE WEED,NETTLE WEED","20,20,20,20,20,20,20,20","20,20,20,20,20,20,20,20","10,10,10,10,10,10,10,10","20,20,20,20,20,20,20,20","0,0,0,0,0,0,0,0","20,20,20,20,20,20,20,20","20,20,20,20,20,20,20,20","20,20,20,20,20,20,20,20","10,10,10,10,10,10,10,10","20,20,20,20,20,20,20,20","0,0,0,0,0,0,0,0","20,20,20,20,20,20,20,20","0,1,0,0,0,1,1,1","597,625,534,184,2383,1052,1812,407","27.187006898378392,-18.32987750648797,-4.273209453681034,8.558702182656003,53.37630241788416,-10.20567695225116,-0.9439934563552689,38.28991544421692","43.10188914259669,29.937662850623106,10.68137880695165,53.8930102331623,29.38287059210664,31.69507278790878,13.002061253619331,17.87985129536734","0","0"
"416","86","text","0","45","488566","0-0","","","","","","","","","","","","","","","","","","","","","","","","","","","","","","","","","","","","",""
"","","plant-game","0","46","496398","0-0","","200","190","2","WHEAT CROP","Left","200","160","2","NETTLE WEED","experimental","10","1,2","190,188.8009353621227","2,1","WHEAT CROP,WHEAT CROP","160,183.38250477255917","2,1","NETTLE WEED,NETTLE WEED","20,20","20,20","10,10","20,20","0,0","20,20","20,20","20,20","10,10","20,20","0,0","20,20","0,0","2054,1966","-1.1990646378773206,33.225764057987774","23.38250477255918,69.84748737010432","0","0"
"371","86","text","0","47","496919","0-0","","","","","","","","","","","","","","","","","","","","","","","","","","","","","","","","","","","","",""
"","","plant-game","0","48","503386","0-0","","200","190","4","CORN CROP","Right","200","180","4","THISTLE WEED","experimental","11","1,2,3,4","180,158.89922703759373,177.91941690498646,132.45632424676452","4,3,2,1","THISTLE WEED,THISTLE WEED,THISTLE WEED,THISTLE WEED","190,208.89578320838748,208.51438673925105,235.81289541619637","4,3,2,1","CORN CROP,CORN CROP,CORN CROP,CORN CROP","0,0,0,0","20,20,20,20","10,10,10,10","20,20,20,20","20,20,20,20","20,20,20,20","0,0,0,0","20,20,20,20","10,10,10,10","20,20,20,20","20,20,20,20","20,20,20,20","0,1,0,0","606,154,1407,585","-21.10077296240627,19.020189867392727,-45.46309265822194,-21.41789587559529","18.895783208387478,-0.3813964691364191,27.298508676945307,-9.7948030566345","0","0"
"415","86","text","0","49","503941","0-0","","","","","","","","","","","","","","","","","","","","","","","","","","","","","","","","","","","","",""
"","","plant-game","0","50","518769","0-0","","200","160","2","CORN CROP","Left","200","180","4","NETTLE WEED","experimental","12","1,2,3,4","160,166.9112657081155,180,202.58465319749365","2,1,2,1","CORN CROP,CORN CROP,WHEAT CROP,WHEAT CROP","180,176.85827992286193,221.12658495723426,233.62185527675715","4,3,2,1","NETTLE WEED,NETTLE WEED,NETTLE WEED,NETTLE WEED","20,20,20,20","20,20,20,20","10,10,10,10","20,20,20,20","0,0,0,0","20,20,20,20","20,20,20,20","20,20,20,20","10,10,10,10","20,20,20,20","0,0,0,0","20,20,20,20","1,0,1,1","3388,1205,2949,2377","6.911265708115501,2.4360128899833597,22.584653197493637,-22.58665397260137","-3.141720077138075,44.268305034372325,12.495270319522875,-27.481964132938266","0","0"
"364","86","text","0","51","519275","0-0","","","","","","","","","","","","","","","","","","","","","","","","","","","","","","","","","","","","",""
"","","plant-game","0","52","529281","0-0","","200","120","2","CORN CROP","Left","200","190","4","THISTLE WEED","experimental","13","1,2,3,4","120,101.51883960630038,180,195.56396508411834","2,1,2,1","CORN CROP,CORN CROP,WHEAT CROP,WHEAT CROP","190,215.39000733915412,219.53271133007541,226.71864205252734","4,3,2,1","THISTLE WEED,THISTLE WEED,THISTLE WEED,THISTLE WEED","20,20,20,20","20,20,20,20","10,10,10,10","20,20,20,20","0,0,0,0","20,20,20,20","20,20,20,20","20,20,20,20","10,10,10,10","20,20,20,20","0,0,0,0","20,20,20,20","0,0,0,0","3637,59,1388,111","-18.481160393699625,-4.647743055677829,15.563965084118337,23.971590769137045","25.39000733915411,4.142703990921303,7.185930722451914,32.953192085754864","0","0"
"108","86","text","0","53","529529","0-0","","","","","","","","","","","","","","","","","","","","","","","","","","","","","","","","","","","","",""
"","","plant-game","0","54","540230","0-0","","200","120","1","WHEAT CROP","Left","200","120","4","NETTLE WEED","experimental","14","1,2,3,4","120,170,188.75146144394648,189.2967547656255","1,3,2,1","WHEAT CROP,CORN CROP,CORN CROP,CORN CROP","120,123.99456650434306,161.0787689381776,194.79563434118546","4,3,2,1","NETTLE WEED,NETTLE WEED,NETTLE WEED,NETTLE WEED","20,20,20,20","20,20,20,20","10,10,10,10","20,20,20,20","0,0,0,0","20,20,20,20","20,20,20,20","20,20,20,20","10,10,10,10","20,20,20,20","0,0,0,0","20,20,20,20","0,0,0,1","173,922,1446,3443","3.4016568338833117,18.751461443946475,0.5452933216790257,-29.403587350215364","3.994566504343055,37.084202433834555,33.71686540300786,26.97983734077832","0","0"
"304","86","text","0","55","540734","0-0","","","","","","","","","","","","","","","","","","","","","","","","","","","","","","","","","","","","",""
"","","plant-game","0","56","552650","0-0","","200","190","1","WHEAT CROP","Right","200","120","8","NETTLE WEED","experimental","15","1,2,3,4,5,6,7,8","120,148.37654508774105,129.4851687576716,142.92998593121038,144.0991428922541,137.63720672049442,132.01463719983596,92.76129072366717","8,7,6,5,4,3,2,1","NETTLE WEED,NETTLE WEED,NETTLE WEED,NETTLE WEED,NETTLE WEED,NETTLE WEED,NETTLE WEED,NETTLE WEED","190,130,79.59653455287047,98.19770294755394,101.29089330425619,106.36318402947856,74.553261040034,79.4225891387359","1,7,6,5,4,3,2,1","WHEAT CROP,CORN CROP,CORN CROP,CORN CROP,CORN CROP,CORN CROP,CORN CROP,CORN CROP","0,0,0,0,0,0,0,0","20,20,20,20,20,20,20,20","10,10,10,10,10,10,10,10","20,20,20,20,20,20,20,20","20,20,20,20,20,20,20,20","20,20,20,20,20,20,20,20","0,0,0,0,0,0,0,0","20,20,20,20,20,20,20,20","10,10,10,10,10,10,10,10","20,20,20,20,20,20,20,20","20,20,20,20,20,20,20,20","20,20,20,20,20,20,20,20","0,0,0,0,0,0,0,1","679,2747,430,313,187,113,250,490","28.37654508774105,-18.891376330069438,13.444817173538787,1.1691569610437103,-6.461936171759662,-5.622569520658459,-39.25334647616878,42.52247152903843","32.29107205773441,-50.403465447129534,18.601168394683473,3.093190356702249,5.072290725222368,-31.809922989444562,4.869328098701901,21.72977835433557","0","0"
"4018","86","text","0","57","556798","0-0","","","","","","","","","","","","","","","","","","","","","","","","","","","","","","","","","","","","",""
"","","plant-game","0","58","564127","0-0","","200","190","1","WHEAT CROP","Left","200","120","2","THISTLE WEED","experimental","16","1,2","190,190","1,1","WHEAT CROP,CORN CROP","120,153.09602483196457","2,1","THISTLE WEED,THISTLE WEED","20,20","20,20","10,10","20,20","0,0","20,20","20,20","20,20","10,10","20,20","0,0","20,20","0,0","1158,736","8.476796490819318,66.21387018998973","33.09602483196457,41.804870375188024","0","0"
"6338","86","text","0","59","570615","0-0","","","","","","","","","","","","","","","","","","","","","","","","","","","","","","","","","","","","",""
"","","plant-game","0","60","583767","0-0","","200","160","1","CORN CROP","Right","200","120","4","NETTLE WEED","experimental","17","1,2,3,4","120,118.29471377829063,110.85013577666982,184.5244186735332","4,3,2,1","NETTLE WEED,NETTLE WEED,NETTLE WEED,NETTLE WEED","160,170,180.38129158820865,214.52493764559503","1,3,2,1","CORN CROP,WHEAT CROP,WHEAT CROP,WHEAT CROP","0,0,0,0","20,20,20,20","10,10,10,10","20,20,20,20","20,20,20,20","20,20,20,20","0,0,0,0","20,20,20,20","10,10,10,10","20,20,20,20","20,20,20,20","20,20,20,20","0,1,1,0","2714,2200,453,1404","-1.7052862217093776,-7.444578001620819,73.67428289686339,-55.83418438565236","28.530256820047313,10.381291588208654,34.14364605738637,22.063376531266023","0","0"
"557","86","text","0","61","584521","0-0","","","","","","","","","","","","","","","","","","","","","","","","","","","","","","","","","","","","",""
"","","plant-game","0","62","594411","0-0","","200","160","4","CORN CROP","Right","200","190","1","THISTLE WEED","experimental","18","1,2,3,4","190,170,132.07975167193277,159.78718491150667","1,3,2,1","THISTLE WEED,NETTLE WEED,NETTLE WEED,NETTLE WEED","160,135.43257974437807,133.08907853651695,168.61940705061028","4,3,2,1","CORN CROP,CORN CROP,CORN CROP,CORN CROP","0,0,0,0","20,20,20,20","10,10,10,10","20,20,20,20","20,20,20,20","20,20,20,20","0,0,0,0","20,20,20,20","10,10,10,10","20,20,20,20","20,20,20,20","20,20,20,20","0,0,1,1","1205,2171,993,399","-37.5421434696931,-37.92024832806723,27.707433239573895,51.23072601260049","-24.56742025562194,-2.3435012078611126,35.53032851409331,14.944533055207607","0","0"
"276","86","text","0","63","594977","0-0","","","","","","","","","","","","","","","","","","","","","","","","","","","","","","","","","","","","",""
"","","plant-game","0","64","605477","0-0","","200","120","8","CORN CROP","Right","200","120","8","THISTLE WEED","experimental","19","1,2,3,4,5,6,7,8","120,72.35486980831203,87.83571125540345,116.03675608893785,141.73564971147502,158.68293688372017,188.0148496098607,176.0423351273478","8,7,6,5,4,3,2,1","THISTLE WEED,THISTLE WEED,THISTLE WEED,THISTLE WEED,THISTLE WEED,THISTLE WEED,THISTLE WEED,THISTLE WEED","120,132.36610587507795,135.91923959528475,189.02692628899734,184.89638789294713,181.81808937287678,190.3379748320055,211.62281030767394","8,7,6,5,4,3,2,1","CORN CROP,CORN CROP,CORN CROP,CORN CROP,CORN CROP,CORN CROP,CORN CROP,CORN CROP","0,0,0,0,0,0,0,0","20,20,20,20,20,20,20,20","10,10,10,10,10,10,10,10","20,20,20,20,20,20,20,20","20,20,20,20,20,20,20,20","20,20,20,20,20,20,20,20","0,0,0,0,0,0,0,0","20,20,20,20,20,20,20,20","10,10,10,10,10,10,10,10","20,20,20,20,20,20,20,20","20,20,20,20,20,20,20,20","20,20,20,20,20,20,20,20","0,0,1,1,0,1,1,0","743,585,699,1457,380,327,469,1320","-47.64513019168796,15.480841447091414,28.201044833534393,25.698893622537177,16.947287172245154,29.33191272614052,-11.972514482512903,-44.52154161391412","12.366105875077952,3.5531337202068034,53.10768669371258,-4.130538396050216,-3.0782985200703483,8.519885459128727,21.28483547566845,5.923807379190724","0","0"
"514","86","text","0","65","606141","0-0","","","","","","","","","","","","","","","","","","","","","","","","","","","","","","","","","","","","",""
"","","plant-game","0","66","613897","0-0","","200","160","2","CORN CROP","Left","200","120","4","THISTLE WEED","experimental","20","1,2,3,4","160,168.03776334511974,180,181.03313062086067","2,1,2,1","CORN CROP,CORN CROP,WHEAT CROP,WHEAT CROP","120,173.21022541136665,201.42950567386376,202.43978670031228","4,3,2,1","THISTLE WEED,THISTLE WEED,THISTLE WEED,THISTLE WEED","20,20,20,20","20,20,20,20","10,10,10,10","20,20,20,20","0,0,0,0","20,20,20,20","20,20,20,20","20,20,20,20","10,10,10,10","20,20,20,20","0,0,0,0","20,20,20,20","0,1,1,1","2390,830,406,325","8.03776334511975,8.886120148061757,1.033130620860684,21.517293535845525","53.210225411366665,28.219280262497115,1.010281026448517,-14.65362797961214","0","0"
"120","86","text","0","67","614167","0-0","","","","","","","","","","","","","","","","","","","","","","","","","","","","","","","","","","","","",""
"","","plant-game","0","68","624310","0-0","","200","180","8","CORN CROP","Left","200","160","8","NETTLE WEED","experimental","21","1,2,3,4,5,6,7,8","180,201.53280257618889,205.84810371787077,238.79175734596632,253.7422443202482,257.32662292630795,269.51848185892237,260.66684651685523","8,7,6,5,4,3,2,1","CORN CROP,CORN CROP,CORN CROP,CORN CROP,CORN CROP,CORN CROP,CORN CROP,CORN CROP","160,171.11653210466127,177.3493413874347,190.2903646855467,173.14621254672207,157.30558824529237,157.1275358491223,182.4292621642662","8,7,6,5,4,3,2,1","NETTLE WEED,NETTLE WEED,NETTLE WEED,NETTLE WEED,NETTLE WEED,NETTLE WEED,NETTLE WEED,NETTLE WEED","20,20,20,20,20,20,20,20","20,20,20,20,20,20,20,20","10,10,10,10,10,10,10,10","20,20,20,20,20,20,20,20","0,0,0,0,0,0,0,0","20,20,20,20,20,20,20,20","20,20,20,20,20,20,20,20","20,20,20,20,20,20,20,20","10,10,10,10,10,10,10,10","20,20,20,20,20,20,20,20","0,0,0,0,0,0,0,0","20,20,20,20,20,20,20,20","0,1,1,1,1,1,1,1","746,1093,1444,779,429,396,347,417","21.532802576188892,4.315301141681882,32.94365362809555,14.95048697428188,3.5843786060597456,12.19185893261441,-8.85163534206715,-2.939784796329476","11.116532104661273,6.232809282773422,12.941023298112027,-17.144152138824627,-15.840624301429685,-0.17805239617006202,25.301726315143892,8.281379465217913","0","0"
"594","86","text","0","69","625044","0-0","","","","","","","","","","","","","","","","","","","","","","","","","","","","","","","","","","","","",""
"","","plant-game","0","70","639494","0-0","","200","190","1","CORN CROP","Left","200","190","8","NETTLE WEED","experimental","22","1,2,3,4,5,6,7,8","190,130,168.76956778785808,220.25841620366933,191.97341474712468,169.6995745549327,165.16042348681873,183.24644792860767","1,7,6,5,4,3,2,1","CORN CROP,WHEAT CROP,WHEAT CROP,WHEAT CROP,WHEAT CROP,WHEAT CROP,WHEAT CROP,WHEAT CROP","190,223.00249074235825,257.47367929081247,289.165667251264,260.5434865668908,295.35323937302917,274.9468882868012,253.5960300162048","8,7,6,5,4,3,2,1","NETTLE WEED,NETTLE WEED,NETTLE WEED,NETTLE WEED,NETTLE WEED,NETTLE WEED,NETTLE WEED,NETTLE WEED","20,20,20,20,20,20,20,20","20,20,20,20,20,20,20,20","10,10,10,10,10,10,10,10","20,20,20,20,20,20,20,20","0,0,0,0,0,0,0,0","20,20,20,20,20,20,20,20","20,20,20,20,20,20,20,20","20,20,20,20,20,20,20,20","10,10,10,10,10,10,10,10","20,20,20,20,20,20,20,20","0,0,0,0,0,0,0,0","20,20,20,20,20,20,20,20","0,0,0,1,0,1,0,0","3317,368,1940,907,879,421,804,312","8.579786509338792,38.769567787858094,51.488848415811255,-28.28500145654466,-22.273840192191976,-4.539151068113958,18.08602444178894,39.97505633958965","33.00249074235826,34.47118854845425,31.691987960451513,-28.62218068437317,34.80975280613838,-20.40635108622795,-21.350858270596405,26.240414680193958","0","0"
"183","86","text","0","71","639847","0-0","","","","","","","","","","","","","","","","","","","","","","","","","","","","","","","","","","","","",""
"","","plant-game","0","72","649713","0-0","","200","180","2","CORN CROP","Right","200","180","4","THISTLE WEED","experimental","23","1,2,3,4","180,180.90023290292834,214.33985409346712,217.4211992594739","4,3,2,1","THISTLE WEED,THISTLE WEED,THISTLE WEED,THISTLE WEED","180,183.4615163318677,180,206.55599642766174","2,1,2,1","CORN CROP,CORN CROP,WHEAT CROP,WHEAT CROP","0,0,0,0","20,20,20,20","10,10,10,10","20,20,20,20","20,20,20,20","20,20,20,20","0,0,0,0","20,20,20,20","10,10,10,10","20,20,20,20","20,20,20,20","20,20,20,20","0,1,1,1","2925,965,1221,726","0.9002329029283322,33.43962119053879,3.081345166006777,15.296346224729138","3.4615163318676916,-8.844788119610975,26.55599642766174,17.98993710155932","0","0"
"450","86","text","0","73","650284","0-0","","","","","","","","","","","","","","","","","","","","","","","","","","","","","","","","","","","","",""
"","","plant-game","0","74","662046","0-0","","200","160","8","CORN CROP","Right","200","120","4","THISTLE WEED","experimental","24","1,2,3,4,5,6,7,8","120,156.47475418615812,151.23254250767084,152.62386699824333,160,163.00313015386098,195.06748668612207,215.85999536094423","4,3,2,1,4,3,2,1","THISTLE WEED,THISTLE WEED,THISTLE WEED,THISTLE WEED,NETTLE WEED,NETTLE WEED,NETTLE WEED,NETTLE WEED","160,161.62790126125154,172.69655737156444,173.33527635356708,197.77004570166548,160.354138921188,150.19455665024927,147.29582734963515","8,7,6,5,4,3,2,1","CORN CROP,CORN CROP,CORN CROP,CORN CROP,CORN CROP,CORN CROP,CORN CROP,CORN CROP","0,0,0,0,0,0,0,0","20,20,20,20,20,20,20,20","10,10,10,10,10,10,10,10","20,20,20,20,20,20,20,20","20,20,20,20,20,20,20,20","20,20,20,20,20,20,20,20","0,0,0,0,0,0,0,0","20,20,20,20,20,20,20,20","10,10,10,10,10,10,10,10","20,20,20,20,20,20,20,20","20,20,20,20,20,20,20,20","20,20,20,20,20,20,20,20","1,0,0,1,0,1,1,1","1186,716,437,703,780,384,1466,357","36.47475418615813,-5.242211678487269,1.3913244905724813,2.7983263328372523,3.0031301538609694,32.064356532261094,20.79250867482216,-0.02133707738824242","1.6279012612515267,11.068656110312908,0.6387189820026457,24.434769348098406,-37.41590678047749,-10.159582270938724,-2.8987293006141286,13.239062236527655","0","0"
"294","86","text","0","75","662470","0-0","","","","","","","","","","","","","","","","","","","","","","","","","","","","","","","","","","","","",""
"","","plant-game","0","76","669656","0-0","","200","120","1","WHEAT CROP","Right","200","190","2","NETTLE WEED","experimental","25","1,2","190,210.12249921398154","2,1","NETTLE WEED,NETTLE WEED","120,190","1,1","WHEAT CROP,CORN CROP","0,0","20,20","10,10","20,20","20,20","20,20","0,0","20,20","10,10","20,20","20,20","20,20","1,1","493,2647","20.12249921398155,24.119036241080444","-22.682381326829308,25.026001952720545","0","0"
"500","86","text","0","77","670236","0-0","","","","","","","","","","","","","","","","","","","","","","","","","","","","","","","","","","","","",""
"","","plant-game","0","78","678966","0-0","","200","190","2","WHEAT CROP","Left","200","180","2","THISTLE WEED","experimental","26","1,2","190,222.57944579139914","2,1","WHEAT CROP,WHEAT CROP","180,201.56370216117458","2,1","THISTLE WEED,THISTLE WEED","20,20","20,20","10,10","20,20","0,0","20,20","20,20","20,20","10,10","20,20","0,0","20,20","1,1","569,2315","32.57944579139913,0.5179109872914316","21.563702161174568,3.377516717502277","0","0"
"310","86","text","0","79","679446","0-0","","","","","","","","","","","","","","","","","","","","","","","","","","","","","","","","","","","","",""
"","","plant-game","0","80","690279","0-0","","200","190","1","WHEAT CROP","Left","200","190","2","THISTLE WEED","experimental","27","1,2","190,190","1,1","WHEAT CROP,CORN CROP","190,212.05473475031712","2,1","THISTLE WEED,THISTLE WEED","20,20","20,20","10,10","20,20","0,0","20,20","20,20","20,20","10,10","20,20","0,0","20,20","1,1","673,3099","-23.759533488526987,-30.383107530562224","22.054734750317134,0.38382688661279163","0","0"
"394","86","text","0","81","690783","0-0","","","","","","","","","","","","","","","","","","","","","","","","","","","","","","","","","","","","",""
"","","plant-game","0","82","703577","0-0","","200","120","8","CORN CROP","Right","200","180","1","THISTLE WEED","experimental","28","1,2,3,4,5,6,7,8","180,130,153.5078903764464,165.10816523077253,216.72916513732687,190.52061604889712,198.43089427764863,204.22260713029212","1,7,6,5,4,3,2,1","THISTLE WEED,NETTLE WEED,NETTLE WEED,NETTLE WEED,NETTLE WEED,NETTLE WEED,NETTLE WEED,NETTLE WEED","120,138.51784288498092,165.71497129826608,132.85706084095298,142.99475977152872,141.08898220036448,144.35861009102956,167.7077262396361","8,7,6,5,4,3,2,1","CORN CROP,CORN CROP,CORN CROP,CORN CROP,CORN CROP,CORN CROP,CORN CROP,CORN CROP","0,0,0,0,0,0,0,0","20,20,20,20,20,20,20,20","10,10,10,10,10,10,10,10","20,20,20,20,20,20,20,20","20,20,20,20,20,20,20,20","20,20,20,20,20,20,20,20","0,0,0,0,0,0,0,0","20,20,20,20,20,20,20,20","10,10,10,10,10,10,10,10","20,20,20,20,20,20,20,20","20,20,20,20,20,20,20,20","20,20,20,20,20,20,20,20","0,1,1,1,1,1,1,1","3196,1570,402,429,468,123,94,90","-6.031743825207551,23.5078903764464,11.600274854326132,51.620999906554346,-26.208549088429763,7.910278228751499,5.791712852643494,19.89178237652907","18.51784288498091,27.19712841328516,-32.857910457313096,10.13769893057573,-1.90577757116424,3.2696278906650633,23.349116148606512,7.750720581861474","0","0"
"367","86","text","0","83","704067","0-0","","","","","","","","","","","","","","","","","","","","","","","","","","","","","","","","","","","","",""
"","","plant-game","0","84","711564","0-0","","200","160","4","WHEAT CROP","Left","200","190","8","NETTLE WEED","experimental","29","1,2,3,4,5,6,7,8","160,138.30075881710246,117.31544282855921,134.33599136429567,160,134.96002411756282,139.20756641564913,125.92890662383427","4,3,2,1,4,3,2,1","WHEAT CROP,WHEAT CROP,WHEAT CROP,WHEAT CROP,CORN CROP,CORN CROP,CORN CROP,CORN CROP","190,156.83107653599149,150.70198815952062,121.19194791757407,127.96476504690756,174.5494718470941,151.22813274733417,166.96694521435217","8,7,6,5,4,3,2,1","NETTLE WEED,NETTLE WEED,NETTLE WEED,NETTLE WEED,NETTLE WEED,NETTLE WEED,NETTLE WEED,NETTLE WEED","20,20,20,20,20,20,20,20","20,20,20,20,20,20,20,20","10,10,10,10,10,10,10,10","20,20,20,20,20,20,20,20","0,0,0,0,0,0,0,0","20,20,20,20,20,20,20,20","20,20,20,20,20,20,20,20","20,20,20,20,20,20,20,20","10,10,10,10,10,10,10,10","20,20,20,20,20,20,20,20","0,0,0,0,0,0,0,0","20,20,20,20,20,20,20,20","1,1,1,1,0,1,1,0","138,102,104,96,773,586,211,306","-21.69924118289755,-20.98531598854325,17.02054853573646,8.714091829236924,-25.039975882437176,4.2475422980863,-13.278659791814855,22.90672821461294","-33.16892346400851,-6.12908837647087,-29.51004024194656,6.772817129333495,46.584706800186545,-23.32133909975994,15.738812467018008,46.14914409824263","0","0"
"223","86","text","0","85","711937","0-0","","","","","","","","","","","","","","","","","","","","","","","","","","","","","","","","","","","","",""
"","","plant-game","0","86","718018","0-0","","200","120","4","CORN CROP","Right","200","180","2","THISTLE WEED","experimental","30","1,2,3,4","180,208.61885420617992,180,230.14239733399086","2,1,2,1","THISTLE WEED,THISTLE WEED,NETTLE WEED,NETTLE WEED","120,121.8291713454319,98.20108415774408,84.97563520677421","4,3,2,1","CORN CROP,CORN CROP,CORN CROP,CORN CROP","0,0,0,0","20,20,20,20","10,10,10,10","20,20,20,20","20,20,20,20","20,20,20,20","0,0,0,0","20,20,20,20","10,10,10,10","20,20,20,20","20,20,20,20","20,20,20,20","0,0,1,1","236,250,287,524","28.618854206179915,2.4808202977511487,50.14239733399087,31.404916927426882","1.8291713454319003,-23.628087187687825,-13.225448950969863,-28.15169797682166","0","0"
"561","86","text","0","87","718739","0-0","","","","","","","","","","","","","","","","","","","","","","","","","","","","","","","","","","","","",""
"","","plant-game","0","88","730318","0-0","","200","120","1","CORN CROP","Left","200","120","8","THISTLE WEED","experimental","31","1,2,3,4,5,6,7,8","120,130,139.7330989505574,135.49370746174753,143.1492555081366,126.64202409638987,151.1176977767461,145.26248084138223","1,7,6,5,4,3,2,1","CORN CROP,WHEAT CROP,WHEAT CROP,WHEAT CROP,WHEAT CROP,WHEAT CROP,WHEAT CROP,WHEAT CROP","120,131.54394536041477,181.74922129937116,188.6167755105693,157.94369116481545,156.30639637583232,173.33402765330942,165.6035822548479","8,7,6,5,4,3,2,1","THISTLE WEED,THISTLE WEED,THISTLE WEED,THISTLE WEED,THISTLE WEED,THISTLE WEED,THISTLE WEED,THISTLE WEED","20,20,20,20,20,20,20,20","20,20,20,20,20,20,20,20","10,10,10,10,10,10,10,10","20,20,20,20,20,20,20,20","0,0,0,0,0,0,0,0","20,20,20,20,20,20,20,20","20,20,20,20,20,20,20,20","20,20,20,20,20,20,20,20","10,10,10,10,10,10,10,10","20,20,20,20,20,20,20,20","0,0,0,0,0,0,0,0","20,20,20,20,20,20,20,20","1,0,0,1,1,0,1,0","730,1257,296,1044,303,603,297,130","0.3137592699984059,9.733098950557409,-4.239391488809883,7.655548046389083,-16.50723141174673,24.47567368035622,-5.855216935363876,4.886530494090955","11.543945360414774,50.20527593895639,6.867554211198145,-30.673084345753878,-1.6372947889831182,17.02763127747711,-7.730445398461516,29.49648253667675","0","0"
"953","86","text","0","89","731431","0-0","","","","","","","","","","","","","","","","","","","","","","","","","","","","","","","","","","","","",""
"","","plant-game","0","90","739118","0-0","","200","160","4","WHEAT CROP","Right","200","180","1","NETTLE WEED","experimental","32","1,2,3,4","180,170,169.7520892763539,194.67764315378994","1,3,2,1","NETTLE WEED,THISTLE WEED,THISTLE WEED,THISTLE WEED","160,166.87670490831482,152.35695507459204,204.2268177289508","4,3,2,1","WHEAT CROP,WHEAT CROP,WHEAT CROP,WHEAT CROP","0,0,0,0","20,20,20,20","10,10,10,10","20,20,20,20","20,20,20,20","20,20,20,20","0,0,0,0","20,20,20,20","10,10,10,10","20,20,20,20","20,20,20,20","20,20,20,20","1,0,1,0","376,1203,337,1471","-21.65506925368267,-0.2479107236461051,24.925553877436055,-33.84892383066975","6.876704908314828,-14.519749833722795,51.86986265435877,21.655575845413708","0","0"
"6067","86","text","0","91","745315","0-0","","","","","","","","","","","","","","","","","","","","","","","","","","","","","","","","","","","","",""
"","","plant-game","0","92","749848","0-0","","200","160","1","WHEAT CROP","Right","200","160","1","THISTLE WEED","experimental","33","1","160","1","THISTLE WEED","160","1","WHEAT CROP","0","20","10","20","20","20","0","20","10","20","20","20","1","759","33.4081536417897","67.56219421362388","0","0"
"156","86","text","0","93","750164","0-0","","","","","","","","","","","","","","","","","","","","","","","","","","","","","","","","","","","","",""
"","","plant-game","0","94","757225","0-0","","200","180","4","CORN CROP","Left","200","180","2","THISTLE WEED","experimental","34","1,2,3,4","180,220.78927462155366,230.58914769131903,216.33221619371247","4,3,2,1","CORN CROP,CORN CROP,CORN CROP,CORN CROP","180,205.10841044547732,180,166.20947055436417","2,1,2,1","THISTLE WEED,THISTLE WEED,NETTLE WEED,NETTLE WEED","20,20,20,20","20,20,20,20","10,10,10,10","20,20,20,20","0,0,0,0","20,20,20,20","20,20,20,20","20,20,20,20","10,10,10,10","20,20,20,20","0,0,0,0","20,20,20,20","0,1,1,0","370,210,739,193","40.78927462155367,9.799873069765367,-14.256931497606548,5.888477593192341","25.108410445477325,-11.047624737485375,-13.790529445635823,-12.908202438610672","0","0"
"652","86","text","0","95","758037","0-0","","","","","","","","","","","","","","","","","","","","","","","","","","","","","","","","","","","","",""
"","","plant-game","0","96","771332","0-0","","200","120","8","CORN CROP","Right","200","120","1","NETTLE WEED","experimental","35","1,2,3,4,5,6,7,8","120,130,152.70583303435146,167.77589116565707,149.9237095442484,174.29934731101054,183.7328349483547,186.47162961638682","1,7,6,5,4,3,2,1","NETTLE WEED,THISTLE WEED,THISTLE WEED,THISTLE WEED,THISTLE WEED,THISTLE WEED,THISTLE WEED,THISTLE WEED","120,148.90824179578112,135.04482969795424,143.4206463840024,145.4884838840235,115.11589310875398,109.78347101097323,90.29238059158456","8,7,6,5,4,3,2,1","CORN CROP,CORN CROP,CORN CROP,CORN CROP,CORN CROP,CORN CROP,CORN CROP,CORN CROP","0,0,0,0,0,0,0,0","20,20,20,20,20,20,20,20","10,10,10,10,10,10,10,10","20,20,20,20,20,20,20,20","20,20,20,20,20,20,20,20","20,20,20,20,20,20,20,20","0,0,0,0,0,0,0,0","20,20,20,20,20,20,20,20","10,10,10,10,10,10,10,10","20,20,20,20,20,20,20,20","20,20,20,20,20,20,20,20","20,20,20,20,20,20,20,20","1,1,1,0,0,0,0,0","386,267,1953,1453,353,427,387,362","6.4439268724923515,22.70583303435145,15.070058131305617,-17.852181621408672,24.375637766762136,9.433487637344175,2.7387946680321007,7.6297030565662745","28.908241795781112,-13.863412097826867,8.375816686048143,2.0678375000210996,-30.37259077526953,-5.332422097780752,-19.49109041938867,-2.312308236409693","0","0"
"780","86","text","0","97","772222","0-0","","","","","","","","","","","","","","","","","","","","","","","","","","","","","","","","","","","","",""
"","","plant-game","0","98","778713","0-0","","200","160","1","CORN CROP","Left","200","180","8","THISTLE WEED","experimental","36","1,2,3,4,5,6,7,8","160,130,139.93321041526292,133.1450310952213,148.35237985072402,138.01818466686433,145.56151252891144,129.59865462007667","1,7,6,5,4,3,2,1","CORN CROP,WHEAT CROP,WHEAT CROP,WHEAT CROP,WHEAT CROP,WHEAT CROP,WHEAT CROP,WHEAT CROP","180,172.47137356898165,199.71336787184867,173.73585542683256,194.89391895253843,211.1771844960224,209.19087052388724,219.71824759482053","8,7,6,5,4,3,2,1","THISTLE WEED,THISTLE WEED,THISTLE WEED,THISTLE WEED,THISTLE WEED,THISTLE WEED,THISTLE WEED,THISTLE WEED","20,20,20,20,20,20,20,20","20,20,20,20,20,20,20,20","10,10,10,10,10,10,10,10","20,20,20,20,20,20,20,20","0,0,0,0,0,0,0,0","20,20,20,20,20,20,20,20","20,20,20,20,20,20,20,20","20,20,20,20,20,20,20,20","10,10,10,10,10,10,10,10","20,20,20,20,20,20,20,20","0,0,0,0,0,0,0,0","20,20,20,20,20,20,20,20","1,1,1,1,0,1,0,0","346,45,279,105,27,187,219,107","-11.060364339320195,9.933210415262932,-6.788179320041609,15.207348755502725,-10.334195183859677,7.543327862047104,-15.96285790883477,-5.097184650526387","-7.528626431018362,27.24199430286702,-25.97751244501612,21.158063525705867,16.283265543483978,-1.9863139721351444,10.52737707093327,-2.4297644333267954","0","0"
"460","86","text","0","99","779283","0-0","","","","","","","","","","","","","","","","","","","","","","","","","","","","","","","","","","","","",""
"","","plant-game","0","100","788587","0-0","","200","190","2","WHEAT CROP","Left","200","160","1","NETTLE WEED","experimental","37","1,2","190,188.47993548106587","2,1","WHEAT CROP,WHEAT CROP","160,190","1,1","NETTLE WEED,THISTLE WEED","20,20","20,20","10,10","20,20","0,0","20,20","20,20","20,20","10,10","20,20","0,0","20,20","0,1","2161,1207","-1.5200645189341344,-23.246484195976294","31.36222316278033,11.443591434590171","0","0"
"610","86","text","0","101","789356","0-0","","","","","","","","","","","","","","","","","","","","","","","","","","","","","","","","","","","","",""
"","","plant-game","0","102","803846","0-0","","200","190","2","CORN CROP","Left","200","120","4","THISTLE WEED","experimental","38","1,2,3,4","190,210.65608752667276,180,179.75713058797166","2,1,2,1","CORN CROP,CORN CROP,WHEAT CROP,WHEAT CROP","120,172.6442974680557,206.87062475667273,217.32924461883982","4,3,2,1","THISTLE WEED,THISTLE WEED,THISTLE WEED,THISTLE WEED","20,20,20,20","20,20,20,20","10,10,10,10","20,20,20,20","0,0,0,0","20,20,20,20","20,20,20,20","20,20,20,20","10,10,10,10","20,20,20,20","0,0,0,0","20,20,20,20","0,0,0,1","2808,1789,579,1389","20.65608752667275,-8.144050032218605,-0.24286941202835166,31.040605271754803","52.6442974680557,34.226327288617036,10.458619862167108,-3.9626324332791167","0","0"
"70","86","text","0","103","804041","0-0","","","","","","","","","","","","","","","","","","","","","","","","","","","","","","","","","","","","",""
"","","plant-game","0","104","808791","0-0","","200","180","4","CORN CROP","Right","200","160","4","NETTLE WEED","experimental","39","1,2,3,4","160,174.76492445810962,207.37466626843457,218.2148956828227","4,3,2,1","NETTLE WEED,NETTLE WEED,NETTLE WEED,NETTLE WEED","180,173.18613591369294,186.77790579622882,190.57957883620537","4,3,2,1","CORN CROP,CORN CROP,CORN CROP,CORN CROP","0,0,0,0","20,20,20,20","10,10,10,10","20,20,20,20","20,20,20,20","20,20,20,20","0,0,0,0","20,20,20,20","10,10,10,10","20,20,20,20","20,20,20,20","20,20,20,20","0,1,1,1","750,396,168,351","14.76492445810961,32.609741810324934,10.840229414388144,17.436220876504933","-6.813864086307073,13.5917698825359,3.801673039976553,35.843366462203704","0","0"
"236","86","text","0","105","809207","0-0","","","","","","","","","","","","","","","","","","","","","","","","","","","","","","","","","","","","",""
"","","plant-game","0","106","827574","0-0","","200","190","4","CORN CROP","Left","200","180","8","NETTLE WEED","experimental","40","1,2,3,4,5,6,7,8","190,153.77564602664063,173.14554392880788,181.37691457973511,160,143.37665211900324,137.1098188885641,138.61975665501498","4,3,2,1,4,3,2,1","CORN CROP,CORN CROP,CORN CROP,CORN CROP,WHEAT CROP,WHEAT CROP,WHEAT CROP,WHEAT CROP","180,207.527328135658,242.82310487420727,277.0702931773809,242.91718184702603,274.1981767642558,284.4425801416192,305.61550299881713","8,7,6,5,4,3,2,1","NETTLE WEED,NETTLE WEED,NETTLE WEED,NETTLE WEED,NETTLE WEED,NETTLE WEED,NETTLE WEED,NETTLE WEED","20,20,20,20,20,20,20,20","20,20,20,20,20,20,20,20","10,10,10,10,10,10,10,10","20,20,20,20,20,20,20,20","0,0,0,0,0,0,0,0","20,20,20,20,20,20,20,20","20,20,20,20,20,20,20,20","20,20,20,20,20,20,20,20","10,10,10,10,10,10,10,10","20,20,20,20,20,20,20,20","0,0,0,0,0,0,0,0","20,20,20,20,20,20,20,20","1,0,1,1,1,1,1,1","1370,213,140,257,170,220,150,170","-36.224353973359364,19.369897902167253,8.23137065092723,33.66895984628234,-16.62334788099677,-6.266833230439146,1.5099377664508917,42.7403407399773","27.527328135657992,35.29577673854929,34.247188303173616,-34.15311133035487,31.280994917229723,10.24440337736344,21.172922857197932,-33.11320682693017","0","0"
"346","86","text","0","107","828070","0-0","","","","","","","","","","","","","","","","","","","","","","","","","","","","","","","","","","","","",""
"","","plant-game","0","108","838614","0-0","","200","120","8","WHEAT CROP","Right","200","180","2","THISTLE WEED","experimental","41","1,2,3,4,5,6,7,8","180,184.7202507320969,140,188.63728063715257,221.0099066217692,246.940040119679,310.29125819872377,313.1554529805593","2,1,6,5,4,3,2,1","THISTLE WEED,THISTLE WEED,NETTLE WEED,NETTLE WEED,NETTLE WEED,NETTLE WEED,NETTLE WEED,NETTLE WEED","120,93.82632262483762,122.09731781452572,111.01658621109085,155.71529217472573,150.69983943618774,170.32407185370184,176.0864463827532","8,7,6,5,4,3,2,1","WHEAT CROP,WHEAT CROP,WHEAT CROP,WHEAT CROP,WHEAT CROP,WHEAT CROP,WHEAT CROP,WHEAT CROP","0,0,0,0,0,0,0,0","20,20,20,20,20,20,20,20","10,10,10,10,10,10,10,10","20,20,20,20,20,20,20,20","20,20,20,20,20,20,20,20","20,20,20,20,20,20,20,20","0,0,0,0,0,0,0,0","20,20,20,20,20,20,20,20","10,10,10,10,10,10,10,10","20,20,20,20,20,20,20,20","20,20,20,20,20,20,20,20","20,20,20,20,20,20,20,20","0,1,0,1,1,1,1,1","633,303,1113,1134,291,257,193,303","4.720250732096903,44.47374478737523,48.637280637152585,32.372625984616626,25.930133497909786,63.35121807904477,2.8641947818354936,16.189923426707846","-26.17367737516238,28.2709951896881,-11.080731603434868,44.69870596363488,-5.015452738538002,19.624232417514104,5.76237452905136,22.675703057294424","0","0"
"568","86","text","0","109","839322","0-0","","","","","","","","","","","","","","","","","","","","","","","","","","","","","","","","","","","","",""
"","","plant-game","0","110","842559","0-0","","200","120","1","CORN CROP","Right","200","160","1","NETTLE WEED","experimental","42","1","160","1","NETTLE WEED","120","1","CORN CROP","0","20","10","20","20","20","0","20","10","20","20","20","1","503","38.087594563507935","23.21620330972106","0","0"
"508","86","text","0","111","843237","0-0","","","","","","","","","","","","","","","","","","","","","","","","","","","","","","","","","","","","",""
"","","plant-game","0","112","852782","0-0","","200","190","8","CORN CROP","Right","200","120","2","THISTLE WEED","experimental","43","1,2,3,4,5,6,7,8","120,103.57400105025863,140,120.93219201008114,126.45287506042565,126.70035486876881,116.1436897711126,100.983427234067","2,1,6,5,4,3,2,1","THISTLE WEED,THISTLE WEED,NETTLE WEED,NETTLE WEED,NETTLE WEED,NETTLE WEED,NETTLE WEED,NETTLE WEED","190,209.33089787503502,222.47347400052774,230.60932093191556,260.31012637808834,281.805147625696,293.9336282519653,319.4471029785393","8,7,6,5,4,3,2,1","CORN CROP,CORN CROP,CORN CROP,CORN CROP,CORN CROP,CORN CROP,CORN CROP,CORN CROP","0,0,0,0,0,0,0,0","20,20,20,20,20,20,20,20","10,10,10,10,10,10,10,10","20,20,20,20,20,20,20,20","20,20,20,20,20,20,20,20","20,20,20,20,20,20,20,20","0,0,0,0,0,0,0,0","20,20,20,20,20,20,20,20","10,10,10,10,10,10,10,10","20,20,20,20,20,20,20,20","20,20,20,20,20,20,20,20","20,20,20,20,20,20,20,20","0,1,0,0,1,1,1,1","707,509,960,378,342,500,320,317","-16.425998949741366,63.73849233393909,-19.06780798991887,5.52068305034452,0.24747980834315086,-10.556665097656214,-15.160262537045611,49.39021347051922","19.330897875035006,13.142576125492726,8.13584693138782,29.700805446172765,21.49502124760767,12.128480626269269,25.51347472657404,53.984849805390894","0","0"
"600","86","text","0","113","853512","0-0","","","","","","","","","","","","","","","","","","","","","","","","","","","","","","","","","","","","",""
"","","plant-game","0","114","863259","0-0","","200","180","8","CORN CROP","Right","200","190","1","THISTLE WEED","experimental","44","1,2,3,4,5,6,7,8","190,130,156.7969717080272,163.055635123171,169.7874361792001,160.20239436943072,163.44291168206618,173.89412269456466","1,7,6,5,4,3,2,1","THISTLE WEED,NETTLE WEED,NETTLE WEED,NETTLE WEED,NETTLE WEED,NETTLE WEED,NETTLE WEED,NETTLE WEED","180,172.4282912363994,157.44107541551318,133.6907230785246,122.30414693207373,135.74026066093117,169.7716128288252,207.10475553116962","8,7,6,5,4,3,2,1","CORN CROP,CORN CROP,CORN CROP,CORN CROP,CORN CROP,CORN CROP,CORN CROP,CORN CROP","0,0,0,0,0,0,0,0","20,20,20,20,20,20,20,20","10,10,10,10,10,10,10,10","20,20,20,20,20,20,20,20","20,20,20,20,20,20,20,20","20,20,20,20,20,20,20,20","0,0,0,0,0,0,0,0","20,20,20,20,20,20,20,20","10,10,10,10,10,10,10,10","20,20,20,20,20,20,20,20","20,20,20,20,20,20,20,20","20,20,20,20,20,20,20,20","1,1,0,0,1,1,1,0","281,653,413,230,323,317,579,857","25.186800912341116,26.796971708027208,6.258663415143798,6.731801056029129,-9.5850418097694,3.2405173126354647,10.451211012498472,-25.986258823790564","-7.571708763600604,-14.987215820886213,-23.750352336988577,-11.386576146450869,13.436113728857428,34.03135216789401,37.33314270234441,1.6189617132494645","0","0"
"226","86","text","0","115","863645","0-0","","","","","","","","","","","","","","","","","","","","","","","","","","","","","","","","","","","","",""
"","","plant-game","0","116","867765","0-0","","200","180","1","WHEAT CROP","Right","200","120","1","NETTLE WEED","experimental","45","1","120","1","NETTLE WEED","180","1","WHEAT CROP","0","20","10","20","20","20","0","20","10","20","20","20","1","705","43.790586684681756","49.004624409241444","0","0"
"460","86","text","0","117","868415","0-0","","","","","","","","","","","","","","","","","","","","","","","","","","","","","","","","","","","","",""
"","","plant-game","0","118","877198","0-0","","200","160","2","WHEAT CROP","Right","200","160","1","THISTLE WEED","experimental","46","1,2","160,190","1,1","THISTLE WEED,NETTLE WEED","160,145.07427302865963","2,1","WHEAT CROP,WHEAT CROP","0,0","20,20","10,10","20,20","20,20","20,20","0,0","20,20","10,10","20,20","20,20","20,20","0,1","792,471","34.0707833651076,31.42156097233599","-14.925726971340369,34.167854821161896","0","0"
"544","86","text","0","119","877949","0-0","","","","","","","","","","","","","","","","","","","","","","","","","","","","","","","","","","","","",""
"","","plant-game","0","120","883845","0-0","","200","160","1","CORN CROP","Right","200","160","2","THISTLE WEED","experimental","47","1,2","160,197.26260827691127","2,1","THISTLE WEED,THISTLE WEED","160,190","1,1","CORN CROP,WHEAT CROP","0,0","20,20","10,10","20,20","20,20","20,20","0,0","20,20","10,10","20,20","20,20","20,20","1,1","724,903","37.26260827691126,19.20063672552485","9.322481510796703,26.328154030063047","0","0"
"226","86","text","0","121","884261","0-0","","","","","","","","","","","","","","","","","","","","","","","","","","","","","","","","","","","","",""
"","","plant-game","0","122","891877","0-0","","200","120","1","WHEAT CROP","Left","200","160","4","THISTLE WEED","experimental","48","1,2,3,4","120,170,242.913357770801,234.91493734181617","1,3,2,1","WHEAT CROP,CORN CROP,CORN CROP,CORN CROP","160,188.86531521141094,236.28548808050977,206.12209733459744","4,3,2,1","THISTLE WEED,THISTLE WEED,THISTLE WEED,THISTLE WEED","20,20,20,20","20,20,20,20","10,10,10,10","20,20,20,20","0,0,0,0","20,20,20,20","20,20,20,20","20,20,20,20","10,10,10,10","20,20,20,20","0,0,0,0","20,20,20,20","1,0,1,1","766,422,1440,711","19.50592234177343,72.91335777080101,-7.998420428984855,5.965666909595325","28.865315211410937,47.42017286909882,-30.163390745912327,-21.134458743969375","0","0"
"1754","86","text","0","123","893842","0-0","","","","","","","","","","","","","","","","","","","","","","","","","","","","","","","","","","","","",""
"","","plant-game","0","124","898405","0-0","","200","160","2","WHEAT CROP","Left","200","180","1","NETTLE WEED","experimental","49","1,2","160,147.07356571718867","2,1","WHEAT CROP,WHEAT CROP","180,190","1,1","NETTLE WEED,THISTLE WEED","20,20","20,20","10,10","20,20","0,0","20,20","20,20","20,20","10,10","20,20","0,0","20,20","1,1","1055,38","-12.926434282811321,-5.160111184680003","-19.961119260711598,-0.5830112989508451","0","0"
"392","86","text","0","125","898947","0-0","","","","","","","","","","","","","","","","","","","","","","","","","","","","","","","","","","","","",""
"","","plant-game","0","126","906108","0-0","","200","120","2","CORN CROP","Right","200","180","8","NETTLE WEED","experimental","50","1,2,3,4,5,6,7,8","180,236.89424002658043,282.1044630776578,309.3715535716395,322.04865810386013,344.7381529419506,425.303400888013,401.73854988164396","8,7,6,5,4,3,2,1","NETTLE WEED,NETTLE WEED,NETTLE WEED,NETTLE WEED,NETTLE WEED,NETTLE WEED,NETTLE WEED,NETTLE WEED","120,124.02258989839316,140,160.75746679964138,134.9022571206419,151.27342170609055,187.76900826715715,197.35988512460335","2,1,6,5,4,3,2,1","CORN CROP,CORN CROP,WHEAT CROP,WHEAT CROP,WHEAT CROP,WHEAT CROP,WHEAT CROP,WHEAT CROP","0,0,0,0,0,0,0,0","20,20,20,20,20,20,20,20","10,10,10,10,10,10,10,10","20,20,20,20,20,20,20,20","20,20,20,20,20,20,20,20","20,20,20,20,20,20,20,20","0,0,0,0,0,0,0,0","20,20,20,20,20,20,20,20","10,10,10,10,10,10,10,10","20,20,20,20,20,20,20,20","20,20,20,20,20,20,20,20","20,20,20,20,20,20,20,20","1,1,1,0,1,1,0,1","297,170,320,447,523,223,37,376","56.89424002658043,45.21022305107737,27.267090493981694,12.677104532220644,22.68949483809044,80.56524794606241,-23.564851006369054,24.74970048553808","4.022589898393159,29.04263088191017,20.757466799641374,-25.855209678999476,16.371164585448636,36.4955865610666,9.590876857446204,26.121270426164166","0","0"
"243","86","text","0","127","906531","0-0","","","","","","","","","","","","","","","","","","","","","","","","","","","","","","","","","","","","",""
"","","plant-game","0","128","913611","0-0","","200","160","1","WHEAT CROP","Right","200","120","2","NETTLE WEED","experimental","51","1,2","120,121.0015163156548","2,1","NETTLE WEED,NETTLE WEED","160,190","1,1","WHEAT CROP,CORN CROP","0,0","20,20","10,10","20,20","20,20","20,20","0,0","20,20","10,10","20,20","20,20","20,20","0,0","701,1107","1.0015163156547986,14.563980151585039","-20.368424934136165,-8.874302737292046","0","0"
"557","86","text","0","129","914358","0-0","","","","","","","","","","","","","","","","","","","","","","","","","","","","","","","","","","","","",""
"","","plant-game","0","130","926977","0-0","","200","180","2","CORN CROP","Right","200","180","8","THISTLE WEED","experimental","52","1,2,3,4,5,6,7,8","180,201.37976093020512,192.27790716276817,193.5752086919745,240.04813771363774,237.19419024370671,248.1220784749002,291.2108279307527","8,7,6,5,4,3,2,1","THISTLE WEED,THISTLE WEED,THISTLE WEED,THISTLE WEED,THISTLE WEED,THISTLE WEED,THISTLE WEED,THISTLE WEED","180,200.94857111826352,140,131.9817922604706,163.89825061406705,179.07075991580112,226.7485461325375,234.182908875938","2,1,6,5,4,3,2,1","CORN CROP,CORN CROP,WHEAT CROP,WHEAT CROP,WHEAT CROP,WHEAT CROP,WHEAT CROP,WHEAT CROP","0,0,0,0,0,0,0,0","20,20,20,20,20,20,20,20","10,10,10,10,10,10,10,10","20,20,20,20,20,20,20,20","20,20,20,20,20,20,20,20","20,20,20,20,20,20,20,20","0,0,0,0,0,0,0,0","20,20,20,20,20,20,20,20","10,10,10,10,10,10,10,10","20,20,20,20,20,20,20,20","20,20,20,20,20,20,20,20","20,20,20,20,20,20,20,20","1,0,1,1,1,1,1,1","1438,902,94,184,149,186,193,2481","21.37976093020513,-9.10185376743696,1.2973015292063188,46.47292902166326,-2.8539474699310396,10.92788823119349,43.08874945585251,16.947004744156906","20.948571118263516,20.988815888402033,-8.018207739529394,31.91645835359645,15.172509301734065,47.67778621673638,7.434362743400504,-2.4614527474837615","1","0"
"652","86","text","0","131","927779","0-0","","","","","","","","","","","","","","","","","","","","","","","","","","","","","","","","","","","","",""
"","","plant-game","0","132","937945","0-0","","200","180","4","WHEAT CROP","Left","200","120","2","NETTLE WEED","experimental","53","1,2,3,4","180,201.8328888018446,169.5440183178353,172.49758450443284","4,3,2,1","WHEAT CROP,WHEAT CROP,WHEAT CROP,WHEAT CROP","120,121.9766457638588,180,204.67394627079898","2,1,2,1","NETTLE WEED,NETTLE WEED,THISTLE WEED,THISTLE WEED","20,20,20,20","20,20,20,20","10,10,10,10","20,20,20,20","0,0,0,0","20,20,20,20","20,20,20,20","20,20,20,20","10,10,10,10","20,20,20,20","0,0,0,0","20,20,20,20","1,1,0,1","357,823,1439,1437","21.832888801844593,-32.288870484009294,2.953566186597527,-15.25652255418153","1.9766457638588038,5.3840737980231665,24.67394627079899,5.585240321331238","0","0"
"694","86","text","0","133","938799","0-0","","","","","","","","","","","","","","","","","","","","","","","","","","","","","","","","","","","","",""
"","","plant-game","0","134","948925","0-0","","200","160","4","CORN CROP","Left","200","120","2","NETTLE WEED","experimental","54","1,2,3,4","160,182.21116144217132,189.53699488535455,174.40950951680261","4,3,2,1","CORN CROP,CORN CROP,CORN CROP,CORN CROP","120,95.89325337284473,180,182.2372611974829","2,1,2,1","NETTLE WEED,NETTLE WEED,THISTLE WEED,THISTLE WEED","20,20,20,20","20,20,20,20","10,10,10,10","20,20,20,20","0,0,0,0","20,20,20,20","20,20,20,20","20,20,20,20","10,10,10,10","20,20,20,20","0,0,0,0","20,20,20,20","1,1,1,1","1201,649,111,262","22.211161442171313,7.325833443183228,-15.127485368551918,13.215504541847405","-24.106746627155268,-18.84876437317554,2.2372611974828907,9.124056302708277","0","0"
"334","86","text","0","135","949409","0-0","","","","","","","","","","","","","","","","","","","","","","","","","","","","","","","","","","","","",""
"","","plant-game","0","136","962303","0-0","","200","180","8","WHEAT CROP","Left","200","180","4","NETTLE WEED","experimental","55","1,2,3,4,5,6,7,8","180,209.32637795444649,204.3411514545446,203.14662553639164,220.45583243746,232.9330826166725,234.9563932058671,269.89508720147705","8,7,6,5,4,3,2,1","WHEAT CROP,WHEAT CROP,WHEAT CROP,WHEAT CROP,WHEAT CROP,WHEAT CROP,WHEAT CROP,WHEAT CROP","180,155.5640384531138,118.60023649675503,135.1526649097125,160,175.31084953854128,150.13018010569377,147.1788434064267","4,3,2,1,4,3,2,1","NETTLE WEED,NETTLE WEED,NETTLE WEED,NETTLE WEED,THISTLE WEED,THISTLE WEED,THISTLE WEED,THISTLE WEED","20,20,20,20,20,20,20,20","20,20,20,20,20,20,20,20","10,10,10,10,10,10,10,10","20,20,20,20,20,20,20,20","0,0,0,0,0,0,0,0","20,20,20,20,20,20,20,20","20,20,20,20,20,20,20,20","20,20,20,20,20,20,20,20","10,10,10,10,10,10,10,10","20,20,20,20,20,20,20,20","0,0,0,0,0,0,0,0","20,20,20,20,20,20,20,20","1,1,0,1,0,1,1,0","1241,2133,978,436,591,520,367,398","29.326377954446478,-4.9852264999018905,-1.1945259181529586,17.309206901068357,12.47725017921249,2.0233105891945993,34.93869399560994,31.965865153735695","-24.435961546886208,-36.963801956358765,16.55242841295749,37.17911655157621,15.310849538541284,-25.18066943284751,-2.9513366992670815,-0.29828238157598364","0","0"
"330","86","text","0","137","962833","0-0","","","","","","","","","","","","","","","","","","","","","","","","","","","","","","","","","","","","",""
"","","plant-game","0","138","969683","0-0","","200","190","1","CORN CROP","Right","200","160","8","NETTLE WEED","experimental","56","1,2,3,4,5,6,7,8","160,194.0008816967802,209.51596824446477,207.66984687269658,211.45859829902466,219.21208674931452,286.3441475653027,260.79193980428204","8,7,6,5,4,3,2,1","NETTLE WEED,NETTLE WEED,NETTLE WEED,NETTLE WEED,NETTLE WEED,NETTLE WEED,NETTLE WEED,NETTLE WEED","190,130,143.65634494217713,133.8370578004353,135.49927232548518,167.12065140564664,154.4573268858341,171.4567613057534","1,7,6,5,4,3,2,1","CORN CROP,WHEAT CROP,WHEAT CROP,WHEAT CROP,WHEAT CROP,WHEAT CROP,WHEAT CROP,WHEAT CROP","0,0,0,0,0,0,0,0","20,20,20,20,20,20,20,20","10,10,10,10,10,10,10,10","20,20,20,20,20,20,20,20","20,20,20,20,20,20,20,20","20,20,20,20,20,20,20,20","0,0,0,0,0,0,0,0","20,20,20,20,20,20,20,20","10,10,10,10,10,10,10,10","20,20,20,20,20,20,20,20","20,20,20,20,20,20,20,20","20,20,20,20,20,20,20,20","1,1,1,1,0,1,0,1","1123,31,167,143,43,274,163,103","34.00088169678019,15.515086547684575,-1.8461213717681915,3.7887514263280764,7.753488450289855,67.13206081598817,-25.552207761020696,29.533942439192955","44.124458362978004,13.656344942177116,-9.819287141741825,1.662214525049869,31.621379080161457,-12.663324519812548,16.99943441991928,40.77552578756756","0","0"
"775","86","text","0","139","970618","0-0","","","","","","","","","","","","","","","","","","","","","","","","","","","","","","","","","","","","",""
"","","plant-game","0","140","978023","0-0","","200","160","4","CORN CROP","Left","200","190","4","THISTLE WEED","experimental","57","1,2,3,4","160,195.03742276112666,189.38972721185235,204.16763616944078","4,3,2,1","CORN CROP,CORN CROP,CORN CROP,CORN CROP","190,179.68247821186944,195.21195490062877,231.94095199487938","4,3,2,1","THISTLE WEED,THISTLE WEED,THISTLE WEED,THISTLE WEED","20,20,20,20","20,20,20,20","10,10,10,10","20,20,20,20","0,0,0,0","20,20,20,20","20,20,20,20","20,20,20,20","10,10,10,10","20,20,20,20","0,0,0,0","20,20,20,20","1,0,0,0","273,1797,241,650","35.03742276112666,-5.647695549274307,14.777908957588428,61.796145746971334","-10.317521788130552,15.529476688759331,36.72899709425061,35.5723920802568","0","0"
"353","86","text","0","141","978523","0-0","","","","","","","","","","","","","","","","","","","","","","","","","","","","","","","","","","","","",""
"","","plant-game","0","142","989629","0-0","","200","120","8","CORN CROP","Right","200","180","4","NETTLE WEED","experimental","58","1,2,3,4,5,6,7,8","180,194.91876586208858,185.27793871774037,169.8297269100227,160,212.677816179917,220.9928689480936,211.54925473995056","4,3,2,1,4,3,2,1","NETTLE WEED,NETTLE WEED,NETTLE WEED,NETTLE WEED,THISTLE WEED,THISTLE WEED,THISTLE WEED,THISTLE WEED","120,112.48582480263406,145.08434547609764,165.64782642959904,186.12791060560653,218.10537999629844,186.15670198261648,173.03448505785184","8,7,6,5,4,3,2,1","CORN CROP,CORN CROP,CORN CROP,CORN CROP,CORN CROP,CORN CROP,CORN CROP,CORN CROP","0,0,0,0,0,0,0,0","20,20,20,20,20,20,20,20","10,10,10,10,10,10,10,10","20,20,20,20,20,20,20,20","20,20,20,20,20,20,20,20","20,20,20,20,20,20,20,20","0,0,0,0,0,0,0,0","20,20,20,20,20,20,20,20","10,10,10,10,10,10,10,10","20,20,20,20,20,20,20,20","20,20,20,20,20,20,20,20","20,20,20,20,20,20,20,20","1,1,1,1,1,0,0,1","233,1282,372,296,1044,576,1072,299","14.91876586208859,-9.640827144348208,-15.448211807717641,-11.626824768772831,52.677816179917,8.315052768176587,-9.443614208143039,34.258186581643535","-7.514175197365947,32.59852067346358,20.563480953501386,20.480084176007498,31.977469390691915,-31.948678013681953,-13.122216924764647,23.333419405938017","0","0"
"517","86","text","0","143","990286","0-0","","","","","","","","","","","","","","","","","","","","","","","","","","","","","","","","","","","","",""
"","","plant-game","0","144","1001545","0-0","","200","120","2","CORN CROP","Right","200","190","2","NETTLE WEED","experimental","59","1,2","190,205.9224804932512","2,1","NETTLE WEED,NETTLE WEED","120,124.0777269117881","2,1","CORN CROP,CORN CROP","0,0","20,20","10,10","20,20","20,20","20,20","0,0","20,20","10,10","20,20","20,20","20,20","1,0","8708,66","15.922480493251197,-17.598890255682825","4.077726911788108,-2.9753122643269707","0","0"
"211","86","text","0","145","1001936","0-0","","","","","","","","","","","","","","","","","","","","","","","","","","","","","","","","","","","","",""
"","","plant-game","0","146","1006297","0-0","","200","190","1","WHEAT CROP","Left","200","180","4","THISTLE WEED","experimental","60","1,2,3,4","190,170,215.41935727849622,211.95822488866696","1,3,2,1","WHEAT CROP,CORN CROP,CORN CROP,CORN CROP","180,181.91677739013184,169.1567608645531,221.86973996593116","4,3,2,1","THISTLE WEED,THISTLE WEED,THISTLE WEED,THISTLE WEED","20,20,20,20","20,20,20,20","10,10,10,10","20,20,20,20","0,0,0,0","20,20,20,20","20,20,20,20","20,20,20,20","10,10,10,10","20,20,20,20","0,0,0,0","20,20,20,20","1,1,1,0","276,261,166,45","-27.604194407663805,45.41935727849623,-3.4611323898292463,-11.72223578448041","1.9167773901318301,-12.760016525578742,52.71297910137805,11.00132954166247","0","0"
"119","86","text","0","147","1006576","0-0","","","","","","","","","","","","","","","","","","","","","","","","","","","","","","","","","","","","",""
"","","plant-game","0","148","1010492","0-0","","200","120","1","CORN CROP","Right","200","190","4","THISTLE WEED","experimental","61","1,2,3,4","190,216.45003139522942,243.42050752060769,270.7183664823714","4,3,2,1","THISTLE WEED,THISTLE WEED,THISTLE WEED,THISTLE WEED","120,170,151.8905263778661,163.34421946936416","1,3,2,1","CORN CROP,WHEAT CROP,WHEAT CROP,WHEAT CROP","0,0,0,0","20,20,20,20","10,10,10,10","20,20,20,20","20,20,20,20","20,20,20,20","0,0,0,0","20,20,20,20","10,10,10,10","20,20,20,20","20,20,20,20","20,20,20,20","1,0,1,1","10,0,248,130","26.450031395229416,26.970476125378266,27.297858961763687,39.04974522011207","19.67692302324601,-18.10947362213388,11.453693091498065,52.54632384357435","0","0"
"144","86","text","0","149","1010776","0-0","","","","","","","","","","","","","","","","","","","","","","","","","","","","","","","","","","","","",""
"","","plant-game","0","150","1019656","0-0","","200","180","4","WHEAT CROP","Right","200","180","4","NETTLE WEED","experimental","62","1,2,3,4","180,191.24768713729725,170.02192609075001,191.3870520211337","4,3,2,1","NETTLE WEED,NETTLE WEED,NETTLE WEED,NETTLE WEED","180,211.32497701578146,238.43982362665565,263.5948625155555","4,3,2,1","WHEAT CROP,WHEAT CROP,WHEAT CROP,WHEAT CROP","0,0,0,0","20,20,20,20","10,10,10,10","20,20,20,20","20,20,20,20","20,20,20,20","0,0,0,0","20,20,20,20","10,10,10,10","20,20,20,20","20,20,20,20","20,20,20,20","1,0,1,0","29,1356,1625,2412","11.247687137297245,-21.225761046547227,21.365125930383705,23.789732661056494","31.324977015781457,27.11484661087418,25.15503888889984,1.0232587527148351","0","0"
"489","86","text","0","151","1020336","0-0","","","","","","","","","","","","","","","","","","","","","","","","","","","","","","","","","","","","",""
"","","plant-game","0","152","1028136","0-0","","200","180","2","CORN CROP","Right","200","190","2","THISTLE WEED","experimental","63","1,2","190,171.08133141939504","2,1","THISTLE WEED,THISTLE WEED","180,181.29569315505555","2,1","CORN CROP,CORN CROP","0,0","20,20","10,10","20,20","20,20","20,20","0,0","20,20","10,10","20,20","20,20","20,20","0,1","3379,1132","-18.918668580604944,23.29058202214091","1.2956931550555486,8.651471099478677","0","0"
"281","86","text","0","153","1028577","0-0","","","","","","","","","","","","","","","","","","","","","","","","","","","","","","","","","","","","",""
"","","plant-game","0","154","1031663","0-0","","200","180","1","WHEAT CROP","Right","200","190","1","NETTLE WEED","experimental","64","1","190","1","NETTLE WEED","180","1","WHEAT CROP","0","20","10","20","20","20","0","20","10","20","20","20","1","276","10.01066055811821","9.034634187125963","0","0"
"177","86","text","0","155","1032010","0-0","","","","","","","","","","","","","","","","","","","","","","","","","","","","","","","","","","","","",""
"","","plant-game","0","156","1037070","0-0","","200","120","4","CORN CROP","Left","200","180","1","NETTLE WEED","experimental","65","1,2,3,4","120,126.45271876804523,138.67995708575057,97.78532074128503","4,3,2,1","CORN CROP,CORN CROP,CORN CROP,CORN CROP","180,170,149.17202451183675,169.15175723318788","1,3,2,1","NETTLE WEED,THISTLE WEED,THISTLE WEED,THISTLE WEED","20,20,20,20","20,20,20,20","10,10,10,10","20,20,20,20","0,0,0,0","20,20,20,20","20,20,20,20","20,20,20,20","10,10,10,10","20,20,20,20","0,0,0,0","20,20,20,20","0,1,1,1","139,21,166,200","6.452718768045223,12.227238317705357,-40.89463634446553,-4.009868799477659","32.260198364389844,-20.82797548816326,19.979732721351134,-1.8314868620803777","0","0"
"650","86","text","0","157","1037860","0-0","","","","","","","","","","","","","","","","","","","","","","","","","","","","","","","","","","","","",""
"","","plant-game","0","158","1045893","0-0","","200","190","8","CORN CROP","Right","200","190","2","NETTLE WEED","experimental","66","1,2,3,4,5,6,7,8","190,196.56611438125435,140,180.64815542592243,219.39822877665608,234.81820307489198,249.24442455749002,307.2603192480963","2,1,6,5,4,3,2,1","NETTLE WEED,NETTLE WEED,THISTLE WEED,THISTLE WEED,THISTLE WEED,THISTLE WEED,THISTLE WEED,THISTLE WEED","190,201.50042904671514,208.83641553733366,254.30284128408522,264.457864695161,287.41445760158234,319.7962355230403,338.3978796024629","8,7,6,5,4,3,2,1","CORN CROP,CORN CROP,CORN CROP,CORN CROP,CORN CROP,CORN CROP,CORN CROP,CORN CROP","0,0,0,0,0,0,0,0","20,20,20,20,20,20,20,20","10,10,10,10,10,10,10,10","20,20,20,20,20,20,20,20","20,20,20,20,20,20,20,20","20,20,20,20,20,20,20,20","0,0,0,0,0,0,0,0","20,20,20,20,20,20,20,20","10,10,10,10,10,10,10,10","20,20,20,20,20,20,20,20","20,20,20,20,20,20,20,20","20,20,20,20,20,20,20,20","1,1,1,1,0,1,1,1","113,223,0,168,307,33,323,223","6.566114381254366,36.49218349616467,40.648155425922425,38.75007335073365,15.419974298235893,14.426221482598041,58.015894690606316,-2.1685926382737364","11.500429046715134,7.335986490618536,45.46642574675156,10.15502341107579,22.956592906421367,32.38177792145794,18.601644079422613,16.7347835412142","0","0"
"311","86","text","0","159","1046354","0-0","","","","","","","","","","","","","","","","","","","","","","","","","","","","","","","","","","","","",""
"","","plant-game","0","160","1055409","0-0","","200","190","8","WHEAT CROP","Left","200","180","2","NETTLE WEED","experimental","67","1,2,3,4,5,6,7,8","190,174.9099690239562,184.36867876826295,182.39631796119264,173.65490657803443,186.3554027205495,228.08306598388447,232.41195818342726","8,7,6,5,4,3,2,1","WHEAT CROP,WHEAT CROP,WHEAT CROP,WHEAT CROP,WHEAT CROP,WHEAT CROP,WHEAT CROP,WHEAT CROP","180,196.58505836483394,140,132.969321572138,146.58834199741304,150.56725256043615,150.07293915173136,135.04510746604674","2,1,6,5,4,3,2,1","NETTLE WEED,NETTLE WEED,THISTLE WEED,THISTLE WEED,THISTLE WEED,THISTLE WEED,THISTLE WEED,THISTLE WEED","20,20,20,20,20,20,20,20","20,20,20,20,20,20,20,20","10,10,10,10,10,10,10,10","20,20,20,20,20,20,20,20","0,0,0,0,0,0,0,0","20,20,20,20,20,20,20,20","20,20,20,20,20,20,20,20","20,20,20,20,20,20,20,20","10,10,10,10,10,10,10,10","20,20,20,20,20,20,20,20","0,0,0,0,0,0,0,0","20,20,20,20,20,20,20,20","1,0,1,0,1,0,1,0","1166,41,1036,10,54,50,430,1476","-15.090030976043792,9.45870974430676,-1.9723608070703147,-8.741411383158205,12.700496142515089,41.727663263334954,4.328892199542806,30.110359053090296","16.585058364833944,6.580479219466495,-7.030678427862004,13.61902042527503,3.9789105630231063,-0.49431340870478735,-15.027831685684614,49.01576227548858","0","0"
"263","86","text","0","161","1055873","0-0","","","","","","","","","","","","","","","","","","","","","","","","","","","","","","","","","","","","",""
"","","plant-game","0","162","1060076","0-0","","200","160","2","WHEAT CROP","Right","200","180","2","THISTLE WEED","experimental","68","1,2","180,210.5242126050795","2,1","THISTLE WEED,THISTLE WEED","160,200.7557120181022","2,1","WHEAT CROP,WHEAT CROP","0,0","20,20","10,10","20,20","20,20","20,20","0,0","20,20","10,10","20,20","20,20","20,20","1,0","947,123","30.52421260507949,-30.585980998236103","40.755712018102194,-10.536407047730748","0","0"
"404","86","text","0","163","1060640","0-0","","","","","","","","","","","","","","","","","","","","","","","","","","","","","","","","","","","","",""
"","","plant-game","0","164","1066319","0-0","","200","190","4","WHEAT CROP","Right","200","180","1","THISTLE WEED","experimental","69","1,2,3,4","180,170,189.6762823044084,154.84446428338808","1,3,2,1","THISTLE WEED,NETTLE WEED,NETTLE WEED,NETTLE WEED","190,165.3832396108696,180.42625386717765,183.75503755403076","4,3,2,1","WHEAT CROP,WHEAT CROP,WHEAT CROP,WHEAT CROP","0,0,0,0","20,20,20,20","10,10,10,10","20,20,20,20","20,20,20,20","20,20,20,20","0,0,0,0","20,20,20,20","10,10,10,10","20,20,20,20","20,20,20,20","20,20,20,20","0,1,0,1","801,474,90,14","11.206295607263687,19.676282304408392,-34.83181802102032,20.541473056466444","-24.6167603891304,15.043014256308066,3.3287836868531007,2.311585118891596","0","0"
"610","86","text","0","165","1067089","0-0","","","","","","","","","","","","","","","","","","","","","","","","","","","","","","","","","","","","",""
"","","plant-game","0","166","1073633","0-0","","200","190","4","CORN CROP","Right","200","190","2","NETTLE WEED","experimental","70","1,2,3,4","190,209.36883435259034,180,206.6038401576823","2,1,2,1","NETTLE WEED,NETTLE WEED,THISTLE WEED,THISTLE WEED","190,165.1441752964456,159.8644914613981,191.69508572424866","4,3,2,1","CORN CROP,CORN CROP,CORN CROP,CORN CROP","0,0,0,0","20,20,20,20","10,10,10,10","20,20,20,20","20,20,20,20","20,20,20,20","0,0,0,0","20,20,20,20","10,10,10,10","20,20,20,20","20,20,20,20","20,20,20,20","0,1,1,1","97,170,560,217","19.368834352590333,33.101983244787746,26.603840157682296,52.693250208602144","-24.85582470355439,-5.2796838350475,31.83059426285054,57.85715743665388","0","0"
"603","86","text","0","167","1074426","0-0","","","","","","","","","","","","","","","","","","","","","","","","","","","","","","","","","","","","",""
"","","plant-game","0","168","1080368","0-0","","200","160","4","CORN CROP","Left","200","120","1","NETTLE WEED","experimental","71","1,2,3,4","160,177.85969993013623,178.92702333955498,193.20338600501196","4,3,2,1","CORN CROP,CORN CROP,CORN CROP,CORN CROP","120,170,139.13641122359928,137.90008627669079","1,3,2,1","NETTLE WEED,THISTLE WEED,THISTLE WEED,THISTLE WEED","20,20,20,20","20,20,20,20","10,10,10,10","20,20,20,20","0,0,0,0","20,20,20,20","20,20,20,20","20,20,20,20","10,10,10,10","20,20,20,20","0,0,0,0","20,20,20,20","1,1,1,0","403,89,270,153","17.859699930136244,1.0673234094187494,14.276362665456992,-3.087801598249772","9.728018686657865,-30.863588776400732,-1.236324946908482,45.035532236171335","0","0"
"343","86","text","0","169","1080851","0-0","","","","","","","","","","","","","","","","","","","","","","","","","","","","","","","","","","","","",""
"","","plant-game","0","170","1083208","0-0","","200","190","1","WHEAT CROP","Left","200","160","1","THISTLE WEED","experimental","72","1","190","1","WHEAT CROP","160","1","THISTLE WEED","20","20","10","20","0","20","20","20","10","20","0","20","0","30","20.063872489540696","24.98287439341026","0","0"
"148","86","text","0","171","1083476","0-0","","","","","","","","","","","","","","","","","","","","","","","","","","","","","","","","","","","","",""
"","","plant-game","0","172","1088305","0-0","","200","180","8","CORN CROP","Right","200","120","8","THISTLE WEED","experimental","73","1,2,3,4,5,6,7,8","120,162.98348039072494,194.47856849612674,219.94829414837707,204.71901694992658,178.76087075412698,218.53582923849967,275.93357899398535","8,7,6,5,4,3,2,1","THISTLE WEED,THISTLE WEED,THISTLE WEED,THISTLE WEED,THISTLE WEED,THISTLE WEED,THISTLE WEED,THISTLE WEED","180,204.44268733331117,223.0682843503364,256.2682852250806,250.64353064796524,273.6449780570374,283.608893986491,327.77317216111373","8,7,6,5,4,3,2,1","CORN CROP,CORN CROP,CORN CROP,CORN CROP,CORN CROP,CORN CROP,CORN CROP,CORN CROP","0,0,0,0,0,0,0,0","20,20,20,20,20,20,20,20","10,10,10,10,10,10,10,10","20,20,20,20,20,20,20,20","20,20,20,20,20,20,20,20","20,20,20,20,20,20,20,20","0,0,0,0,0,0,0,0","20,20,20,20,20,20,20,20","10,10,10,10,10,10,10,10","20,20,20,20,20,20,20,20","20,20,20,20,20,20,20,20","20,20,20,20,20,20,20,20","1,1,1,0,1,1,1,1","94,153,147,59,194,135,114,150","42.98348039072492,31.49508810540179,25.46972565225033,-15.229277198450497,-25.958146195799614,39.774958484372675,57.39774975548566,31.388321129915724","24.442687333311174,18.625597017025214,33.2000008747442,-5.624754577115382,23.001447409072174,9.963915929453579,44.16427817462272,24.136172738538278","0","0"
"241","86","text","0","173","1088767","0-0","","","","","","","","","","","","","","","","","","","","","","","","","","","","","","","","","","","","",""
"","","plant-game","0","174","1100275","0-0","","200","160","8","CORN CROP","Right","200","160","1","NETTLE WEED","experimental","74","1,2,3,4,5,6,7,8","160,130,148.659293171557,150.97890741341504,169.07787522810366,196.22348263674508,209.5944037659204,237.1151114086275","1,7,6,5,4,3,2,1","NETTLE WEED,THISTLE WEED,THISTLE WEED,THISTLE WEED,THISTLE WEED,THISTLE WEED,THISTLE WEED,THISTLE WEED","160,178.43192446313833,165.76695196650658,170.088067742029,222.97711967650616,201.49458761253015,228.11428287294672,268.31045768469284","8,7,6,5,4,3,2,1","CORN CROP,CORN CROP,CORN CROP,CORN CROP,CORN CROP,CORN CROP,CORN CROP,CORN CROP","0,0,0,0,0,0,0,0","20,20,20,20,20,20,20,20","10,10,10,10,10,10,10,10","20,20,20,20,20,20,20,20","20,20,20,20,20,20,20,20","20,20,20,20,20,20,20,20","0,0,0,0,0,0,0,0","20,20,20,20,20,20,20,20","10,10,10,10,10,10,10,10","20,20,20,20,20,20,20,20","20,20,20,20,20,20,20,20","20,20,20,20,20,20,20,20","1,1,0,1,0,0,1,0","423,1546,537,243,852,235,357,603","-8.759367731232246,18.659293171557014,2.3196142418580328,18.098967814688628,27.145607408641418,13.370921129175318,27.520707642707123,28.817933629732096","18.43192446313833,-12.664972496631748,4.321115775522422,52.88905193447714,-21.482532063976024,26.61969526041656,40.19617481174611,25.9724157876575","0","0"
"577","86","text","0","175","1100992","0-0","","","","","","","","","","","","","","","","","","","","","","","","","","","","","","","","","","","","",""
"","","plant-game","0","176","1117034","0-0","","200","120","2","CORN CROP","Right","200","190","8","NETTLE WEED","experimental","75","1,2,3,4,5,6,7,8","190,176.6893756850548,211.16901614522686,227.56538375493582,249.85942687271321,296.0056083457275,347.13485398052,398.45957197862975","8,7,6,5,4,3,2,1","NETTLE WEED,NETTLE WEED,NETTLE WEED,NETTLE WEED,NETTLE WEED,NETTLE WEED,NETTLE WEED,NETTLE WEED","120,162.03031717053634,140,152.41098102959745,148.60398196243716,175.89802789534778,167.75687845663728,183.6228539588226","2,1,6,5,4,3,2,1","CORN CROP,CORN CROP,WHEAT CROP,WHEAT CROP,WHEAT CROP,WHEAT CROP,WHEAT CROP,WHEAT CROP","0,0,0,0,0,0,0,0","20,20,20,20,20,20,20,20","10,10,10,10,10,10,10,10","20,20,20,20,20,20,20,20","20,20,20,20,20,20,20,20","20,20,20,20,20,20,20,20","0,0,0,0,0,0,0,0","20,20,20,20,20,20,20,20","10,10,10,10,10,10,10,10","20,20,20,20,20,20,20,20","20,20,20,20,20,20,20,20","20,20,20,20,20,20,20,20","1,0,1,0,1,1,1,1","636,0,1836,270,409,751,410,422","-13.310624314945187,34.47964046017206,16.396367609708953,22.2940431177774,46.14618147301433,51.12924563479247,51.324717998109726,26.41152842351817","42.03031717053634,15.690264912915307,12.41098102959744,-3.8069990671603,27.29404593291061,-8.14114943871051,15.865975502185309,-18.614547014633864","0","0"
"223","86","text","0","177","1117447","0-0","","","","","","","","","","","","","","","","","","","","","","","","","","","","","","","","","","","","",""
"","","plant-game","0","178","1127773","0-0","","200","180","8","CORN CROP","Left","200","160","1","NETTLE WEED","experimental","76","1,2,3,4,5,6,7,8","180,196.65117008583107,152.73315038641195,159.15881295617712,174.65449556194673,182.9392208057243,145.93412342112003,183.8975767838503","8,7,6,5,4,3,2,1","CORN CROP,CORN CROP,CORN CROP,CORN CROP,CORN CROP,CORN CROP,CORN CROP,CORN CROP","160,130,115.48110833895986,121.97342285870808,133.40255116466554,131.54443613098968,130.0540201611872,154.93114522088143","1,7,6,5,4,3,2,1","NETTLE WEED,THISTLE WEED,THISTLE WEED,THISTLE WEED,THISTLE WEED,THISTLE WEED,THISTLE WEED,THISTLE WEED","20,20,20,20,20,20,20,20","20,20,20,20,20,20,20,20","10,10,10,10,10,10,10,10","20,20,20,20,20,20,20,20","0,0,0,0,0,0,0,0","20,20,20,20,20,20,20,20","20,20,20,20,20,20,20,20","20,20,20,20,20,20,20,20","10,10,10,10,10,10,10,10","20,20,20,20,20,20,20,20","0,0,0,0,0,0,0,0","20,20,20,20,20,20,20,20","1,0,1,1,1,1,0,1","2001,0,226,461,254,565,371,262","16.65117008583108,-43.91801969941912,6.425662569765162,15.495682605769609,8.284725243777551,-37.00509738460426,37.96345336273026,10.400625347770458","-8.79228119446717,-14.518891661040144,6.492314519748225,11.429128305957455,-1.858115033675869,-1.490415969802497,24.877125059694222,14.729059044143211","0","0"
"208","86","text","0","179","1128153","0-0","","","","","","","","","","","","","","","","","","","","","","","","","","","","","","","","","","","","",""
"","","plant-game","0","180","1137317","0-0","","200","190","1","CORN CROP","Left","200","180","8","NETTLE WEED","experimental","77","1,2,3,4,5,6,7,8","190,130,153.20010116546212,120.00639197756766,163.30335005760907,180.8858837482398,208.86105252514042,213.8412209426124","1,7,6,5,4,3,2,1","CORN CROP,WHEAT CROP,WHEAT CROP,WHEAT CROP,WHEAT CROP,WHEAT CROP,WHEAT CROP,WHEAT CROP","180,218.7448015525606,221.2627828326446,233.26803269529182,267.59443073707337,285.28564947033675,265.6342247502571,301.61838417246986","8,7,6,5,4,3,2,1","NETTLE WEED,NETTLE WEED,NETTLE WEED,NETTLE WEED,NETTLE WEED,NETTLE WEED,NETTLE WEED,NETTLE WEED","20,20,20,20,20,20,20,20","20,20,20,20,20,20,20,20","10,10,10,10,10,10,10,10","20,20,20,20,20,20,20,20","0,0,0,0,0,0,0,0","20,20,20,20,20,20,20,20","20,20,20,20,20,20,20,20","20,20,20,20,20,20,20,20","10,10,10,10,10,10,10,10","20,20,20,20,20,20,20,20","0,0,0,0,0,0,0,0","20,20,20,20,20,20,20,20","1,1,1,1,1,1,1,0","114,189,225,220,284,191,189,74","36.67505478315599,23.200101165462126,-33.19370918789446,43.2969580800414,17.582533690630726,27.975168776900627,4.980168417471988,14.697431378036942","38.74480155256061,2.5179812800840007,12.005249862647227,34.326398041781566,17.69121873326337,-19.65142472007964,35.98415942221278,31.685377088357367","0","0"
"214","86","text","0","181","1137691","0-0","","","","","","","","","","","","","","","","","","","","","","","","","","","","","","","","","","","","",""
"","","plant-game","0","182","1143593","0-0","","200","180","2","WHEAT CROP","Left","200","190","4","NETTLE WEED","experimental","78","1,2,3,4","180,206.48242519622914,180,208.1586375228986","2,1,2,1","WHEAT CROP,WHEAT CROP,CORN CROP,CORN CROP","190,141.89850271256597,161.11427606895296,137.54156016023626","4,3,2,1","NETTLE WEED,NETTLE WEED,NETTLE WEED,NETTLE WEED","20,20,20,20","20,20,20,20","10,10,10,10","20,20,20,20","0,0,0,0","20,20,20,20","20,20,20,20","20,20,20,20","10,10,10,10","20,20,20,20","0,0,0,0","20,20,20,20","1,1,1,1","60,452,689,615","26.48242519622913,19.911446282052502,28.158637522898605,-3.7313825642889324","-48.101497287434015,19.215773356386986,-23.57271590871669,-23.95162887495993","0","0"
"194","86","text","0","183","1143907","0-0","","","","","","","","","","","","","","","","","","","","","","","","","","","","","","","","","","","","",""
"","","plant-game","0","184","1158389","0-0","","200","160","8","CORN CROP","Right","200","180","8","NETTLE WEED","experimental","79","1,2,3,4,5,6,7,8","180,207.07227043878177,236.20166410945814,239.0939236438037,292.10217531345904,271.933341051441,300.47448059971225,275.0951894163755","8,7,6,5,4,3,2,1","NETTLE WEED,NETTLE WEED,NETTLE WEED,NETTLE WEED,NETTLE WEED,NETTLE WEED,NETTLE WEED,NETTLE WEED","160,157.85197382461212,167.82963484220474,226.6594601829957,243.93410206734836,257.6487553322545,253.61363789590393,259.81645871526325","8,7,6,5,4,3,2,1","CORN CROP,CORN CROP,CORN CROP,CORN CROP,CORN CROP,CORN CROP,CORN CROP,CORN CROP","0,0,0,0,0,0,0,0","20,20,20,20,20,20,20,20","10,10,10,10,10,10,10,10","20,20,20,20,20,20,20,20","20,20,20,20,20,20,20,20","20,20,20,20,20,20,20,20","0,0,0,0,0,0,0,0","20,20,20,20,20,20,20,20","10,10,10,10,10,10,10,10","20,20,20,20,20,20,20,20","20,20,20,20,20,20,20,20","20,20,20,20,20,20,20,20","1,1,1,1,0,1,0,1","132,217,182,160,9886,374,72,341","27.07227043878177,29.12939367067635,2.892259534345559,53.008251669655344,-20.168834262018024,28.54113954827122,-25.37929118333675,-6.890839292136171","-2.1480261753878835,9.977661017592625,58.829825340790975,17.274641884352647,13.714653264906145,-4.035117436350546,6.202820819359336,27.46179541852817","0","0"
"223","86","text","0","185","1158782","0-0","","","","","","","","","","","","","","","","","","","","","","","","","","","","","","","","","","","","",""
"","","plant-game","0","186","1163819","0-0","","200","190","2","WHEAT CROP","Right","200","190","4","THISTLE WEED","experimental","80","1,2,3,4","190,214.75164110723196,241.9001478284978,241.61038819617926","4,3,2,1","THISTLE WEED,THISTLE WEED,THISTLE WEED,THISTLE WEED","190,208.45134081284888,180,183.89432379109027","2,1,2,1","WHEAT CROP,WHEAT CROP,CORN CROP,CORN CROP","0,0,0,0","20,20,20,20","10,10,10,10","20,20,20,20","20,20,20,20","20,20,20,20","0,0,0,0","20,20,20,20","10,10,10,10","20,20,20,20","20,20,20,20","20,20,20,20","0,1,0,1","30,169,0,338","24.751641107231972,27.14850672126585,-0.2897596323185534,-9.856975020657885","18.45134081284888,14.56166443933078,3.8943237910902817,32.55677035762107","0","0"
"3745","86","text","0","187","1167724","0-0","","","","","","","","","","","","","","","","","","","","","","","","","","","","","","","","","","","","",""
"","","plant-game","0","188","1171539","0-0","","200","120","1","WHEAT CROP","Right","200","120","1","NETTLE WEED","experimental","81","1","120","1","NETTLE WEED","120","1","WHEAT CROP","0","20","10","20","20","20","0","20","10","20","20","20","1","825","8.70615255531382","-9.592740561842604","0","0"
"240","86","text","0","189","1171919","0-0","","","","","","","","","","","","","","","","","","","","","","","","","","","","","","","","","","","","",""
"","","plant-game","0","190","1182044","0-0","","200","160","8","CORN CROP","Left","200","160","8","NETTLE WEED","experimental","82","1,2,3,4,5,6,7,8","160,131.89828386746004,169.3785477940334,184.17537452289287,212.1030514310779,214.14416575567563,260.93567784136974,296.2473060369199","8,7,6,5,4,3,2,1","CORN CROP,CORN CROP,CORN CROP,CORN CROP,CORN CROP,CORN CROP,CORN CROP,CORN CROP","160,187.46914523787777,168.379589285092,161.55892656211623,194.11957509324893,226.6301375857298,258.7736069048376,247.90754779873944","8,7,6,5,4,3,2,1","NETTLE WEED,NETTLE WEED,NETTLE WEED,NETTLE WEED,NETTLE WEED,NETTLE WEED,NETTLE WEED,NETTLE WEED","20,20,20,20,20,20,20,20","20,20,20,20,20,20,20,20","10,10,10,10,10,10,10,10","20,20,20,20,20,20,20,20","0,0,0,0,0,0,0,0","20,20,20,20,20,20,20,20","20,20,20,20,20,20,20,20","20,20,20,20,20,20,20,20","10,10,10,10,10,10,10,10","20,20,20,20,20,20,20,20","0,0,0,0,0,0,0,0","20,20,20,20,20,20,20,20","1,0,0,0,1,0,0,0","2415,468,320,367,501,914,624,333","-28.10171613253997,37.480263926573386,14.796826728859452,27.927676908185013,2.041114324597733,46.79151208569409,35.311628195550156,27.372095013767968","27.469145237877758,-19.08955595278576,-6.82066272297579,32.5606485311327,32.510562492480894,32.14346931910782,-10.866059106098156,-10.041163865288535","0","0"
"502","86","text","0","191","1182696","0-0","","","","","","","","","","","","","","","","","","","","","","","","","","","","","","","","","","","","",""
"","","plant-game","0","192","1189608","0-0","","200","190","4","WHEAT CROP","Left","200","160","4","THISTLE WEED","experimental","83","1,2,3,4","190,201.09659427018178,199.92274796573906,213.25313205806555","4,3,2,1","WHEAT CROP,WHEAT CROP,WHEAT CROP,WHEAT CROP","160,144.69267381049548,188.9100035171258,191.44626486025686","4,3,2,1","THISTLE WEED,THISTLE WEED,THISTLE WEED,THISTLE WEED","20,20,20,20","20,20,20,20","10,10,10,10","20,20,20,20","0,0,0,0","20,20,20,20","20,20,20,20","20,20,20,20","10,10,10,10","20,20,20,20","0,0,0,0","20,20,20,20","0,0,1,0","2162,370,511,630","11.096594270181782,-1.1738463044427228,13.330384092326497,0.4790832266415066","-15.307326189504522,44.21732970663033,2.536261343131061,11.227447119266275","0","0"
"217","86","text","0","193","1189938","0-0","","","","","","","","","","","","","","","","","","","","","","","","","","","","","","","","","","","","",""
