"rt","key_press","trial_type","trial_index","trial_index_global","time_elapsed","internal_chunk_id","responses","experimental_goal_height","experimental_start_height","experimental_weeks_total","experimental_crop_type","experimental_crop_side","fixed_goal_height","fixed_start_height","fixed_weeks_total","fixed_crop_type","trial_kind","trial_number","stage","left_current_height","left_weeks_remaining","left_crop_type","right_current_height","right_weeks_remaining","right_crop_type","mean_left_growth_given_left","sd_left_growth_given_left","mean_left_growth_given_middle","sd_left_growth_given_middle","mean_left_growth_given_right","sd_left_growth_given_right","mean_right_growth_given_left","sd_right_growth_given_left","mean_right_growth_given_middle","sd_right_growth_given_middle","mean_right_growth_given_right","sd_right_growth_given_right","response","response_time","left_growth","right_growth","other_key_pressed","mouse_clicked"
"8963162","77","text","0","0","8963259","0-0","","","","","","","","","","","","","","","","","","","","","","","","","","","","","","","","","","","","",""
"14660","","survey-text","0","1","8978939","0-0","{""Q0"":""19""}","","","","","","","","","","","","","","","","","","","","","","","","","","","","","","","","","","","",""
"7092","86","text","0","2","7201","0-0","","","","","","","","","","","","","","","","","","","","","","","","","","","","","","","","","","","","",""
"","","plant-game","0","3","150384","0-0","","200","120","8","WHEAT CROP","Right","200","120","8","THISTLE WEED","practice","1","1,2,3,4,5,6,7,8","120,161.37737328293736,173.32539724499003,172.86431286771597,217.52640935213574,193.5741111764572,177.9833472933197,177.8993569496062","8,7,6,5,4,3,2,1","THISTLE WEED,THISTLE WEED,THISTLE WEED,THISTLE WEED,THISTLE WEED,THISTLE WEED,THISTLE WEED,THISTLE WEED","120,154.44623051953454,162.18857640506536,198.79282662235508,230.4040836392558,265.8451365737452,246.44137118078592,265.31011139394246","8,7,6,5,4,3,2,1","WHEAT CROP,WHEAT CROP,WHEAT CROP,WHEAT CROP,WHEAT CROP,WHEAT CROP,WHEAT CROP,WHEAT CROP","0,0,0,0,0,0,0,0","20,20,20,20,20,20,20,20","10,10,10,10,10,10,10,10","20,20,20,20,20,20,20,20","20,20,20,20,20,20,20,20","20,20,20,20,20,20,20,20","0,0,0,0,0,0,0,0","20,20,20,20,20,20,20,20","10,10,10,10,10,10,10,10","20,20,20,20,20,20,20,20","20,20,20,20,20,20,20,20","20,20,20,20,20,20,20,20","1,0,1,1,0,0,0,0","11911,13199,17820,7453,7399,7733,5753,2211","41.37737328293737,11.948023962052677,-0.46108437727404805,44.66209648441977,-23.95229817567855,-15.590763883137491,-0.08399034371351173,-5.767686663037809","34.44623051953455,7.742345885530827,36.604250217289724,31.6112570169007,35.44105293448943,-19.403765392959276,18.86874021315656,4.603111683628949","0","0"
"1188","86","text","0","4","151697","0-0","","","","","","","","","","","","","","","","","","","","","","","","","","","","","","","","","","","","",""
"","","plant-game","0","5","191925","0-0","","200","160","4","WHEAT CROP","Right","200","160","4","THISTLE WEED","practice","2","1,2,3,4","160,187.59150809761616,218.66537728803658,275.9551758434967","4,3,2,1","THISTLE WEED,THISTLE WEED,THISTLE WEED,THISTLE WEED","160,154.5661908090404,182.32596892792844,225.5073378631995","4,3,2,1","WHEAT CROP,WHEAT CROP,WHEAT CROP,WHEAT CROP","0,0,0,0","20,20,20,20","10,10,10,10","20,20,20,20","20,20,20,20","20,20,20,20","0,0,0,0","20,20,20,20","10,10,10,10","20,20,20,20","20,20,20,20","20,20,20,20","0,1,1,0","7211,7024,2813,1484","27.591508097616163,31.073869190420425,57.289798555460095,-14.784939408773461","-5.433809190959621,27.75977811888805,43.18136893527104,11.358008109941052","0","0"
"741","86","text","0","6","192796","0-0","","","","","","","","","","","","","","","","","","","","","","","","","","","","","","","","","","","","",""
"","","plant-game","0","7","227644","0-0","","200","180","2","WHEAT CROP","Left","200","180","2","NETTLE WEED","practice","3","1,2","180,156.947363836241","2,1","WHEAT CROP,WHEAT CROP","180,217.45504265822584","2,1","NETTLE WEED,NETTLE WEED","20,20","20,20","10,10","20,20","0,0","20,20","20,20","20,20","10,10","20,20","0,0","20,20","1,1","8227,10783","-23.052636163758994,-19.822714934200537","37.45504265822583,-8.8372853408323","0","0"
"706","86","text","0","8","228423","0-0","","","","","","","","","","","","","","","","","","","","","","","","","","","","","","","","","","","","",""
"","","plant-game","0","9","262211","0-0","","200","190","1","CORN CROP","Right","200","190","1","NETTLE WEED","practice","4","1","190","1","NETTLE WEED","190","1","CORN CROP","0","20","10","20","20","20","0","20","10","20","20","20","0","18858","-3.8472357048789703","13.78573382381619","0","0"
"937","86","text","0","10","263258","0-0","","","","","","","","","","","","","","","","","","","","","","","","","","","","","","","","","","","","",""
"","","plant-game","0","11","292539","0-0","","200","120","8","WHEAT CROP","Left","200","160","8","THISTLE WEED","practice","5","1,2,3,4,5,6,7,8","120,114.47709084788275,137.0954470719808,123.18092648982957,108.86181177736786,141.36488535223174,201.61464379045796,154.84819096782775","8,7,6,5,4,3,2,1","WHEAT CROP,WHEAT CROP,WHEAT CROP,WHEAT CROP,WHEAT CROP,WHEAT CROP,WHEAT CROP,WHEAT CROP","160,184.74494597511776,198.21160695254508,207.74223409132247,231.1661368214345,253.83939068994968,254.95853177080437,216.28345444677063","8,7,6,5,4,3,2,1","THISTLE WEED,THISTLE WEED,THISTLE WEED,THISTLE WEED,THISTLE WEED,THISTLE WEED,THISTLE WEED,THISTLE WEED","20,20,20,20,20,20,20,20","20,20,20,20,20,20,20,20","10,10,10,10,10,10,10,10","20,20,20,20,20,20,20,20","0,0,0,0,0,0,0,0","20,20,20,20,20,20,20,20","20,20,20,20,20,20,20,20","20,20,20,20,20,20,20,20","10,10,10,10,10,10,10,10","20,20,20,20,20,20,20,20","0,0,0,0,0,0,0,0","20,20,20,20,20,20,20,20","1,1,1,0,0,0,1,1","2162,975,3907,961,745,1609,1477,822","-5.522909152117244,22.618356224098044,-13.914520582151226,-14.319114712461712,32.50307357486386,60.24975843822623,-46.76645282263021,-4.818693924452002","24.744945975117766,13.466660977427319,9.530627138777405,23.423902730112015,22.673253868515182,1.1191410808546784,-38.675077324033744,19.58390640202747","0","0"
"791","86","text","0","12","293460","0-0","","","","","","","","","","","","","","","","","","","","","","","","","","","","","","","","","","","","",""
"","","plant-game","0","13","333229","0-0","","200","180","4","CORN CROP","Right","200","160","4","NETTLE WEED","practice","6","1,2,3,4","160,177.4895624070034,197.9697623817943,220.46558585854714","4,3,2,1","NETTLE WEED,NETTLE WEED,NETTLE WEED,NETTLE WEED","180,171.4486988433561,240.8282807861757,188.79567167315219","4,3,2,1","CORN CROP,CORN CROP,CORN CROP,CORN CROP","0,0,0,0","20,20,20,20","10,10,10,10","20,20,20,20","20,20,20,20","20,20,20,20","0,0,0,0","20,20,20,20","10,10,10,10","20,20,20,20","20,20,20,20","20,20,20,20","1,1,0,0","10734,4795,2316,2481","17.48956240700342,20.4801999747909,22.495823476752832,14.734452056688625","-8.551301156643877,69.37958194281958,-52.032609113023526,-17.894614932525535","0","0"
"662","86","text","0","14","334031","0-0","","","","","","","","","","","","","","","","","","","","","","","","","","","","","","","","","","","","",""
"","","plant-game","0","15","361634","0-0","","200","180","2","CORN CROP","Left","200","190","2","NETTLE WEED","practice","7","1,2","180,244.62543735714388","2,1","CORN CROP,CORN CROP","190,234.3399151589589","2,1","NETTLE WEED,NETTLE WEED","20,20","20,20","10,10","20,20","0,0","20,20","20,20","20,20","10,10","20,20","0,0","20,20","0,1","15492,2408","64.62543735714387,-24.036141781784117","44.33991515895889,8.565119696549143","0","0"
"1018","86","text","0","16","362752","0-0","","","","","","","","","","","","","","","","","","","","","","","","","","","","","","","","","","","","",""
"","","plant-game","0","17","402217","0-0","","200","120","4","CORN CROP","Right","200","120","8","NETTLE WEED","practice","8","1,2,3,4,5,6,7,8","120,118.13221037307756,107.80946045501528,121.27704402501432,106.1975993159331,46.1678789534601,44.122325229649775,52.21494343621109","8,7,6,5,4,3,2,1","NETTLE WEED,NETTLE WEED,NETTLE WEED,NETTLE WEED,NETTLE WEED,NETTLE WEED,NETTLE WEED,NETTLE WEED","120,133.01090728192108,126.78872400475265,172.382145786438,160,135.65266455027688,122.04575400705754,127.5854654614898","4,3,2,1,4,3,2,1","CORN CROP,CORN CROP,CORN CROP,CORN CROP,WHEAT CROP,WHEAT CROP,WHEAT CROP,WHEAT CROP","0,0,0,0,0,0,0,0","20,20,20,20,20,20,20,20","10,10,10,10,10,10,10,10","20,20,20,20,20,20,20,20","20,20,20,20,20,20,20,20","20,20,20,20,20,20,20,20","0,0,0,0,0,0,0,0","20,20,20,20,20,20,20,20","10,10,10,10,10,10,10,10","20,20,20,20,20,20,20,20","20,20,20,20,20,20,20,20","20,20,20,20,20,20,20,20","0,0,0,0,0,0,0,0","7190,1623,924,1278,4857,730,853,609","-1.86778962692245,-10.322749918062279,13.467583569999036,-15.079444709081214,-60.02972036247301,-2.0455537238103254,8.092618206561312,4.022708879519412","13.010907281921082,-6.222183277168432,45.59342178168535,4.986345193025885,-24.347335449723104,-13.606910543219348,5.539711454432263,13.580201972446115","0","0"
"721","86","text","0","18","403063","0-0","","","","","","","","","","","","","","","","","","","","","","","","","","","","","","","","","","","","",""
"","","plant-game","0","19","433160","0-0","","200","160","4","WHEAT CROP","Left","200","160","2","THISTLE WEED","practice","9","1,2,3,4","160,167.75673192845275,176.04035709664942,184.07286869338125","4,3,2,1","WHEAT CROP,WHEAT CROP,WHEAT CROP,WHEAT CROP","160,182.41978785439767,180,204.15168387789774","2,1,2,1","THISTLE WEED,THISTLE WEED,NETTLE WEED,NETTLE WEED","20,20,20,20","20,20,20,20","10,10,10,10","20,20,20,20","0,0,0,0","20,20,20,20","20,20,20,20","20,20,20,20","10,10,10,10","20,20,20,20","0,0,0,0","20,20,20,20","0,1,0,0","6981,1754,6249,984","7.75673192845275,8.283625168196663,8.032511596731833,14.769524833339162","22.419787854397658,-2.5609037429934878,24.151683877897746,34.8639478894386","0","0"
"654","86","text","0","20","433924","0-0","","","","","","","","","","","","","","","","","","","","","","","","","","","","","","","","","","","","",""
"","","plant-game","0","21","467671","0-0","","200","180","2","WHEAT CROP","Left","200","180","1","THISTLE WEED","practice","10","1,2","180,168.73316463560082","2,1","WHEAT CROP,WHEAT CROP","180,190","1,1","THISTLE WEED,NETTLE WEED","20,20","20,20","10,10","20,20","0,0","20,20","20,20","20,20","10,10","20,20","0,0","20,20","1,1","10861,4461","-11.26683536439919,19.86739998843045","9.727878993793754,7.866178749731808","0","0"
"730","86","text","0","22","468542","0-0","","","","","","","","","","","","","","","","","","","","","","","","","","","","","","","","","","","","",""
"","","plant-game","0","23","512201","0-0","","200","120","8","CORN CROP","Right","200","160","4","NETTLE WEED","practice","11","1,2,3,4,5,6,7,8","160,185.24069698324445,183.17917996049707,187.25071391829377,160,171.6573259598342,154.75723459052026,171.65241150230435","4,3,2,1,4,3,2,1","NETTLE WEED,NETTLE WEED,NETTLE WEED,NETTLE WEED,THISTLE WEED,THISTLE WEED,THISTLE WEED,THISTLE WEED","120,134.67682159785676,138.89251707729107,147.75080020136537,156.36860422145094,160.70472221145022,167.18510323361508,112.78949776137995","8,7,6,5,4,3,2,1","CORN CROP,CORN CROP,CORN CROP,CORN CROP,CORN CROP,CORN CROP,CORN CROP,CORN CROP","0,0,0,0,0,0,0,0","20,20,20,20,20,20,20,20","10,10,10,10,10,10,10,10","20,20,20,20,20,20,20,20","20,20,20,20,20,20,20,20","20,20,20,20,20,20,20,20","0,0,0,0,0,0,0,0","20,20,20,20,20,20,20,20","10,10,10,10,10,10,10,10","20,20,20,20,20,20,20,20","20,20,20,20,20,20,20,20","20,20,20,20,20,20,20,20","0,0,0,0,0,0,0,0","7762,1944,3300,1861,1617,787,722,3364","25.24069698324446,-2.061517022747372,4.071533957796693,10.77228358636619,11.657325959834202,-16.900091369313937,16.895176911784088,2.9280286216907516","14.676821597856753,4.215695479434328,8.858283124074294,8.617804020085567,4.336117989999283,6.4803810221648614,-54.39560547223514,-25.71920846946891","0","0"
"809","86","text","0","24","513135","0-0","","","","","","","","","","","","","","","","","","","","","","","","","","","","","","","","","","","","",""
"","","plant-game","0","25","536119","0-0","","200","180","2","WHEAT CROP","Right","200","160","4","THISTLE WEED","practice","12","1,2,3,4","160,199.69640356666753,205.66452376370577,193.5259834643282","4,3,2,1","THISTLE WEED,THISTLE WEED,THISTLE WEED,THISTLE WEED","180,200.8838706238721,180,173.76856485759814","2,1,2,1","WHEAT CROP,WHEAT CROP,CORN CROP,CORN CROP","0,0,0,0","20,20,20,20","10,10,10,10","20,20,20,20","20,20,20,20","20,20,20,20","0,0,0,0","20,20,20,20","10,10,10,10","20,20,20,20","20,20,20,20","20,20,20,20","1,0,0,1","4785,2367,2044,1535","39.69640356666754,5.968120197038233,-12.138540299377567,42.36964010183972","20.88387062387209,-3.1925956625542415,-6.231435142401861,-27.565367002335954","0","0"
"156","86","text","0","26","536402","0-0","","","","","","","","","","","","","","","","","","","","","","","","","","","","","","","","","","","","",""
"8789","86","text","0","27","546275","0-0","","","","","","","","","","","","","","","","","","","","","","","","","","","","","","","","","","","","",""
"","","plant-game","0","28","576839","0-0","","200","180","2","CORN CROP","Right","200","120","8","NETTLE WEED","experimental","1","1,2,3,4,5,6,7,8","120,125.53702455448362,132.09830962450275,165.60259531423512,192.352312647859,206.49982591090725,226.5060868476017,195.2345389305574","8,7,6,5,4,3,2,1","NETTLE WEED,NETTLE WEED,NETTLE WEED,NETTLE WEED,NETTLE WEED,NETTLE WEED,NETTLE WEED,NETTLE WEED","180,158.36777820342445,140,169.1361221810723,166.40464070309832,186.7898559573187,217.35283028536617,211.0776539101959","2,1,6,5,4,3,2,1","CORN CROP,CORN CROP,WHEAT CROP,WHEAT CROP,WHEAT CROP,WHEAT CROP,WHEAT CROP,WHEAT CROP","0,0,0,0,0,0,0,0","20,20,20,20,20,20,20,20","10,10,10,10,10,10,10,10","20,20,20,20,20,20,20,20","20,20,20,20,20,20,20,20","20,20,20,20,20,20,20,20","0,0,0,0,0,0,0,0","20,20,20,20,20,20,20,20","10,10,10,10,10,10,10,10","20,20,20,20,20,20,20,20","20,20,20,20,20,20,20,20","20,20,20,20,20,20,20,20","1,1,1,1,1,1,0,1","8266,2211,3944,649,961,1220,961,2117","5.537024554483628,6.561285070019114,33.50428568973237,26.749717333623888,14.147513263048248,20.006260936694435,-31.271547917044316,13.021742165569357","-21.632221796575564,18.752028196753642,29.136122181072285,-2.7314814779739613,20.385215254220377,30.56297432804747,-6.275176375170272,-16.131833155801047","0","0"
"2440","86","text","0","29","579439","0-0","","","","","","","","","","","","","","","","","","","","","","","","","","","","","","","","","","","","",""
"","","plant-game","0","30","597094","0-0","","200","190","4","WHEAT CROP","Right","200","190","2","NETTLE WEED","experimental","2","1,2,3,4","190,194.68785548350846,180,165.19124869621675","2,1,2,1","NETTLE WEED,NETTLE WEED,THISTLE WEED,THISTLE WEED","190,170.25267381128623,210.99608349485075,236.87642654097294","4,3,2,1","WHEAT CROP,WHEAT CROP,WHEAT CROP,WHEAT CROP","0,0,0,0","20,20,20,20","10,10,10,10","20,20,20,20","20,20,20,20","20,20,20,20","0,0,0,0","20,20,20,20","10,10,10,10","20,20,20,20","20,20,20,20","20,20,20,20","0,0,1,0","4503,520,975,2095","4.6878554835084545,-12.620964080781068,-14.808751303783247,-8.651197793489512","-19.74732618871378,40.74340968356453,25.880343046122196,7.264646490386902","0","0"
"641","86","text","0","31","597875","0-0","","","","","","","","","","","","","","","","","","","","","","","","","","","","","","","","","","","","",""
"","","plant-game","0","32","612781","0-0","","200","180","4","CORN CROP","Right","200","180","2","THISTLE WEED","experimental","3","1,2,3,4","180,179.94078691356592,180,223.14188041334506","2,1,2,1","THISTLE WEED,THISTLE WEED,NETTLE WEED,NETTLE WEED","180,175.96270992138108,180.57663265475742,193.49129952546025","4,3,2,1","CORN CROP,CORN CROP,CORN CROP,CORN CROP","0,0,0,0","20,20,20,20","10,10,10,10","20,20,20,20","20,20,20,20","20,20,20,20","0,0,0,0","20,20,20,20","10,10,10,10","20,20,20,20","20,20,20,20","20,20,20,20","0,0,1,0","2618,895,2327,828","-0.05921308643408195,-0.43130533848395913,43.14188041334507,-14.019854369191084","-4.037290078618923,4.613922733376333,12.914666870702835,1.3084700053775802","0","0"
"483","86","text","0","33","613414","0-0","","","","","","","","","","","","","","","","","","","","","","","","","","","","","","","","","","","","",""
"","","plant-game","0","34","631847","0-0","","200","190","8","CORN CROP","Right","200","190","4","NETTLE WEED","experimental","4","1,2,3,4,5,6,7,8","190,189.07401906104133,184.17309543304378,230.54273866015404,160,160.56261746587947,154.0067295637324,178.9328501753141","4,3,2,1,4,3,2,1","NETTLE WEED,NETTLE WEED,NETTLE WEED,NETTLE WEED,THISTLE WEED,THISTLE WEED,THISTLE WEED,THISTLE WEED","190,194.72972458674056,218.0697123441526,242.6190206605193,243.86707961676183,272.5176738835949,281.8893509678918,310.36864943271047","8,7,6,5,4,3,2,1","CORN CROP,CORN CROP,CORN CROP,CORN CROP,CORN CROP,CORN CROP,CORN CROP,CORN CROP","0,0,0,0,0,0,0,0","20,20,20,20,20,20,20,20","10,10,10,10,10,10,10,10","20,20,20,20,20,20,20,20","20,20,20,20,20,20,20,20","20,20,20,20,20,20,20,20","0,0,0,0,0,0,0,0","20,20,20,20,20,20,20,20","10,10,10,10,10,10,10,10","20,20,20,20,20,20,20,20","20,20,20,20,20,20,20,20","20,20,20,20,20,20,20,20","0,0,0,0,1,1,1,1","1992,328,459,525,2254,628,752,979","-0.9259809389586683,-4.9009236279975426,46.36964322711027,-38.32277471472041,0.5626174658794767,-6.5558879021470915,24.926120611581684,13.047432209411582","4.7297245867405575,23.339987757412047,24.549308316366695,1.2480589562425273,28.650594266833064,9.37167708429688,28.479298464818662,-4.394812685426395","0","0"
"632","86","text","0","35","632629","0-0","","","","","","","","","","","","","","","","","","","","","","","","","","","","","","","","","","","","",""
"","","plant-game","0","36","650804","0-0","","200","190","8","CORN CROP","Right","200","120","2","NETTLE WEED","experimental","5","1,2,3,4,5,6,7,8","120,95.17539496439441,140,151.6645620618085,167.5856091174661,165.60583739935765,144.8705135095787,167.27985470260666","2,1,6,5,4,3,2,1","NETTLE WEED,NETTLE WEED,THISTLE WEED,THISTLE WEED,THISTLE WEED,THISTLE WEED,THISTLE WEED,THISTLE WEED","190,235.41281055897215,222.7899138146003,232.2825155022135,270.3758228868118,292.97945672250904,284.5301597826382,310.97966508032863","8,7,6,5,4,3,2,1","CORN CROP,CORN CROP,CORN CROP,CORN CROP,CORN CROP,CORN CROP,CORN CROP,CORN CROP","0,0,0,0,0,0,0,0","20,20,20,20,20,20,20,20","10,10,10,10,10,10,10,10","20,20,20,20,20,20,20,20","20,20,20,20,20,20,20,20","20,20,20,20,20,20,20,20","0,0,0,0,0,0,0,0","20,20,20,20,20,20,20,20","10,10,10,10,10,10,10,10","20,20,20,20,20,20,20,20","20,20,20,20,20,20,20,20","20,20,20,20,20,20,20,20","1,1,1,1,1,1,1,1","1872,485,928,545,510,562,552,609","-24.824605035605586,40.272164337152745,11.664562061808521,15.921047055657596,-1.979771718108445,-20.735323889778947,22.40934119302796,-1.5941568275438556","45.41281055897216,-12.622896744371836,9.492601687613188,38.09330738459834,22.603633835697217,-8.44929693987089,26.44950529769045,-22.11603395304821","0","0"
"654","86","text","0","37","651558","0-0","","","","","","","","","","","","","","","","","","","","","","","","","","","","","","","","","","","","",""
"","","plant-game","0","38","666679","0-0","","200","120","1","WHEAT CROP","Right","200","160","2","THISTLE WEED","experimental","6","1,2","160,136.973067636287","2,1","THISTLE WEED,THISTLE WEED","120,190","1,1","WHEAT CROP,CORN CROP","0,0","20,20","10,10","20,20","20,20","20,20","0,0","20,20","10,10","20,20","20,20","20,20","1,1","7918,1257","-23.026932363713,5.505142796803915","-12.268986759477144,28.313632263514364","0","0"
"241","86","text","0","39","667090","0-0","","","","","","","","","","","","","","","","","","","","","","","","","","","","","","","","","","","","",""
"","","plant-game","0","40","679096","0-0","","200","160","1","WHEAT CROP","Right","200","120","2","THISTLE WEED","experimental","7","1,2","120,112.6824221372024","2,1","THISTLE WEED,THISTLE WEED","160,190","1,1","WHEAT CROP,CORN CROP","0,0","20,20","10,10","20,20","20,20","20,20","0,0","20,20","10,10","20,20","20,20","20,20","1,1","1460,2258","-7.317577862797599,-2.4576316327084626","37.756527285889106,10.274586824572644","0","0"
"450","86","text","0","41","679706","0-0","","","","","","","","","","","","","","","","","","","","","","","","","","","","","","","","","","","","",""
"","","plant-game","0","42","690837","0-0","","200","120","2","CORN CROP","Right","200","190","2","THISTLE WEED","experimental","8","1,2","190,188.3936221279655","2,1","THISTLE WEED,THISTLE WEED","120,118.43678018071614","2,1","CORN CROP,CORN CROP","0,0","20,20","10,10","20,20","20,20","20,20","0,0","20,20","10,10","20,20","20,20","20,20","1,1","1895,1044","-1.6063778720344857,49.43600130119182","-1.5632198192838587,10.896919779165913","0","0"
"770","86","text","0","43","691737","0-0","","","","","","","","","","","","","","","","","","","","","","","","","","","","","","","","","","","","",""
"","","plant-game","0","44","710322","0-0","","200","120","8","CORN CROP","Right","200","180","1","THISTLE WEED","experimental","9","1,2,3,4,5,6,7,8","180,130,155.4965918228081,144.36440509996743,147.20205002996786,147.98605781190656,177.6256164673016,174.41321689745814","1,7,6,5,4,3,2,1","THISTLE WEED,NETTLE WEED,NETTLE WEED,NETTLE WEED,NETTLE WEED,NETTLE WEED,NETTLE WEED,NETTLE WEED","120,139.94281292328853,154.547331151606,165.08070525655364,143.2859964653405,139.09871100681877,159.42251308251224,186.32815324464585","8,7,6,5,4,3,2,1","CORN CROP,CORN CROP,CORN CROP,CORN CROP,CORN CROP,CORN CROP,CORN CROP,CORN CROP","0,0,0,0,0,0,0,0","20,20,20,20,20,20,20,20","10,10,10,10,10,10,10,10","20,20,20,20,20,20,20,20","20,20,20,20,20,20,20,20","20,20,20,20,20,20,20,20","0,0,0,0,0,0,0,0","20,20,20,20,20,20,20,20","10,10,10,10,10,10,10,10","20,20,20,20,20,20,20,20","20,20,20,20,20,20,20,20","20,20,20,20,20,20,20,20","1,1,1,1,1,1,1,1","2330,555,420,424,451,461,1297,773","2.1999764063264173,25.4965918228081,-11.132186722840693,2.8376449300004367,0.7840077819386906,29.639558655395035,-3.212399569843459,9.477953352880252","19.942812923288535,14.604518228317453,10.533374104947658,-21.794708791213147,-4.187285458521725,20.32380207569347,26.9056401621336,-1.5538350805353751","0","0"
"627","86","text","0","45","711105","0-0","","","","","","","","","","","","","","","","","","","","","","","","","","","","","","","","","","","","",""
"","","plant-game","0","46","734539","0-0","","200","120","8","WHEAT CROP","Left","200","120","4","THISTLE WEED","experimental","10","1,2,3,4,5,6,7,8","120,122.71404564537016,116.65144735589473,132.13808567295652,154.14310593399793,167.4370161404779,221.90891017295183,222.95574087851946","8,7,6,5,4,3,2,1","WHEAT CROP,WHEAT CROP,WHEAT CROP,WHEAT CROP,WHEAT CROP,WHEAT CROP,WHEAT CROP,WHEAT CROP","120,158.21524096948303,191.330821296538,214.20068073286345,160,164.65879093237635,224.0785588568472,235.1491177596304","4,3,2,1,4,3,2,1","THISTLE WEED,THISTLE WEED,THISTLE WEED,THISTLE WEED,NETTLE WEED,NETTLE WEED,NETTLE WEED,NETTLE WEED","20,20,20,20,20,20,20,20","20,20,20,20,20,20,20,20","10,10,10,10,10,10,10,10","20,20,20,20,20,20,20,20","0,0,0,0,0,0,0,0","20,20,20,20,20,20,20,20","20,20,20,20,20,20,20,20","20,20,20,20,20,20,20,20","10,10,10,10,10,10,10,10","20,20,20,20,20,20,20,20","0,0,0,0,0,0,0,0","20,20,20,20,20,20,20,20","0,0,0,1,0,0,1,0","4776,288,287,2715,2872,399,2126,2189","2.7140456453701702,-6.062598289475428,15.486638317061793,22.0050202610414,13.293910206479985,54.47189403247393,1.0468307055676416,26.26441608454072","38.21524096948302,33.11558032705498,22.86985943632543,-9.85013253028583,4.658790932376336,59.41976792447084,11.070558902783198,18.70081651020677","1","0"
"654","86","text","0","47","735333","0-0","","","","","","","","","","","","","","","","","","","","","","","","","","","","","","","","","","","","",""
"","","plant-game","0","48","763541","0-0","","200","160","2","CORN CROP","Right","200","120","8","THISTLE WEED","experimental","11","1,2,3,4,5,6,7,8","120,119.25273701594988,129.85238358866533,134.54730679883127,152.24770277595385,199.71040493079173,228.9692568403396,255.72524352498647","8,7,6,5,4,3,2,1","THISTLE WEED,THISTLE WEED,THISTLE WEED,THISTLE WEED,THISTLE WEED,THISTLE WEED,THISTLE WEED,THISTLE WEED","160,190.7651983558669,140,141.88277689666123,166.23720081335864,216.319874734456,227.57493447521534,242.93234560058914","2,1,6,5,4,3,2,1","CORN CROP,CORN CROP,WHEAT CROP,WHEAT CROP,WHEAT CROP,WHEAT CROP,WHEAT CROP,WHEAT CROP","0,0,0,0,0,0,0,0","20,20,20,20,20,20,20,20","10,10,10,10,10,10,10,10","20,20,20,20,20,20,20,20","20,20,20,20,20,20,20,20","20,20,20,20,20,20,20,20","0,0,0,0,0,0,0,0","20,20,20,20,20,20,20,20","10,10,10,10,10,10,10,10","20,20,20,20,20,20,20,20","20,20,20,20,20,20,20,20","20,20,20,20,20,20,20,20","1,1,0,1,1,1,1,0","4536,698,6347,1176,1251,2495,1375,875","-0.7472629840501241,10.599646572715466,4.694923210165933,17.70039597712259,47.46270215483787,29.25885190954786,26.755986684646885,3.935479902538681","30.765198355866893,44.42313112671708,1.8827768966612368,24.3544239166974,50.08267392109734,11.255059740759355,15.357411125373794,-32.94295511900361","0","0"
"624","86","text","0","49","764325","0-0","","","","","","","","","","","","","","","","","","","","","","","","","","","","","","","","","","","","",""
"","","plant-game","0","50","769443","0-0","","200","190","1","CORN CROP","Right","200","180","1","THISTLE WEED","experimental","12","1","180","1","THISTLE WEED","190","1","CORN CROP","0","20","10","20","20","20","0","20","10","20","20","20","1","501","-6.06486994152619","-32.58844540776362","0","0"
"657","86","text","0","51","770270","0-0","","","","","","","","","","","","","","","","","","","","","","","","","","","","","","","","","","","","",""
"","","plant-game","0","52","783521","0-0","","200","160","8","WHEAT CROP","Left","200","160","8","NETTLE WEED","experimental","13","1,2,3,4,5,6,7,8","160,127.84372229570783,163.89228400651086,152.34372559474036,162.3038583656454,146.68209395421667,121.35469038242987,99.57333076284507","8,7,6,5,4,3,2,1","WHEAT CROP,WHEAT CROP,WHEAT CROP,WHEAT CROP,WHEAT CROP,WHEAT CROP,WHEAT CROP,WHEAT CROP","160,141.90206306404752,140.19604615751945,117.15380929367969,120.63350462897199,103.81750966692188,98.18247350002137,118.64601487928888","8,7,6,5,4,3,2,1","NETTLE WEED,NETTLE WEED,NETTLE WEED,NETTLE WEED,NETTLE WEED,NETTLE WEED,NETTLE WEED,NETTLE WEED","20,20,20,20,20,20,20,20","20,20,20,20,20,20,20,20","10,10,10,10,10,10,10,10","20,20,20,20,20,20,20,20","0,0,0,0,0,0,0,0","20,20,20,20,20,20,20,20","20,20,20,20,20,20,20,20","20,20,20,20,20,20,20,20","10,10,10,10,10,10,10,10","20,20,20,20,20,20,20,20","0,0,0,0,0,0,0,0","20,20,20,20,20,20,20,20","1,1,1,1,1,1,1,0","2289,711,766,699,705,801,662,1046","-32.15627770429217,36.04856171080304,-11.54855841177049,9.960132770905037,-15.621764411428726,-25.327403571786803,-21.781359619584787,3.8897462454950222","-18.09793693595249,-1.7060169065280728,-23.04223686383976,3.479695335292308,-16.815994962050112,-5.635036166900502,20.46354137926751,17.902118111598064","0","0"
"579","86","text","0","53","784209","0-0","","","","","","","","","","","","","","","","","","","","","","","","","","","","","","","","","","","","",""
"","","plant-game","0","54","798881","0-0","","200","180","4","WHEAT CROP","Left","200","190","4","NETTLE WEED","experimental","14","1,2,3,4","180,203.71230632030932,190.8124190875289,235.54185876378585","4,3,2,1","WHEAT CROP,WHEAT CROP,WHEAT CROP,WHEAT CROP","190,222.0427258968284,214.20229963508018,257.3135533532417","4,3,2,1","NETTLE WEED,NETTLE WEED,NETTLE WEED,NETTLE WEED","20,20,20,20","20,20,20,20","10,10,10,10","20,20,20,20","0,0,0,0","20,20,20,20","20,20,20,20","20,20,20,20","10,10,10,10","20,20,20,20","0,0,0,0","20,20,20,20","0,1,0,0","1955,4922,1107,2444","23.71230632030932,-12.899887232780427,44.72943967625697,32.51787203285886","32.04272589682839,-7.840426261748218,43.11125371816151,25.74120002406336","0","0"
"579","86","text","0","55","799610","0-0","","","","","","","","","","","","","","","","","","","","","","","","","","","","","","","","","","","","",""
"","","plant-game","0","56","809635","0-0","","200","120","4","CORN CROP","Left","200","190","2","NETTLE WEED","experimental","15","1,2,3,4","120,132.1434839429028,142.75014394511288,148.22368538336917","4,3,2,1","CORN CROP,CORN CROP,CORN CROP,CORN CROP","190,225.63587345127127,180,173.2601381862481","2,1,2,1","NETTLE WEED,NETTLE WEED,THISTLE WEED,THISTLE WEED","20,20,20,20","20,20,20,20","10,10,10,10","20,20,20,20","0,0,0,0","20,20,20,20","20,20,20,20","20,20,20,20","10,10,10,10","20,20,20,20","0,0,0,0","20,20,20,20","0,0,1,1","2941,632,808,603","12.143483942902797,10.606660002210077,5.4735414382562775,-23.28057860282557","35.63587345127126,-8.788379538761117,-6.739861813751893,57.744371801125034","0","0"
"596","86","text","0","57","810371","0-0","","","","","","","","","","","","","","","","","","","","","","","","","","","","","","","","","","","","",""
"","","plant-game","0","58","822895","0-0","","200","180","8","WHEAT CROP","Left","200","120","8","NETTLE WEED","experimental","16","1,2,3,4,5,6,7,8","180,180.35607156597595,171.45073652869198,178.37789525495188,204.4023522016413,247.02027445221336,231.19085071489934,238.68452737333774","8,7,6,5,4,3,2,1","WHEAT CROP,WHEAT CROP,WHEAT CROP,WHEAT CROP,WHEAT CROP,WHEAT CROP,WHEAT CROP,WHEAT CROP","120,111.11129622035891,120.92389365894182,143.41612033034127,192.61355100005164,180.36006023433256,176.4820650651795,175.39746762318748","8,7,6,5,4,3,2,1","NETTLE WEED,NETTLE WEED,NETTLE WEED,NETTLE WEED,NETTLE WEED,NETTLE WEED,NETTLE WEED,NETTLE WEED","20,20,20,20,20,20,20,20","20,20,20,20,20,20,20,20","10,10,10,10,10,10,10,10","20,20,20,20,20,20,20,20","0,0,0,0,0,0,0,0","20,20,20,20,20,20,20,20","20,20,20,20,20,20,20,20","20,20,20,20,20,20,20,20","10,10,10,10,10,10,10,10","20,20,20,20,20,20,20,20","0,0,0,0,0,0,0,0","20,20,20,20,20,20,20,20","1,1,0,0,1,1,1,0","504,653,1384,369,1642,810,964,1180","0.356071565975962,-8.905335037283976,6.927158726259906,26.02445694668942,42.61792225057205,-15.82942373731403,7.493676658438395,7.390087317668602","-8.888703779641094,9.812597438582907,22.49222667139944,49.197430669710386,-12.253490765719075,-3.877995169153065,-1.0845974419920197,20.976842076596313","0","0"
"2317","86","text","0","59","825342","0-0","","","","","","","","","","","","","","","","","","","","","","","","","","","","","","","","","","","","",""
"","","plant-game","0","60","840275","0-0","","200","120","4","WHEAT CROP","Right","200","180","2","THISTLE WEED","experimental","17","1,2,3,4","180,172.70657989754625,180,173.44745624220795","2,1,2,1","THISTLE WEED,THISTLE WEED,NETTLE WEED,NETTLE WEED","120,95.70034063076056,94.65698732206084,62.45793404782236","4,3,2,1","WHEAT CROP,WHEAT CROP,WHEAT CROP,WHEAT CROP","0,0,0,0","20,20,20,20","10,10,10,10","20,20,20,20","20,20,20,20","20,20,20,20","0,0,0,0","20,20,20,20","10,10,10,10","20,20,20,20","20,20,20,20","20,20,20,20","0,0,1,1","953,1052,3561,2312","-7.293420102453765,-28.73848500588707,-6.552543757792058,3.006924489153736","-24.299659369239436,-1.0433533086997173,-32.19905327423848,10.782951489833545","0","0"
"2117","86","text","0","61","842564","0-0","","","","","","","","","","","","","","","","","","","","","","","","","","","","","","","","","","","","",""
"","","plant-game","0","62","864808","0-0","","200","160","4","WHEAT CROP","Left","200","160","2","THISTLE WEED","experimental","18","1,2,3,4","160,234.58490995969,284.6251771751531,311.68361719478963","4,3,2,1","WHEAT CROP,WHEAT CROP,WHEAT CROP,WHEAT CROP","160,159.61809975752453,180,210.03691100861548","2,1,2,1","THISTLE WEED,THISTLE WEED,NETTLE WEED,NETTLE WEED","20,20,20,20","20,20,20,20","10,10,10,10","20,20,20,20","0,0,0,0","20,20,20,20","20,20,20,20","20,20,20,20","10,10,10,10","20,20,20,20","0,0,0,0","20,20,20,20","0,0,0,1","6214,3475,1211,4287","74.58490995969001,50.04026721546309,27.058440019636507,-17.79826409856806","-0.38190024247547427,8.152898589738145,30.036911008615473,-11.983513469919115","0","0"
"742","86","text","0","63","865690","0-0","","","","","","","","","","","","","","","","","","","","","","","","","","","","","","","","","","","","",""
"","","plant-game","0","64","877224","0-0","","200","190","2","CORN CROP","Right","200","190","4","THISTLE WEED","experimental","19","1,2,3,4","190,155.66501858856026,173.59536329796862,147.71300485799435","4,3,2,1","THISTLE WEED,THISTLE WEED,THISTLE WEED,THISTLE WEED","190,155.8567885218493,180,200.40150495679887","2,1,2,1","CORN CROP,CORN CROP,WHEAT CROP,WHEAT CROP","0,0,0,0","20,20,20,20","10,10,10,10","20,20,20,20","20,20,20,20","20,20,20,20","0,0,0,0","20,20,20,20","10,10,10,10","20,20,20,20","20,20,20,20","20,20,20,20","0,1,1,1","3194,772,845,1323","-34.33498141143973,17.930344709408352,-25.882358439974276,-2.8066486145805385","-34.14321147815069,24.70790296258484,20.40150495679886,31.6443886603153","0","0"
"173","86","text","0","65","877536","0-0","","","","","","","","","","","","","","","","","","","","","","","","","","","","","","","","","","","","",""
"","","plant-game","0","66","891495","0-0","","200","160","8","WHEAT CROP","Right","200","160","2","NETTLE WEED","experimental","20","1,2,3,4,5,6,7,8","160,192.75592756805145,140,173.43516595600659,222.95835524954606,221.75133363114318,243.32274371648023,224.94140885131702","2,1,6,5,4,3,2,1","NETTLE WEED,NETTLE WEED,THISTLE WEED,THISTLE WEED,THISTLE WEED,THISTLE WEED,THISTLE WEED,THISTLE WEED","160,166.35406734942092,174.38433865003364,209.2893380972912,181.6269978698565,150.55926788837485,149.8583598355605,135.91626814890108","8,7,6,5,4,3,2,1","WHEAT CROP,WHEAT CROP,WHEAT CROP,WHEAT CROP,WHEAT CROP,WHEAT CROP,WHEAT CROP,WHEAT CROP","0,0,0,0,0,0,0,0","20,20,20,20,20,20,20,20","10,10,10,10,10,10,10,10","20,20,20,20,20,20,20,20","20,20,20,20,20,20,20,20","20,20,20,20,20,20,20,20","0,0,0,0,0,0,0,0","20,20,20,20,20,20,20,20","10,10,10,10,10,10,10,10","20,20,20,20,20,20,20,20","20,20,20,20,20,20,20,20","20,20,20,20,20,20,20,20","1,1,1,1,0,0,0,1","983,454,1343,660,1052,210,571,1430","32.755927568051455,40.08681537834596,33.43516595600659,49.52318929353948,-1.2070216184028715,21.57141008533706,-18.38133486516321,63.616110014767514","6.354067349420919,8.030271300612725,34.90499944725754,-27.662340227434697,-31.067729981481634,-0.7009080528143639,-13.94209168665942,54.0158793602099","0","0"
"207","86","text","0","67","891862","0-0","","","","","","","","","","","","","","","","","","","","","","","","","","","","","","","","","","","","",""
"","","plant-game","0","68","906940","0-0","","200","160","4","CORN CROP","Left","200","190","1","NETTLE WEED","experimental","21","1,2,3,4","160,164.13459984696343,164.58221808463176,164.29385362039878","4,3,2,1","CORN CROP,CORN CROP,CORN CROP,CORN CROP","190,170,163.77352031787066,204.7870811901572","1,3,2,1","NETTLE WEED,THISTLE WEED,THISTLE WEED,THISTLE WEED","20,20,20,20","20,20,20,20","10,10,10,10","20,20,20,20","0,0,0,0","20,20,20,20","20,20,20,20","20,20,20,20","10,10,10,10","20,20,20,20","0,0,0,0","20,20,20,20","1,1,0,1","913,5646,1331,713","4.134599846963434,0.4476182376683494,-0.288364464232977,34.504024488452515","21.778506304291838,-6.22647968212933,41.01356087228654,1.4791085643046111","0","0"
"627","86","text","0","69","907708","0-0","","","","","","","","","","","","","","","","","","","","","","","","","","","","","","","","","","","","",""
"","","plant-game","0","70","922053","0-0","","200","160","8","WHEAT CROP","Right","200","180","8","THISTLE WEED","experimental","22","1,2,3,4,5,6,7,8","180,200.31964058955185,162.21230829334536,195.4645669287532,211.57926041953198,232.92545544528042,299.4667450223659,292.9879457573741","8,7,6,5,4,3,2,1","THISTLE WEED,THISTLE WEED,THISTLE WEED,THISTLE WEED,THISTLE WEED,THISTLE WEED,THISTLE WEED,THISTLE WEED","160,172.26424912051112,203.54355454444223,198.05202348488137,224.7400810305886,256.4290250578574,274.0058195774412,309.2091482752958","8,7,6,5,4,3,2,1","WHEAT CROP,WHEAT CROP,WHEAT CROP,WHEAT CROP,WHEAT CROP,WHEAT CROP,WHEAT CROP,WHEAT CROP","0,0,0,0,0,0,0,0","20,20,20,20,20,20,20,20","10,10,10,10,10,10,10,10","20,20,20,20,20,20,20,20","20,20,20,20,20,20,20,20","20,20,20,20,20,20,20,20","0,0,0,0,0,0,0,0","20,20,20,20,20,20,20,20","10,10,10,10,10,10,10,10","20,20,20,20,20,20,20,20","20,20,20,20,20,20,20,20","20,20,20,20,20,20,20,20","1,1,1,1,1,1,0,0","890,1217,896,981,1639,846,2756,309","20.319640589551856,-38.10733229620648,33.25225863540781,16.11469349077879,21.346195025748457,66.5412895770855,-6.478799264991783,8.25912940025918","12.26424912051112,31.279305423931103,-5.49153105956087,26.688057545707224,31.688944027268786,17.57679451958378,35.2033286978546,-7.146363152586918","0","0"
"826","86","text","0","71","923079","0-0","","","","","","","","","","","","","","","","","","","","","","","","","","","","","","","","","","","","",""
"","","plant-game","0","72","938612","0-0","","200","190","1","WHEAT CROP","Left","200","180","8","NETTLE WEED","experimental","23","1,2,3,4,5,6,7,8","190,130,141.35645796776072,133.45045442300258,154.24467137366352,163.01860337969555,201.52424462221288,149.11293171805372","1,7,6,5,4,3,2,1","WHEAT CROP,CORN CROP,CORN CROP,CORN CROP,CORN CROP,CORN CROP,CORN CROP,CORN CROP","180,198.95087306473363,228.80487052124698,287.32003906011926,314.1304760813853,348.0977563702757,366.9320153810039,355.22221694627297","8,7,6,5,4,3,2,1","NETTLE WEED,NETTLE WEED,NETTLE WEED,NETTLE WEED,NETTLE WEED,NETTLE WEED,NETTLE WEED,NETTLE WEED","20,20,20,20,20,20,20,20","20,20,20,20,20,20,20,20","10,10,10,10,10,10,10,10","20,20,20,20,20,20,20,20","0,0,0,0,0,0,0,0","20,20,20,20,20,20,20,20","20,20,20,20,20,20,20,20","20,20,20,20,20,20,20,20","10,10,10,10,10,10,10,10","20,20,20,20,20,20,20,20","0,0,0,0,0,0,0,0","20,20,20,20,20,20,20,20","1,0,0,0,0,0,1,1","839,1325,843,387,328,410,2813,522","-6.229220769907785,11.35645796776071,-7.906003544758136,20.794216950660942,8.773932006032041,38.505641242517335,-52.41131290415915,-38.26162527871333","18.950873064733617,29.85399745651334,58.51516853887225,26.810437021266047,33.9672802888904,18.8342590107282,-11.709798434730947,19.76006403906284","0","0"
"614","86","text","0","73","939386","0-0","","","","","","","","","","","","","","","","","","","","","","","","","","","","","","","","","","","","",""
"","","plant-game","0","74","955773","0-0","","200","120","1","CORN CROP","Right","200","180","8","THISTLE WEED","experimental","24","1,2,3,4,5,6,7,8","180,225.76617536937613,239.89988231542318,277.68066616267964,321.27682287394384,344.0129631731787,382.1658027753922,403.7674337331754","8,7,6,5,4,3,2,1","THISTLE WEED,THISTLE WEED,THISTLE WEED,THISTLE WEED,THISTLE WEED,THISTLE WEED,THISTLE WEED,THISTLE WEED","120,130,160.44637838425604,190.46040532200834,200.3271389919575,213.15018778023523,256.0076479638964,249.47697296281055","1,7,6,5,4,3,2,1","CORN CROP,WHEAT CROP,WHEAT CROP,WHEAT CROP,WHEAT CROP,WHEAT CROP,WHEAT CROP,WHEAT CROP","0,0,0,0,0,0,0,0","20,20,20,20,20,20,20,20","10,10,10,10,10,10,10,10","20,20,20,20,20,20,20,20","20,20,20,20,20,20,20,20","20,20,20,20,20,20,20,20","0,0,0,0,0,0,0,0","20,20,20,20,20,20,20,20","10,10,10,10,10,10,10,10","20,20,20,20,20,20,20,20","20,20,20,20,20,20,20,20","20,20,20,20,20,20,20,20","1,1,1,1,1,1,1,1","1685,870,755,984,1085,678,882,1054","45.76617536937614,14.133706946047043,37.78078384725647,43.596156711264214,22.736140299234865,38.152839602213476,21.60163095778316,23.763839687411917","20.97639546963651,30.446378384256036,30.014026937752295,9.866733669949143,12.823048788277744,42.857460183661175,-6.530675001085836,54.490898275317655","0","0"
"557","86","text","0","75","956510","0-0","","","","","","","","","","","","","","","","","","","","","","","","","","","","","","","","","","","","",""
"","","plant-game","0","76","974961","0-0","","200","160","8","WHEAT CROP","Left","200","190","2","THISTLE WEED","experimental","25","1,2,3,4,5,6,7,8","160,183.06538026746233,199.82865434020675,182.92755645778584,193.19284495635057,162.7113641925371,185.37536628923993,201.18736212454982","8,7,6,5,4,3,2,1","WHEAT CROP,WHEAT CROP,WHEAT CROP,WHEAT CROP,WHEAT CROP,WHEAT CROP,WHEAT CROP,WHEAT CROP","190,231.21729474100152,140,140.69442179144622,156.8927280627795,185.66401241576364,199.88707257509367,199.44330370641103","2,1,6,5,4,3,2,1","THISTLE WEED,THISTLE WEED,NETTLE WEED,NETTLE WEED,NETTLE WEED,NETTLE WEED,NETTLE WEED,NETTLE WEED","20,20,20,20,20,20,20,20","20,20,20,20,20,20,20,20","10,10,10,10,10,10,10,10","20,20,20,20,20,20,20,20","0,0,0,0,0,0,0,0","20,20,20,20,20,20,20,20","20,20,20,20,20,20,20,20","20,20,20,20,20,20,20,20","10,10,10,10,10,10,10,10","20,20,20,20,20,20,20,20","0,0,0,0,0,0,0,0","20,20,20,20,20,20,20,20","0,1,1,0,0,0,1,0","1054,787,1429,725,436,1188,1877,3308","23.06538026746232,16.76327407274442,-16.901097882420903,10.265288498564736,-30.481480763813465,22.664002096702827,15.811995835309888,9.704489785531807","41.217294741001524,-19.45799428044834,0.6944217914462132,16.19830627133329,28.771284352984146,14.223060159330018,-0.44376886868263016,58.609803460315206","0","0"
"521","86","text","0","77","975632","0-0","","","","","","","","","","","","","","","","","","","","","","","","","","","","","","","","","","","","",""
"","","plant-game","0","78","986727","0-0","","200","160","4","CORN CROP","Right","200","180","1","NETTLE WEED","experimental","26","1,2,3,4","180,170,168.55974824349863,180.13403139158117","1,3,2,1","NETTLE WEED,THISTLE WEED,THISTLE WEED,THISTLE WEED","160,177.0374114853188,194.06845137832636,224.11163503754517","4,3,2,1","CORN CROP,CORN CROP,CORN CROP,CORN CROP","0,0,0,0","20,20,20,20","10,10,10,10","20,20,20,20","20,20,20,20","20,20,20,20","0,0,0,0","20,20,20,20","10,10,10,10","20,20,20,20","20,20,20,20","20,20,20,20","0,1,1,1","671,961,893,1380","-6.747409216708967,-1.4402517565013824,11.57428314808255,44.175633984261566","17.037411485318813,17.03103989300754,30.0431836592188,9.662356186243823","0","0"
"494","86","text","0","79","987361","0-0","","","","","","","","","","","","","","","","","","","","","","","","","","","","","","","","","","","","",""
"","","plant-game","0","80","1000820","0-0","","200","180","2","CORN CROP","Right","200","190","4","NETTLE WEED","experimental","27","1,2,3,4","190,185.8637100579411,238.07788861627094,247.51017418296638","4,3,2,1","NETTLE WEED,NETTLE WEED,NETTLE WEED,NETTLE WEED","180,224.72124999810745,180,218.15392926401296","2,1,2,1","CORN CROP,CORN CROP,WHEAT CROP,WHEAT CROP","0,0,0,0","20,20,20,20","10,10,10,10","20,20,20,20","20,20,20,20","20,20,20,20","0,0,0,0","20,20,20,20","10,10,10,10","20,20,20,20","20,20,20,20","20,20,20,20","1,1,1,1","1033,2171,1365,3910","-4.136289942058898,52.21417855832984,9.432285566695453,7.8353557580587925","44.72124999810744,69.07940439538402,38.15392926401297,7.7364000955725505","0","0"
"537","86","text","0","81","1001527","0-0","","","","","","","","","","","","","","","","","","","","","","","","","","","","","","","","","","","","",""
"","","plant-game","0","82","1011858","0-0","","200","120","4","CORN CROP","Left","200","180","1","THISTLE WEED","experimental","28","1,2,3,4","120,116.24999654766714,152.0818914387272,154.82648398802704","4,3,2,1","CORN CROP,CORN CROP,CORN CROP,CORN CROP","180,170,214.22338923352186,194.35588350663252","1,3,2,1","THISTLE WEED,NETTLE WEED,NETTLE WEED,NETTLE WEED","20,20,20,20","20,20,20,20","10,10,10,10","20,20,20,20","0,0,0,0","20,20,20,20","20,20,20,20","20,20,20,20","10,10,10,10","20,20,20,20","0,0,0,0","20,20,20,20","1,0,1,1","462,1281,1265,1254","-3.7500034523328596,35.83189489106009,2.7445925492998136,-27.44577810810752","9.430320182270432,44.22338923352184,-19.867505726889338,0.2953662875460575","1","0"
"289","86","text","0","83","1012267","0-0","","","","","","","","","","","","","","","","","","","","","","","","","","","","","","","","","","","","",""
"","","plant-game","0","84","1025020","0-0","","200","120","1","WHEAT CROP","Left","200","160","8","NETTLE WEED","experimental","29","1,2,3,4,5,6,7,8","120,130,156.65351351796113,110.96402176901812,131.47807555002203,154.90861675827654,179.1484561262213,183.0443800683014","1,7,6,5,4,3,2,1","WHEAT CROP,CORN CROP,CORN CROP,CORN CROP,CORN CROP,CORN CROP,CORN CROP,CORN CROP","160,186.79104075719582,185.00270241502938,147.4382003529829,198.14752032375816,200.89688987555488,170.6587371078126,171.3074531264716","8,7,6,5,4,3,2,1","NETTLE WEED,NETTLE WEED,NETTLE WEED,NETTLE WEED,NETTLE WEED,NETTLE WEED,NETTLE WEED,NETTLE WEED","20,20,20,20,20,20,20,20","20,20,20,20,20,20,20,20","10,10,10,10,10,10,10,10","20,20,20,20,20,20,20,20","0,0,0,0,0,0,0,0","20,20,20,20,20,20,20,20","20,20,20,20,20,20,20,20","20,20,20,20,20,20,20,20","10,10,10,10,10,10,10,10","20,20,20,20,20,20,20,20","0,0,0,0,0,0,0,0","20,20,20,20,20,20,20,20","0,1,1,0,1,1,1,1","1778,1034,770,581,814,843,427,522","7.802289386559448,26.65351351796113,-45.68949174894301,20.514053781003902,23.430541208254503,24.239839367944768,3.895923942080095,-15.712399454759716","26.79104075719582,-1.7883383421664294,-37.564502062046486,50.70931997077524,2.7493695517967174,-30.238152767742257,0.6487160186589607,-8.84455706771203","0","0"
"747","86","text","0","85","1025947","0-0","","","","","","","","","","","","","","","","","","","","","","","","","","","","","","","","","","","","",""
"","","plant-game","0","86","1043055","0-0","","200","120","8","CORN CROP","Left","200","190","2","NETTLE WEED","experimental","30","1,2,3,4,5,6,7,8","120,117.01490045398032,155.0671664587915,160.37450614591106,163.80571050763265,181.70144358073594,147.7643705460784,165.28334738089572","8,7,6,5,4,3,2,1","CORN CROP,CORN CROP,CORN CROP,CORN CROP,CORN CROP,CORN CROP,CORN CROP,CORN CROP","190,212.95802066705494,140,122.64629429719574,149.69788881648785,140.83822034646434,203.24262980583805,235.55966506801582","2,1,6,5,4,3,2,1","NETTLE WEED,NETTLE WEED,THISTLE WEED,THISTLE WEED,THISTLE WEED,THISTLE WEED,THISTLE WEED,THISTLE WEED","20,20,20,20,20,20,20,20","20,20,20,20,20,20,20,20","10,10,10,10,10,10,10,10","20,20,20,20,20,20,20,20","0,0,0,0,0,0,0,0","20,20,20,20,20,20,20,20","20,20,20,20,20,20,20,20","20,20,20,20,20,20,20,20","10,10,10,10,10,10,10,10","20,20,20,20,20,20,20,20","0,0,0,0,0,0,0,0","20,20,20,20,20,20,20,20","1,0,1,0,1,1,0,0","932,2004,1109,1336,1027,657,2709,359","-2.985099546019689,38.05226600481117,5.307339687119567,3.4312043617216013,17.89573307310328,-33.93707303465756,17.518976834817327,51.28901940076311","22.958020667054946,12.604432592582246,-17.353705702804263,27.051594519292102,-8.859668470023513,62.40440945937371,32.31703526217777,16.37166880394164","0","0"
"247","86","text","0","87","1043452","0-0","","","","","","","","","","","","","","","","","","","","","","","","","","","","","","","","","","","","",""
"","","plant-game","0","88","1059527","0-0","","200","190","8","WHEAT CROP","Right","200","180","2","NETTLE WEED","experimental","31","1,2,3,4,5,6,7,8","180,223.36005946599667,140,170.01913319121485,155.96444517027837,150.16669148497843,105.49336448801913,89.34091297018745","2,1,6,5,4,3,2,1","NETTLE WEED,NETTLE WEED,THISTLE WEED,THISTLE WEED,THISTLE WEED,THISTLE WEED,THISTLE WEED,THISTLE WEED","190,234.96229679777798,248.79596169837967,297.7420290100159,279.2267785247247,290.3172566524057,277.3987208724626,330.7326183548504","8,7,6,5,4,3,2,1","WHEAT CROP,WHEAT CROP,WHEAT CROP,WHEAT CROP,WHEAT CROP,WHEAT CROP,WHEAT CROP,WHEAT CROP","0,0,0,0,0,0,0,0","20,20,20,20,20,20,20,20","10,10,10,10,10,10,10,10","20,20,20,20,20,20,20,20","20,20,20,20,20,20,20,20","20,20,20,20,20,20,20,20","0,0,0,0,0,0,0,0","20,20,20,20,20,20,20,20","10,10,10,10,10,10,10,10","20,20,20,20,20,20,20,20","20,20,20,20,20,20,20,20","20,20,20,20,20,20,20,20","1,1,1,0,0,0,0,0","1746,3050,424,2378,437,770,471,564","43.36005946599668,51.006369208360425,30.019133191214863,-14.054688020936474,-5.797753685299927,-44.67332699695931,-16.152451517831675,16.1510923544264","44.96229679777797,13.833664900601685,48.946067311636256,-18.515250485291247,11.090478127681052,-12.918535779943095,53.33389748238776,12.440751812592652","2","0"
"87","86","text","0","89","1059764","0-0","","","","","","","","","","","","","","","","","","","","","","","","","","","","","","","","","","","","",""
"","","plant-game","0","90","1070062","0-0","","200","190","2","CORN CROP","Right","200","180","1","NETTLE WEED","experimental","32","1,2","180,190","1,1","NETTLE WEED,THISTLE WEED","190,228.56792704448418","2,1","CORN CROP,CORN CROP","0,0","20,20","10,10","20,20","20,20","20,20","0,0","20,20","10,10","20,20","20,20","20,20","1,0","1843,876","24.031971003911593,11.966725580287159","38.567927044484165,-0.8271896381488741","0","0"
"56","86","text","0","91","1070256","0-0","","","","","","","","","","","","","","","","","","","","","","","","","","","","","","","","","","","","",""
"","","plant-game","0","92","1079804","0-0","","200","180","2","WHEAT CROP","Right","200","160","1","NETTLE WEED","experimental","33","1,2","160,190","1,1","NETTLE WEED,THISTLE WEED","180,191.6259079211497","2,1","WHEAT CROP,WHEAT CROP","0,0","20,20","10,10","20,20","20,20","20,20","0,0","20,20","10,10","20,20","20,20","20,20","1,0","781,2504","35.53882198887266,-28.54316682143367","11.625907921149699,-33.26853656664937","0","0"
"66","86","text","0","93","1080010","0-0","","","","","","","","","","","","","","","","","","","","","","","","","","","","","","","","","","","","",""
"","","plant-game","0","94","1092060","0-0","","200","190","4","CORN CROP","Right","200","120","8","THISTLE WEED","experimental","34","1,2,3,4,5,6,7,8","120,130.32368558905836,158.85234594673418,132.1957919126295,135.77097761401524,139.0057967696262,146.57291916505122,103.81773813042336","8,7,6,5,4,3,2,1","THISTLE WEED,THISTLE WEED,THISTLE WEED,THISTLE WEED,THISTLE WEED,THISTLE WEED,THISTLE WEED,THISTLE WEED","190,256.17164160678334,250.54569753852076,271.631202559265,160,151.60335475783188,169.46396818272,201.70780547419847","4,3,2,1,4,3,2,1","CORN CROP,CORN CROP,CORN CROP,CORN CROP,WHEAT CROP,WHEAT CROP,WHEAT CROP,WHEAT CROP","0,0,0,0,0,0,0,0","20,20,20,20,20,20,20,20","10,10,10,10,10,10,10,10","20,20,20,20,20,20,20,20","20,20,20,20,20,20,20,20","20,20,20,20,20,20,20,20","0,0,0,0,0,0,0,0","20,20,20,20,20,20,20,20","10,10,10,10,10,10,10,10","20,20,20,20,20,20,20,20","20,20,20,20,20,20,20,20","20,20,20,20,20,20,20,20","1,1,0,0,0,0,0,1","541,1355,679,354,910,343,472,1011","10.32368558905836,28.528660357675825,-26.65655403410468,3.5751857013857347,3.2348191556109467,7.567122395425043,-42.75518103462785,-9.480928715985037","66.17164160678333,-5.625944068262569,21.085505020744215,10.935472980540435,-8.396645242168109,17.86061342488813,32.24383729147845,49.717144701940455","1","0"
"80","86","text","0","95","1092278","0-0","","","","","","","","","","","","","","","","","","","","","","","","","","","","","","","","","","","","",""
"","","plant-game","0","96","1097917","0-0","","200","160","1","CORN CROP","Right","200","160","1","NETTLE WEED","experimental","35","1","160","1","NETTLE WEED","160","1","CORN CROP","0","20","10","20","20","20","0","20","10","20","20","20","0","2286","-34.12534015497788","17.902169686641244","0","0"
"167","86","text","0","97","1098244","0-0","","","","","","","","","","","","","","","","","","","","","","","","","","","","","","","","","","","","",""
"","","plant-game","0","98","1106238","0-0","","200","160","2","CORN CROP","Left","200","180","2","THISTLE WEED","experimental","36","1,2","160,206.87711173572131","2,1","CORN CROP,CORN CROP","180,213.229580850566","2,1","THISTLE WEED,THISTLE WEED","20,20","20,20","10,10","20,20","0,0","20,20","20,20","20,20","10,10","20,20","0,0","20,20","0,0","2550,2510","46.87711173572133,41.76662473642388","33.22958085056601,21.461096556852414","0","0"
"90","86","text","0","99","1106471","0-0","","","","","","","","","","","","","","","","","","","","","","","","","","","","","","","","","","","","",""
"","","plant-game","0","100","1116899","0-0","","200","120","1","WHEAT CROP","Left","200","160","4","THISTLE WEED","experimental","37","1,2,3,4","120,170,185.86415413798693,180.24633569420013","1,3,2,1","WHEAT CROP,CORN CROP,CORN CROP,CORN CROP","160,185.72578444621715,166.82437785620863,158.86683893558742","4,3,2,1","THISTLE WEED,THISTLE WEED,THISTLE WEED,THISTLE WEED","20,20,20,20","20,20,20,20","10,10,10,10","20,20,20,20","0,0,0,0","20,20,20,20","20,20,20,20","20,20,20,20","10,10,10,10","20,20,20,20","0,0,0,0","20,20,20,20","1,1,1,0","979,3276,634,806","-8.393648280506856,15.86415413798694,-5.617818443786807,44.82819174064342","25.725784446217148,-18.901406590008513,-7.957538920621201,35.56023275123369","0","0"
"67","86","text","0","101","1117116","0-0","","","","","","","","","","","","","","","","","","","","","","","","","","","","","","","","","","","","",""
"","","plant-game","0","102","1133602","0-0","","200","180","8","WHEAT CROP","Right","200","190","2","THISTLE WEED","experimental","38","1,2,3,4,5,6,7,8","190,182.22804489952333,140,144.85928153101048,152.75049804193432,144.745335336549,137.5195643258375,124.86071172146208","2,1,6,5,4,3,2,1","THISTLE WEED,THISTLE WEED,NETTLE WEED,NETTLE WEED,NETTLE WEED,NETTLE WEED,NETTLE WEED,NETTLE WEED","180,188.45532285119467,186.4985278982582,140.92947163822518,101.68794385753972,148.1909471821293,128.16678914614667,141.7277567800877","8,7,6,5,4,3,2,1","WHEAT CROP,WHEAT CROP,WHEAT CROP,WHEAT CROP,WHEAT CROP,WHEAT CROP,WHEAT CROP,WHEAT CROP","0,0,0,0,0,0,0,0","20,20,20,20,20,20,20,20","10,10,10,10,10,10,10,10","20,20,20,20,20,20,20,20","20,20,20,20,20,20,20,20","20,20,20,20,20,20,20,20","0,0,0,0,0,0,0,0","20,20,20,20,20,20,20,20","10,10,10,10,10,10,10,10","20,20,20,20,20,20,20,20","20,20,20,20,20,20,20,20","20,20,20,20,20,20,20,20","0,0,0,0,0,0,0,1","3427,440,2023,1927,656,483,646,857","-7.771955100476662,23.64749260493887,4.859281531010491,7.891216510923834,-8.00516270538531,-7.225771010711507,-12.658852604375427,29.854869556988582","8.455322851194673,-1.9567949529364628,-45.56905626003302,-39.241527780685466,46.50300332458958,-20.024158035982616,13.560967633941024,9.715426205462665","0","0"
"10","86","text","0","103","1133785","0-0","","","","","","","","","","","","","","","","","","","","","","","","","","","","","","","","","","","","",""
"","","plant-game","0","104","1142302","0-0","","200","190","4","WHEAT CROP","Right","200","160","1","NETTLE WEED","experimental","39","1,2,3,4","160,170,157.6443681481163,152.55026117888625","1,3,2,1","NETTLE WEED,THISTLE WEED,THISTLE WEED,THISTLE WEED","190,237.8111702590413,224.66747912930845,221.60636067733694","4,3,2,1","WHEAT CROP,WHEAT CROP,WHEAT CROP,WHEAT CROP","0,0,0,0","20,20,20,20","10,10,10,10","20,20,20,20","20,20,20,20","20,20,20,20","0,0,0,0","20,20,20,20","10,10,10,10","20,20,20,20","20,20,20,20","20,20,20,20","1,0,0,1","735,837,927,1065","47.99132628290299,-12.355631851883688,-5.09410696923006,21.4251893312737","47.81117025904129,-13.143691129732833,-3.0611184519715033,28.911809843067527","0","0"
"60","86","text","0","105","1142502","0-0","","","","","","","","","","","","","","","","","","","","","","","","","","","","","","","","","","","","",""
"","","plant-game","0","106","1151362","0-0","","200","120","4","WHEAT CROP","Left","200","160","1","THISTLE WEED","experimental","40","1,2,3,4","120,90.47473741849848,126.40994873931193,115.85823441793289","4,3,2,1","WHEAT CROP,WHEAT CROP,WHEAT CROP,WHEAT CROP","160,170,202.77603359501416,197.6000514888552","1,3,2,1","THISTLE WEED,NETTLE WEED,NETTLE WEED,NETTLE WEED","20,20,20,20","20,20,20,20","10,10,10,10","20,20,20,20","0,0,0,0","20,20,20,20","20,20,20,20","20,20,20,20","10,10,10,10","20,20,20,20","0,0,0,0","20,20,20,20","1,0,1,1","918,1924,966,534","-29.525262581501526,35.93521132081345,-10.551714321379036,-25.829425462153885","-28.809462548965776,32.77603359501414,-5.1759821061589415,18.634899664327005","0","0"
"64","86","text","0","107","1151508","0-0","","","","","","","","","","","","","","","","","","","","","","","","","","","","","","","","","","","","",""
"","","plant-game","0","108","1165848","0-0","","200","190","8","CORN CROP","Right","200","160","2","NETTLE WEED","experimental","41","1,2,3,4,5,6,7,8","160,137.33078416635644,140,192.81471790893016,192.5449272092061,223.40960346194035,253.17071086679533,269.09469707954116","2,1,6,5,4,3,2,1","NETTLE WEED,NETTLE WEED,THISTLE WEED,THISTLE WEED,THISTLE WEED,THISTLE WEED,THISTLE WEED,THISTLE WEED","190,228.10793828826235,222.638579969403,254.4090004335632,233.2462938692404,230.41438920333547,238.24661755180145,224.3499959705084","8,7,6,5,4,3,2,1","CORN CROP,CORN CROP,CORN CROP,CORN CROP,CORN CROP,CORN CROP,CORN CROP,CORN CROP","0,0,0,0,0,0,0,0","20,20,20,20,20,20,20,20","10,10,10,10,10,10,10,10","20,20,20,20,20,20,20,20","20,20,20,20,20,20,20,20","20,20,20,20,20,20,20,20","0,0,0,0,0,0,0,0","20,20,20,20,20,20,20,20","10,10,10,10,10,10,10,10","20,20,20,20,20,20,20,20","20,20,20,20,20,20,20,20","20,20,20,20,20,20,20,20","1,1,1,0,0,0,0,1","276,1170,680,1387,413,662,789,3553","-22.669215833643563,55.509863069751894,52.81471790893016,-0.2697906997240596,30.86467625273425,29.761107404854968,15.923986212745817,18.665948107813684","38.10793828826233,-5.469358318859342,31.770420464160186,-21.162706564322804,-2.8319046659049136,7.8322283484659625,-13.89662158129305,11.12409146694935","1","0"
"59","86","text","0","109","1166017","0-0","","","","","","","","","","","","","","","","","","","","","","","","","","","","","","","","","","","","",""
"","","plant-game","0","110","1180034","0-0","","200","120","4","CORN CROP","Right","200","160","8","NETTLE WEED","experimental","42","1,2,3,4,5,6,7,8","160,158.08006863733658,158.85291895987453,140.2374283633158,185.25092410208177,192.76077992980024,222.19205499639287,226.13467346860983","8,7,6,5,4,3,2,1","NETTLE WEED,NETTLE WEED,NETTLE WEED,NETTLE WEED,NETTLE WEED,NETTLE WEED,NETTLE WEED,NETTLE WEED","120,135.4565340802713,131.50582740039454,123.5429796207647,160,144.72741061316077,175.79989829554935,198.4269993669264","4,3,2,1,4,3,2,1","CORN CROP,CORN CROP,CORN CROP,CORN CROP,WHEAT CROP,WHEAT CROP,WHEAT CROP,WHEAT CROP","0,0,0,0,0,0,0,0","20,20,20,20,20,20,20,20","10,10,10,10,10,10,10,10","20,20,20,20,20,20,20,20","20,20,20,20,20,20,20,20","20,20,20,20,20,20,20,20","0,0,0,0,0,0,0,0","20,20,20,20,20,20,20,20","10,10,10,10,10,10,10,10","20,20,20,20,20,20,20,20","20,20,20,20,20,20,20,20","20,20,20,20,20,20,20,20","0,0,0,1,1,1,0,0","1868,954,909,853,833,1202,1503,178","-1.9199313626634291,0.7728503225379608,-18.615490596558747,45.01349573876598,7.509855827718464,29.431275066592633,3.9426184722169584,-0.25412922402225235","15.456534080271307,-3.950706679876746,-7.962847779629842,8.865182044554665,-15.272589386839222,31.072487682388577,22.62710107137704,2.502390921738129","0","0"
"78","86","text","0","111","1180232","0-0","","","","","","","","","","","","","","","","","","","","","","","","","","","","","","","","","","","","",""
"","","plant-game","0","112","1191388","0-0","","200","190","8","WHEAT CROP","Right","200","120","1","NETTLE WEED","experimental","43","1,2,3,4,5,6,7,8","120,130,131.4868350617235,144.20329746313865,142.15108011494362,123.51758721097856,159.28034614808183,192.39328051799703","1,7,6,5,4,3,2,1","NETTLE WEED,THISTLE WEED,THISTLE WEED,THISTLE WEED,THISTLE WEED,THISTLE WEED,THISTLE WEED,THISTLE WEED","190,212.07357118051132,203.5890152746958,228.45768762571367,204.3830108851173,172.20177787143706,159.39950666933916,161.08906322448098","8,7,6,5,4,3,2,1","WHEAT CROP,WHEAT CROP,WHEAT CROP,WHEAT CROP,WHEAT CROP,WHEAT CROP,WHEAT CROP,WHEAT CROP","0,0,0,0,0,0,0,0","20,20,20,20,20,20,20,20","10,10,10,10,10,10,10,10","20,20,20,20,20,20,20,20","20,20,20,20,20,20,20,20","20,20,20,20,20,20,20,20","0,0,0,0,0,0,0,0","20,20,20,20,20,20,20,20","10,10,10,10,10,10,10,10","20,20,20,20,20,20,20,20","20,20,20,20,20,20,20,20","20,20,20,20,20,20,20,20","1,0,0,0,0,0,1,1","692,894,320,371,352,345,519,1108","7.6794153318417795,1.486835061723484,12.716462401415159,-2.0522173481950414,-18.633492903965063,35.76275893710328,33.1129343699152,-12.653928764517495","22.073571180511316,-8.484555905815512,24.868672351017853,-24.074676740596384,-32.18123301368023,-12.802271202097897,1.6895565551418095,51.519160707943655","0","0"
"64","86","text","0","113","1191572","0-0","","","","","","","","","","","","","","","","","","","","","","","","","","","","","","","","","","","","",""
"","","plant-game","0","114","1198191","0-0","","200","190","1","CORN CROP","Right","200","190","1","THISTLE WEED","experimental","44","1","190","1","THISTLE WEED","190","1","CORN CROP","0","20","10","20","20","20","0","20","10","20","20","20","0","2689","-21.741220863312726","9.312190425358706","0","0"
"840","86","text","0","115","1199171","0-0","","","","","","","","","","","","","","","","","","","","","","","","","","","","","","","","","","","","",""
"","","plant-game","0","116","1209560","0-0","","200","160","1","WHEAT CROP","Right","200","180","4","NETTLE WEED","experimental","45","1,2,3,4","180,195.47699641877196,208.69663625639456,214.47141059434307","4,3,2,1","NETTLE WEED,NETTLE WEED,NETTLE WEED,NETTLE WEED","160,170,179.76324099635582,188.78248380006937","1,3,2,1","WHEAT CROP,CORN CROP,CORN CROP,CORN CROP","0,0,0,0","20,20,20,20","10,10,10,10","20,20,20,20","20,20,20,20","20,20,20,20","0,0,0,0","20,20,20,20","10,10,10,10","20,20,20,20","20,20,20,20","20,20,20,20","1,1,0,1","742,1359,3517,447","15.47699641877197,13.219639837622587,5.774774337948503,7.877187127134949","61.70248731618589,9.763240996355806,9.019242803713546,20.78724387625959","0","0"
"86","86","text","0","117","1209756","0-0","","","","","","","","","","","","","","","","","","","","","","","","","","","","","","","","","","","","",""
"","","plant-game","0","118","1222301","0-0","","200","160","2","WHEAT CROP","Left","200","180","1","THISTLE WEED","experimental","46","1,2","160,203.27031089210539","2,1","WHEAT CROP,WHEAT CROP","180,190","1,1","THISTLE WEED,NETTLE WEED","20,20","20,20","10,10","20,20","0,0","20,20","20,20","20,20","10,10","20,20","0,0","20,20","0,0","4620,2528","43.27031089210537,5.13522533122279","19.45524765495095,8.70291340047807","0","0"
"72","86","text","0","119","1222463","0-0","","","","","","","","","","","","","","","","","","","","","","","","","","","","","","","","","","","","",""
"","","plant-game","0","120","1238056","0-0","","200","190","4","WHEAT CROP","Left","200","180","2","THISTLE WEED","experimental","47","1,2,3,4","190,188.82214676694403,204.79688654198063,181.03831261365985","4,3,2,1","WHEAT CROP,WHEAT CROP,WHEAT CROP,WHEAT CROP","180,190.8286844190805,180,184.37542041316112","2,1,2,1","THISTLE WEED,THISTLE WEED,NETTLE WEED,NETTLE WEED","20,20,20,20","20,20,20,20","10,10,10,10","20,20,20,20","0,0,0,0","20,20,20,20","20,20,20,20","20,20,20,20","10,10,10,10","20,20,20,20","0,0,0,0","20,20,20,20","1,1,1,1","2305,597,5087,2339","-1.177853233055972,15.974739775036584,-23.758573928320764,-17.180290182815764","10.828684419080503,25.31690516471434,4.375420413161115,-26.076473735146845","0","0"
"40","86","text","0","121","1238246","0-0","","","","","","","","","","","","","","","","","","","","","","","","","","","","","","","","","","","","",""
"","","plant-game","0","122","1265318","0-0","","200","160","1","WHEAT CROP","Left","200","160","4","THISTLE WEED","experimental","48","1,2,3,4","160,170,173.25752521551937,188.31317992799902","1,3,2,1","WHEAT CROP,CORN CROP,CORN CROP,CORN CROP","160,175.94411196826354,179.38163992562562,202.200663040545","4,3,2,1","THISTLE WEED,THISTLE WEED,THISTLE WEED,THISTLE WEED","20,20,20,20","20,20,20,20","10,10,10,10","20,20,20,20","0,0,0,0","20,20,20,20","20,20,20,20","20,20,20,20","10,10,10,10","20,20,20,20","0,0,0,0","20,20,20,20","0,0,0,1","19990,1133,393,931","59.528708568587085,3.257525215519351,15.055654712479642,-9.541708189433427","15.944111968263556,3.437527957362068,22.81902311491939,-0.34599590323338847","0","0"
"124","86","text","0","123","1265502","0-0","","","","","","","","","","","","","","","","","","","","","","","","","","","","","","","","","","","","",""
"","","plant-game","0","124","1278429","0-0","","200","180","1","WHEAT CROP","Right","200","120","8","THISTLE WEED","experimental","49","1,2,3,4,5,6,7,8","120,125.6463304855411,182.01307119564558,156.40632844039135,148.69830513449244,188.7225718823215,194.3082855669812,213.49708052951084","8,7,6,5,4,3,2,1","THISTLE WEED,THISTLE WEED,THISTLE WEED,THISTLE WEED,THISTLE WEED,THISTLE WEED,THISTLE WEED,THISTLE WEED","180,130,152.91494584652486,135.74340448644315,149.28362831952384,144.2838391537904,152.81210287229598,208.21150656962993","1,7,6,5,4,3,2,1","WHEAT CROP,CORN CROP,CORN CROP,CORN CROP,CORN CROP,CORN CROP,CORN CROP,CORN CROP","0,0,0,0,0,0,0,0","20,20,20,20,20,20,20,20","10,10,10,10,10,10,10,10","20,20,20,20,20,20,20,20","20,20,20,20,20,20,20,20","20,20,20,20,20,20,20,20","0,0,0,0,0,0,0,0","20,20,20,20,20,20,20,20","10,10,10,10,10,10,10,10","20,20,20,20,20,20,20,20","20,20,20,20,20,20,20,20","20,20,20,20,20,20,20,20","0,1,0,0,0,0,1,0","394,864,684,59,448,59,1245,2661","5.646330485541094,56.366740710104494,-25.606742755254245,-7.708023305898898,40.02426674782904,5.585713684659704,19.18879496252965,12.262644749631544","-28.671403779923747,22.91494584652486,-17.171541360081715,13.540223833080695,-4.999789165733434,8.528263718505563,55.39940369733395,22.63222910483878","2","0"
"303","86","text","0","125","1278772","0-0","","","","","","","","","","","","","","","","","","","","","","","","","","","","","","","","","","","","",""
"","","plant-game","0","126","1282809","0-0","","200","190","2","WHEAT CROP","Right","200","120","2","THISTLE WEED","experimental","50","1,2","120,132.22779041330745","2,1","THISTLE WEED,THISTLE WEED","190,176.82748726929492","2,1","WHEAT CROP,WHEAT CROP","0,0","20,20","10,10","20,20","20,20","20,20","0,0","20,20","10,10","20,20","20,20","20,20","1,1","444,1146","12.227790413307439,32.05516820646849","-13.172512730705087,22.185501877190468","0","0"
"104","86","text","0","127","1282983","0-0","","","","","","","","","","","","","","","","","","","","","","","","","","","","","","","","","","","","",""
"","","plant-game","0","128","1294036","0-0","","200","190","8","WHEAT CROP","Right","200","160","4","THISTLE WEED","experimental","51","1,2,3,4,5,6,7,8","160,163.12507368526582,193.0802917809771,188.59663924723063,160,146.710780388618,141.52881269112896,164.07485651568007","4,3,2,1,4,3,2,1","THISTLE WEED,THISTLE WEED,THISTLE WEED,THISTLE WEED,NETTLE WEED,NETTLE WEED,NETTLE WEED,NETTLE WEED","190,210.32383748736095,241.06000929970284,261.5607507439283,252.94676363567362,271.93682406586606,265.1457798403167,273.60206755182776","8,7,6,5,4,3,2,1","WHEAT CROP,WHEAT CROP,WHEAT CROP,WHEAT CROP,WHEAT CROP,WHEAT CROP,WHEAT CROP,WHEAT CROP","0,0,0,0,0,0,0,0","20,20,20,20,20,20,20,20","10,10,10,10,10,10,10,10","20,20,20,20,20,20,20,20","20,20,20,20,20,20,20,20","20,20,20,20,20,20,20,20","0,0,0,0,0,0,0,0","20,20,20,20,20,20,20,20","10,10,10,10,10,10,10,10","20,20,20,20,20,20,20,20","20,20,20,20,20,20,20,20","20,20,20,20,20,20,20,20","1,1,0,0,0,0,0,0","804,2633,1068,133,566,220,396,431","3.1250736852658036,29.95521809571128,-4.483652533746454,16.281628651345738,-13.289219611382023,-5.181967697489032,22.546043824551116,-2.8070869401734155","20.32383748736096,30.736171812341883,20.500741444225454,-8.613987108254669,18.990060430192425,-6.791044225549364,8.456287711511044,-4.873758753082244","0","0"
"106","86","text","0","129","1294222","0-0","","","","","","","","","","","","","","","","","","","","","","","","","","","","","","","","","","","","",""
"","","plant-game","0","130","1302742","0-0","","200","160","1","CORN CROP","Left","200","120","8","THISTLE WEED","experimental","52","1,2,3,4,5,6,7,8","160,130,145.6655037560185,126.57602295595194,112.16290107847279,121.95217784837975,90.37958125677912,65.6731533759868","1,7,6,5,4,3,2,1","CORN CROP,WHEAT CROP,WHEAT CROP,WHEAT CROP,WHEAT CROP,WHEAT CROP,WHEAT CROP,WHEAT CROP","120,116.4066060273214,119.64788631677393,98.25258346843509,118.73477962658407,141.61686281247762,168.41799206890605,191.48839045449773","8,7,6,5,4,3,2,1","THISTLE WEED,THISTLE WEED,THISTLE WEED,THISTLE WEED,THISTLE WEED,THISTLE WEED,THISTLE WEED,THISTLE WEED","20,20,20,20,20,20,20,20","20,20,20,20,20,20,20,20","10,10,10,10,10,10,10,10","20,20,20,20,20,20,20,20","0,0,0,0,0,0,0,0","20,20,20,20,20,20,20,20","20,20,20,20,20,20,20,20","20,20,20,20,20,20,20,20","10,10,10,10,10,10,10,10","20,20,20,20,20,20,20,20","0,0,0,0,0,0,0,0","20,20,20,20,20,20,20,20","1,0,1,1,1,1,1,0","780,1753,609,95,103,94,91,764","30.97555986983716,15.66550375601849,-19.089480800066553,-14.41312187747916,9.789276769906959,-31.572596591600636,-24.706427880792322,42.389145668349535","-3.5933939726785926,3.24128028945254,-21.395302848338847,20.482196158148977,22.882083185893556,26.801129256428435,23.07039838559168,15.566168406869988","0","0"
"114","86","text","0","131","1302926","0-0","","","","","","","","","","","","","","","","","","","","","","","","","","","","","","","","","","","","",""
"","","plant-game","0","132","1310389","0-0","","200","190","4","WHEAT CROP","Right","200","180","1","THISTLE WEED","experimental","53","1,2,3,4","180,170,190.77303763851302,201.60701942347936","1,3,2,1","THISTLE WEED,NETTLE WEED,NETTLE WEED,NETTLE WEED","190,258.61552585622144,247.10872461771763,239.96404968277844","4,3,2,1","WHEAT CROP,WHEAT CROP,WHEAT CROP,WHEAT CROP","0,0,0,0","20,20,20,20","10,10,10,10","20,20,20,20","20,20,20,20","20,20,20,20","0,0,0,0","20,20,20,20","10,10,10,10","20,20,20,20","20,20,20,20","20,20,20,20","1,0,0,1","1116,592,107,1270","9.40312384635412,20.773037638513028,10.83398178496634,24.16341445157636","68.61552585622141,-11.506801238503815,-7.144674934939184,29.77520478214224","0","0"
"107","86","text","0","133","1310556","0-0","","","","","","","","","","","","","","","","","","","","","","","","","","","","","","","","","","","","",""
"","","plant-game","0","134","1318377","0-0","","200","120","2","WHEAT CROP","Left","200","160","1","THISTLE WEED","experimental","54","1,2","120,108.61580944562276","2,1","WHEAT CROP,WHEAT CROP","160,190","1,1","THISTLE WEED,NETTLE WEED","20,20","20,20","10,10","20,20","0,0","20,20","20,20","20,20","10,10","20,20","0,0","20,20","1,1","772,907","-11.384190554377243,10.347599815316528","-9.413687353302912,16.921621695544967","0","0"
"919","86","text","0","135","1319363","0-0","","","","","","","","","","","","","","","","","","","","","","","","","","","","","","","","","","","","",""
"","","plant-game","0","136","1332563","0-0","","200","160","1","CORN CROP","Left","200","160","8","THISTLE WEED","experimental","55","1,2,3,4,5,6,7,8","160,130,102.35913799045363,69.70804914745347,42.41165277375464,66.46821453360783,88.12697648598947,88.2246648182484","1,7,6,5,4,3,2,1","CORN CROP,WHEAT CROP,WHEAT CROP,WHEAT CROP,WHEAT CROP,WHEAT CROP,WHEAT CROP,WHEAT CROP","160,167.22739591419514,164.3880986115477,136.9893113258611,139.78996300970144,158.68004932384724,158.57634287752222,208.9170738780509","8,7,6,5,4,3,2,1","THISTLE WEED,THISTLE WEED,THISTLE WEED,THISTLE WEED,THISTLE WEED,THISTLE WEED,THISTLE WEED,THISTLE WEED","20,20,20,20,20,20,20,20","20,20,20,20,20,20,20,20","10,10,10,10,10,10,10,10","20,20,20,20,20,20,20,20","0,0,0,0,0,0,0,0","20,20,20,20,20,20,20,20","20,20,20,20,20,20,20,20","20,20,20,20,20,20,20,20","10,10,10,10,10,10,10,10","20,20,20,20,20,20,20,20","0,0,0,0,0,0,0,0","20,20,20,20,20,20,20,20","0,1,1,1,1,0,0,0","1346,2548,153,214,526,2482,133,156","45.25744376258744,-27.640862009546364,-32.65108884300017,-27.296396373698826,24.056561759853192,21.658761952381635,0.09768833225892593,12.34606502330215","7.227395914195135,-2.8392973026474606,-27.39878728568657,2.800651683840334,18.8900863141458,-0.10370644632500614,50.34073100052868,5.044150794454168","0","0"
"97","86","text","0","137","1332750","0-0","","","","","","","","","","","","","","","","","","","","","","","","","","","","","","","","","","","","",""
"","","plant-game","0","138","1340753","0-0","","200","160","2","WHEAT CROP","Left","200","120","1","NETTLE WEED","experimental","56","1,2","160,161.47696328993058","2,1","WHEAT CROP,WHEAT CROP","120,190","1,1","NETTLE WEED,THISTLE WEED","20,20","20,20","10,10","20,20","0,0","20,20","20,20","20,20","10,10","20,20","0,0","20,20","1,1","832,655","1.4769632899305778,8.58114839348941","-6.399421826733988,-10.025827178148685","0","0"
"97","86","text","0","139","1340930","0-0","","","","","","","","","","","","","","","","","","","","","","","","","","","","","","","","","","","","",""
"","","plant-game","0","140","1349743","0-0","","200","180","8","CORN CROP","Right","200","120","4","NETTLE WEED","experimental","57","1,2,3,4,5,6,7,8","120,169.5773428946021,184.0831594633554,179.581807536814,160,130.88916159312387,132.66871333565615,118.2879715832589","4,3,2,1,4,3,2,1","NETTLE WEED,NETTLE WEED,NETTLE WEED,NETTLE WEED,THISTLE WEED,THISTLE WEED,THISTLE WEED,THISTLE WEED","180,203.86413942725613,174.65381039513906,146.88694518120482,161.58288896533577,185.8013233544226,161.77218540238593,140.90106965399656","8,7,6,5,4,3,2,1","CORN CROP,CORN CROP,CORN CROP,CORN CROP,CORN CROP,CORN CROP,CORN CROP,CORN CROP","0,0,0,0,0,0,0,0","20,20,20,20,20,20,20,20","10,10,10,10,10,10,10,10","20,20,20,20,20,20,20,20","20,20,20,20,20,20,20,20","20,20,20,20,20,20,20,20","0,0,0,0,0,0,0,0","20,20,20,20,20,20,20,20","10,10,10,10,10,10,10,10","20,20,20,20,20,20,20,20","20,20,20,20,20,20,20,20","20,20,20,20,20,20,20,20","1,0,0,0,0,0,0,1","917,1217,135,163,1162,148,182,709","49.577342894602126,14.505816568753303,-4.501351926541391,-1.4014036561128573,-29.110838406876137,1.7795517425322718,-14.380741752397254,-5.83371850857478","23.86413942725612,-29.210329032117073,-27.766865213934246,14.695943784130943,24.218434389086823,-24.02913795203668,-20.871115748389386,-25.21479845067895","0","0"
"97","86","text","0","141","1349920","0-0","","","","","","","","","","","","","","","","","","","","","","","","","","","","","","","","","","","","",""
"","","plant-game","0","142","1356725","0-0","","200","190","1","WHEAT CROP","Right","200","180","4","NETTLE WEED","experimental","58","1,2,3,4","180,217.00379296866387,228.18252235365696,203.29307440219435","4,3,2,1","NETTLE WEED,NETTLE WEED,NETTLE WEED,NETTLE WEED","190,170,172.4867438445938,189.79633622180626","1,3,2,1","WHEAT CROP,CORN CROP,CORN CROP,CORN CROP","0,0,0,0","20,20,20,20","10,10,10,10","20,20,20,20","20,20,20,20","20,20,20,20","0,0,0,0","20,20,20,20","10,10,10,10","20,20,20,20","20,20,20,20","20,20,20,20","1,1,0,0","798,888,575,69","37.00379296866387,11.178729384993076,-24.88944795146262,9.6259505219864","3.0448354039310424,2.4867438445937964,17.309592377212446,0.8108460155408801","0","0"
"94","86","text","0","143","1356899","0-0","","","","","","","","","","","","","","","","","","","","","","","","","","","","","","","","","","","","",""
"","","plant-game","0","144","1366240","0-0","","200","180","4","CORN CROP","Right","200","180","8","NETTLE WEED","experimental","59","1,2,3,4,5,6,7,8","180,210.4027744864819,189.0276760018773,176.81465877049231,202.50085122685513,214.2052134893382,198.2656175203659,194.22834404536388","8,7,6,5,4,3,2,1","NETTLE WEED,NETTLE WEED,NETTLE WEED,NETTLE WEED,NETTLE WEED,NETTLE WEED,NETTLE WEED,NETTLE WEED","180,183.75382267559124,181.52888420498425,191.21361019477396,160,160.4548340689432,162.07257224628967,180.89793280368588","4,3,2,1,4,3,2,1","CORN CROP,CORN CROP,CORN CROP,CORN CROP,WHEAT CROP,WHEAT CROP,WHEAT CROP,WHEAT CROP","0,0,0,0,0,0,0,0","20,20,20,20,20,20,20,20","10,10,10,10,10,10,10,10","20,20,20,20,20,20,20,20","20,20,20,20,20,20,20,20","20,20,20,20,20,20,20,20","0,0,0,0,0,0,0,0","20,20,20,20,20,20,20,20","10,10,10,10,10,10,10,10","20,20,20,20,20,20,20,20","20,20,20,20,20,20,20,20","20,20,20,20,20,20,20,20","1,0,0,0,0,0,0,1","684,874,104,94,799,297,372,875","30.4027744864819,-21.375098484604607,-12.21301723138498,25.686192456362814,11.704362262483086,-15.939595968972304,-4.037273475002036,64.73191035519261","3.7538226755912305,-2.2249384706069977,9.684725989789714,18.682933584299494,0.4548340689431897,1.617738177346473,18.825360557396216,18.258195286303717","0","0"
"96","86","text","0","145","1366426","0-0","","","","","","","","","","","","","","","","","","","","","","","","","","","","","","","","","","","","",""
"","","plant-game","0","146","1378546","0-0","","200","180","2","WHEAT CROP","Left","200","120","4","THISTLE WEED","experimental","60","1,2,3,4","180,189.61191251042442,180,207.56350318748844","2,1,2,1","WHEAT CROP,WHEAT CROP,CORN CROP,CORN CROP","120,114.46582770561106,143.8105433785721,160.87677881623216","4,3,2,1","THISTLE WEED,THISTLE WEED,THISTLE WEED,THISTLE WEED","20,20,20,20","20,20,20,20","10,10,10,10","20,20,20,20","0,0,0,0","20,20,20,20","20,20,20,20","20,20,20,20","10,10,10,10","20,20,20,20","0,0,0,0","20,20,20,20","1,0,0,1","634,3362,1658,1630","9.611912510424418,58.6376685342952,27.563503187488443,-0.0003950572899967873","-5.534172294388941,29.344715672961048,17.066235437660055,4.1272211415832585","1","0"
"70","86","text","0","147","1378708","0-0","","","","","","","","","","","","","","","","","","","","","","","","","","","","","","","","","","","","",""
"","","plant-game","0","148","1382455","0-0","","200","180","1","CORN CROP","Left","200","190","1","NETTLE WEED","experimental","61","1","180","1","CORN CROP","190","1","NETTLE WEED","20","20","10","20","0","20","20","20","10","20","0","20","0","825","0.7325544966527922","0.3230287502724991","0","0"
"76","86","text","0","149","1382631","0-0","","","","","","","","","","","","","","","","","","","","","","","","","","","","","","","","","","","","",""
"","","plant-game","0","150","1394333","0-0","","200","160","4","WHEAT CROP","Right","200","160","1","THISTLE WEED","experimental","62","1,2,3,4","160,170,156.32218483171852,154.6811091782079","1,3,2,1","THISTLE WEED,NETTLE WEED,NETTLE WEED,NETTLE WEED","160,156.66222909921655,136.3068171100812,149.72216063774087","4,3,2,1","WHEAT CROP,WHEAT CROP,WHEAT CROP,WHEAT CROP","0,0,0,0","20,20,20,20","10,10,10,10","20,20,20,20","20,20,20,20","20,20,20,20","0,0,0,0","20,20,20,20","10,10,10,10","20,20,20,20","20,20,20,20","20,20,20,20","0,0,1,1","2326,2461,1569,1015","-1.2250105065380517,-13.67781516828147,-1.6410756535106366,-2.505935734112583","-3.337770900783466,-20.35541198913535,13.415343527659662,24.649644650715047","2","0"
"76","86","text","0","151","1394503","0-0","","","","","","","","","","","","","","","","","","","","","","","","","","","","","","","","","","","","",""
"","","plant-game","0","152","1401375","0-0","","200","120","2","WHEAT CROP","Right","200","160","2","THISTLE WEED","experimental","63","1,2","160,174.90988076214768","2,1","THISTLE WEED,THISTLE WEED","120,108.02570600065253","2,1","WHEAT CROP,WHEAT CROP","0,0","20,20","10,10","20,20","20,20","20,20","0,0","20,20","10,10","20,20","20,20","20,20","0,1","3406,489","14.909880762147694,14.355912600232548","-11.974293999347461,32.44700003951575","0","0"
"90","86","text","0","153","1401543","0-0","","","","","","","","","","","","","","","","","","","","","","","","","","","","","","","","","","","","",""
"","","plant-game","0","154","1412562","0-0","","200","190","2","CORN CROP","Right","200","120","4","NETTLE WEED","experimental","64","1,2,3,4","120,147.66077981604957,156.80215935897755,146.92368283854591","4,3,2,1","NETTLE WEED,NETTLE WEED,NETTLE WEED,NETTLE WEED","190,227.30001294304253,180,182.51260792885293","2,1,2,1","CORN CROP,CORN CROP,WHEAT CROP,WHEAT CROP","0,0,0,0","20,20,20,20","10,10,10,10","20,20,20,20","20,20,20,20","20,20,20,20","0,0,0,0","20,20,20,20","10,10,10,10","20,20,20,20","20,20,20,20","20,20,20,20","1,1,1,0","2783,1305,918,1457","27.660779816049555,9.14137954292799,-9.878476520431644,-10.676507512500585","37.300012943042525,42.20589830403301,2.5126079288529404,-22.63418337562305","1","0"
"77","86","text","0","155","1412739","0-0","","","","","","","","","","","","","","","","","","","","","","","","","","","","","","","","","","","","",""
"","","plant-game","0","156","1421302","0-0","","200","190","4","CORN CROP","Right","200","120","1","THISTLE WEED","experimental","65","1,2,3,4","120,170,159.25050669628442,166.66367022218355","1,3,2,1","THISTLE WEED,NETTLE WEED,NETTLE WEED,NETTLE WEED","190,198.90904299335543,216.7349871074522,207.60739920435336","4,3,2,1","CORN CROP,CORN CROP,CORN CROP,CORN CROP","0,0,0,0","20,20,20,20","10,10,10,10","20,20,20,20","20,20,20,20","20,20,20,20","0,0,0,0","20,20,20,20","10,10,10,10","20,20,20,20","20,20,20,20","20,20,20,20","1,1,0,1","690,1416,1229,454","-1.1557501093747966,-10.749493303715589,7.413163525899122,63.71185030100287","8.909042993355422,17.82594411409678,-9.12758790309885,-26.024618723755253","0","0"
"77","86","text","0","157","1421489","0-0","","","","","","","","","","","","","","","","","","","","","","","","","","","","","","","","","","","","",""
"","","plant-game","0","158","1432772","0-0","","200","180","2","CORN CROP","Right","200","180","8","THISTLE WEED","experimental","66","1,2,3,4,5,6,7,8","180,163.7103974750856,173.57665401363977,238.78388162148124,254.39128229430463,291.7182247175011,309.3797155400294,295.14572454274486","8,7,6,5,4,3,2,1","THISTLE WEED,THISTLE WEED,THISTLE WEED,THISTLE WEED,THISTLE WEED,THISTLE WEED,THISTLE WEED,THISTLE WEED","180,208.13655639349417,140,146.26282590617367,171.53888545361238,182.51184108546235,177.7137477656523,166.4929148461768","2,1,6,5,4,3,2,1","CORN CROP,CORN CROP,WHEAT CROP,WHEAT CROP,WHEAT CROP,WHEAT CROP,WHEAT CROP,WHEAT CROP","0,0,0,0,0,0,0,0","20,20,20,20,20,20,20,20","10,10,10,10,10,10,10,10","20,20,20,20,20,20,20,20","20,20,20,20,20,20,20,20","20,20,20,20,20,20,20,20","0,0,0,0,0,0,0,0","20,20,20,20,20,20,20,20","10,10,10,10,10,10,10,10","20,20,20,20,20,20,20,20","20,20,20,20,20,20,20,20","20,20,20,20,20,20,20,20","1,0,1,1,1,1,0,1","879,1078,1060,653,365,365,1121,278","-16.289602524914393,9.866256538554149,65.20722760784147,15.607400672823383,37.32694242319643,17.661490822528297,-14.233990997284527,33.41136336028697","28.13655639349419,-15.356226719946669,6.262825906173665,25.276059547438717,10.972955631849963,-4.7980933198100395,-11.220832919475496,10.55910512367473","3","0"
"64","86","text","0","159","1432926","0-0","","","","","","","","","","","","","","","","","","","","","","","","","","","","","","","","","","","","",""
"","","plant-game","0","160","1441587","0-0","","200","160","2","CORN CROP","Left","200","160","1","NETTLE WEED","experimental","67","1,2","160,164.64178998238756","2,1","CORN CROP,CORN CROP","160,190","1,1","NETTLE WEED,THISTLE WEED","20,20","20,20","10,10","20,20","0,0","20,20","20,20","20,20","10,10","20,20","0,0","20,20","0,1","2278,1663","4.641789982387563,-8.635457411694603","21.8443271963038,30.34587215799252","4","0"
"97","86","text","0","161","1441754","0-0","","","","","","","","","","","","","","","","","","","","","","","","","","","","","","","","","","","","",""
"","","plant-game","0","162","1446818","0-0","","200","160","1","CORN CROP","Right","200","190","1","NETTLE WEED","experimental","68","1","190","1","NETTLE WEED","160","1","CORN CROP","0","20","10","20","20","20","0","20","10","20","20","20","1","2495","58.133587636747","11.762803790563968","0","0"
"93","86","text","0","163","1447011","0-0","","","","","","","","","","","","","","","","","","","","","","","","","","","","","","","","","","","","",""
"","","plant-game","0","164","1458308","0-0","","200","120","8","WHEAT CROP","Right","200","160","4","THISTLE WEED","experimental","69","1,2,3,4,5,6,7,8","160,173.419924825747,206.65850309655752,206.7277707055039,160,139.70579878988192,143.99785096986605,163.65875762680622","4,3,2,1,4,3,2,1","THISTLE WEED,THISTLE WEED,THISTLE WEED,THISTLE WEED,NETTLE WEED,NETTLE WEED,NETTLE WEED,NETTLE WEED","120,141.55531458179155,161.5493707912567,134.86215927147177,132.74436157007958,141.88046123583376,156.03181105008633,168.08679599468277","8,7,6,5,4,3,2,1","WHEAT CROP,WHEAT CROP,WHEAT CROP,WHEAT CROP,WHEAT CROP,WHEAT CROP,WHEAT CROP,WHEAT CROP","0,0,0,0,0,0,0,0","20,20,20,20,20,20,20,20","10,10,10,10,10,10,10,10","20,20,20,20,20,20,20,20","20,20,20,20,20,20,20,20","20,20,20,20,20,20,20,20","0,0,0,0,0,0,0,0","20,20,20,20,20,20,20,20","10,10,10,10,10,10,10,10","20,20,20,20,20,20,20,20","20,20,20,20,20,20,20,20","20,20,20,20,20,20,20,20","1,1,0,0,0,0,0,0","1537,703,1366,114,886,269,404,438","13.419924825746978,33.23857827081055,0.0692676089463622,34.9418304216412,-20.294201210118086,4.292052179984128,19.66090665694018,-20.408497216838303","21.55531458179156,19.994056209465146,-26.68721151978495,-2.1177977013921794,9.136099665754182,14.151349814252557,12.054984944596434,6.148372971633198","3","0"
"719","86","text","0","165","1459147","0-0","","","","","","","","","","","","","","","","","","","","","","","","","","","","","","","","","","","","",""
"","","plant-game","0","166","1470070","0-0","","200","190","2","WHEAT CROP","Left","200","160","1","THISTLE WEED","experimental","70","1,2","190,222.1955113162736","2,1","WHEAT CROP,WHEAT CROP","160,190","1,1","THISTLE WEED,NETTLE WEED","20,20","20,20","10,10","20,20","0,0","20,20","20,20","20,20","10,10","20,20","0,0","20,20","0,0","5216,582","32.1955113162736,-1.043895827119524","31.65773296516442,10.709115983799006","3","0"
"83","86","text","0","167","1470243","0-0","","","","","","","","","","","","","","","","","","","","","","","","","","","","","","","","","","","","",""
"","","plant-game","0","168","1477597","0-0","","200","180","1","CORN CROP","Right","200","160","4","THISTLE WEED","experimental","71","1,2,3,4","160,153.14680590494635,172.2625670151058,154.61599742434916","4,3,2,1","THISTLE WEED,THISTLE WEED,THISTLE WEED,THISTLE WEED","180,170,151.16277059217825,154.2900116825669","1,3,2,1","CORN CROP,WHEAT CROP,WHEAT CROP,WHEAT CROP","0,0,0,0","20,20,20,20","10,10,10,10","20,20,20,20","20,20,20,20","20,20,20,20","0,0,0,0","20,20,20,20","10,10,10,10","20,20,20,20","20,20,20,20","20,20,20,20","1,1,0,0","776,676,1273,55","-6.853194095053659,19.115761110159454,-17.646569590756627,-15.676353697071262","12.146462837497808,-18.83722940782176,3.127241090388658,3.2119447689071654","2","0"
"92","86","text","0","169","1477769","0-0","","","","","","","","","","","","","","","","","","","","","","","","","","","","","","","","","","","","",""
"","","plant-game","0","170","1491102","0-0","","200","180","8","CORN CROP","Left","200","190","4","THISTLE WEED","experimental","72","1,2,3,4,5,6,7,8","180,149.55342530552062,147.60407017564566,161.2269134170269,165.4158368084598,162.12220523396257,178.79811947765424,153.35282725592106","8,7,6,5,4,3,2,1","CORN CROP,CORN CROP,CORN CROP,CORN CROP,CORN CROP,CORN CROP,CORN CROP,CORN CROP","190,224.52428785813004,222.90348063333212,222.44482613503547,160,203.0206715038264,213.07660321895872,203.43773455666974","4,3,2,1,4,3,2,1","THISTLE WEED,THISTLE WEED,THISTLE WEED,THISTLE WEED,NETTLE WEED,NETTLE WEED,NETTLE WEED,NETTLE WEED","20,20,20,20,20,20,20,20","20,20,20,20,20,20,20,20","10,10,10,10,10,10,10,10","20,20,20,20,20,20,20,20","0,0,0,0,0,0,0,0","20,20,20,20,20,20,20,20","20,20,20,20,20,20,20,20","20,20,20,20,20,20,20,20","10,10,10,10,10,10,10,10","20,20,20,20,20,20,20,20","0,0,0,0,0,0,0,0","20,20,20,20,20,20,20,20","1,1,0,0,0,1,1,0","775,702,375,433,1100,3063,1618,388","-30.44657469447939,-1.9493551298749687,13.622843241381243,4.188923391432883,-3.2936315744972298,16.675914243691658,-25.445292221733176,-5.466938935470491","34.52428785813004,-1.6208072247979084,-0.4586544982966636,46.77177943481391,43.0206715038264,10.05593171513232,-9.63886866228897,34.22427689760584","2","0"
"78","86","text","0","171","1491270","0-0","","","","","","","","","","","","","","","","","","","","","","","","","","","","","","","","","","","","",""
"","","plant-game","0","172","1498269","0-0","","200","180","4","CORN CROP","Right","200","120","1","THISTLE WEED","experimental","73","1,2,3,4","120,170,157.70704774811148,125.23724572096113","1,3,2,1","THISTLE WEED,NETTLE WEED,NETTLE WEED,NETTLE WEED","180,185.99356916446624,183.1438364173294,167.40791475100892","4,3,2,1","CORN CROP,CORN CROP,CORN CROP,CORN CROP","0,0,0,0","20,20,20,20","10,10,10,10","20,20,20,20","20,20,20,20","20,20,20,20","0,0,0,0","20,20,20,20","10,10,10,10","20,20,20,20","20,20,20,20","20,20,20,20","1,0,0,1","1013,722,198,698","11.957966673689208,-12.292952251888526,-32.46980202715035,-12.852690408645032","5.993569164466246,-2.8497327471368346,-15.735921666320468,20.871076471541052","1","0"
"86","86","text","0","173","1498445","0-0","","","","","","","","","","","","","","","","","","","","","","","","","","","","","","","","","","","","",""
"","","plant-game","0","174","1505822","0-0","","200","190","1","CORN CROP","Left","200","160","2","THISTLE WEED","experimental","74","1,2","190,190","1,1","CORN CROP,WHEAT CROP","160,173.83578266253187","2,1","THISTLE WEED,THISTLE WEED","20,20","20,20","10,10","20,20","0,0","20,20","20,20","20,20","10,10","20,20","0,0","20,20","1,1","738,2287","15.450299189805804,-9.646517730383016","13.835782662531884,-3.782490821079134","0","0"
"87","86","text","0","175","1505979","0-0","","","","","","","","","","","","","","","","","","","","","","","","","","","","","","","","","","","","",""
"","","plant-game","0","176","1517198","0-0","","200","160","4","WHEAT CROP","Right","200","180","8","NETTLE WEED","experimental","75","1,2,3,4,5,6,7,8","180,225.80541497557175,255.69676741540394,239.82838003787592,295.1574043306239,304.06744901974616,291.9783074556916,329.0582719900459","8,7,6,5,4,3,2,1","NETTLE WEED,NETTLE WEED,NETTLE WEED,NETTLE WEED,NETTLE WEED,NETTLE WEED,NETTLE WEED,NETTLE WEED","160,166.11041092449284,173.9336917318372,174.18687482116053,160,154.8517583736765,170.51894265135624,213.7264449387432","4,3,2,1,4,3,2,1","WHEAT CROP,WHEAT CROP,WHEAT CROP,WHEAT CROP,CORN CROP,CORN CROP,CORN CROP,CORN CROP","0,0,0,0,0,0,0,0","20,20,20,20,20,20,20,20","10,10,10,10,10,10,10,10","20,20,20,20,20,20,20,20","20,20,20,20,20,20,20,20","20,20,20,20,20,20,20,20","0,0,0,0,0,0,0,0","20,20,20,20,20,20,20,20","10,10,10,10,10,10,10,10","20,20,20,20,20,20,20,20","20,20,20,20,20,20,20,20","20,20,20,20,20,20,20,20","1,0,0,0,1,1,1,0","648,1350,81,97,1665,784,554,1625","45.805414975571736,29.891352439832183,-15.868387377528013,55.32902429274793,8.910044689122294,-12.089141564054543,37.0799645343543,-27.27882047172247","6.110410924492841,7.823280807344356,0.2531830893233278,-7.3715805169445305,-5.148241626323504,15.66718427767976,43.20750228738697,-22.129299482294424","0","0"
"95","86","text","0","177","1517381","0-0","","","","","","","","","","","","","","","","","","","","","","","","","","","","","","","","","","","","",""
"","","plant-game","0","178","1526235","0-0","","200","190","8","CORN CROP","Right","200","190","2","NETTLE WEED","experimental","76","1,2,3,4,5,6,7,8","190,221.36563206916233,140,130.71264429886708,102.93807177250409,123.41493287462161,114.84505553655802,192.08909899898157","2,1,6,5,4,3,2,1","NETTLE WEED,NETTLE WEED,THISTLE WEED,THISTLE WEED,THISTLE WEED,THISTLE WEED,THISTLE WEED,THISTLE WEED","190,186.27282279518118,189.60808510662855,200.1100086649394,183.23163570228078,170.9970131221946,176.1896854161769,161.35684370177196","8,7,6,5,4,3,2,1","CORN CROP,CORN CROP,CORN CROP,CORN CROP,CORN CROP,CORN CROP,CORN CROP,CORN CROP","0,0,0,0,0,0,0,0","20,20,20,20,20,20,20,20","10,10,10,10,10,10,10,10","20,20,20,20,20,20,20,20","20,20,20,20,20,20,20,20","20,20,20,20,20,20,20,20","0,0,0,0,0,0,0,0","20,20,20,20,20,20,20,20","10,10,10,10,10,10,10,10","20,20,20,20,20,20,20,20","20,20,20,20,20,20,20,20","20,20,20,20,20,20,20,20","1,0,0,0,0,1,1,1","784,1301,707,100,534,694,46,175","31.365632069162338,10.11886627141438,-9.287355701132922,-27.774572526362995,20.476861102117528,-8.569877338063595,77.24404346242356,67.77903734924328","-3.727177204818819,3.3352623114473556,10.501923558310839,-16.878372962658613,-12.234622580086178,5.192672293982293,-14.832841714404942,37.00422139333228","0","0"
"94","86","text","0","179","1526429","0-0","","","","","","","","","","","","","","","","","","","","","","","","","","","","","","","","","","","","",""
"","","plant-game","0","180","1535973","0-0","","200","190","4","WHEAT CROP","Right","200","160","8","THISTLE WEED","experimental","77","1,2,3,4,5,6,7,8","160,176.1815181818056,158.30919905390311,166.7677193258059,152.8454168174946,143.68530533580702,194.73034079066417,186.88411579819376","8,7,6,5,4,3,2,1","THISTLE WEED,THISTLE WEED,THISTLE WEED,THISTLE WEED,THISTLE WEED,THISTLE WEED,THISTLE WEED,THISTLE WEED","190,227.1401284602448,246.46201274030014,230.22048932978785,160,148.53337118541518,165.7159088668087,179.9741418216372","4,3,2,1,4,3,2,1","WHEAT CROP,WHEAT CROP,WHEAT CROP,WHEAT CROP,CORN CROP,CORN CROP,CORN CROP,CORN CROP","0,0,0,0,0,0,0,0","20,20,20,20,20,20,20,20","10,10,10,10,10,10,10,10","20,20,20,20,20,20,20,20","20,20,20,20,20,20,20,20","20,20,20,20,20,20,20,20","0,0,0,0,0,0,0,0","20,20,20,20,20,20,20,20","10,10,10,10,10,10,10,10","20,20,20,20,20,20,20,20","20,20,20,20,20,20,20,20","20,20,20,20,20,20,20,20","1,0,0,0,1,1,0,0","394,1649,133,113,1516,701,729,73","16.18151818180558,-17.872319127902465,8.458520271902795,-13.922302508311294,-9.160111481687572,51.04503545485716,-7.8462249924704,13.796622310559528","37.14012846024479,19.32188428005534,-16.24152341051228,-19.355978035855887,-11.46662881458482,17.182537681393523,14.258232954828525,-30.254833647330095","0","0"
"73","86","text","0","181","1536146","0-0","","","","","","","","","","","","","","","","","","","","","","","","","","","","","","","","","","","","",""
"","","plant-game","0","182","1544193","0-0","","200","190","1","CORN CROP","Right","200","180","2","NETTLE WEED","experimental","78","1,2","180,182.71248028020693","2,1","NETTLE WEED,NETTLE WEED","190,190","1,1","CORN CROP,WHEAT CROP","0,0","20,20","10,10","20,20","20,20","20,20","0,0","20,20","10,10","20,20","20,20","20,20","1,0","641,1544","2.712480280206929,-5.718902722956929","31.727094775280857,16.81120694408763","0","0"
"97","86","text","0","183","1544370","0-0","","","","","","","","","","","","","","","","","","","","","","","","","","","","","","","","","","","","",""
"","","plant-game","0","184","1559141","0-0","","200","120","1","CORN CROP","Left","200","120","8","THISTLE WEED","experimental","79","1,2,3,4,5,6,7,8","120,130,160.55901944336213,157.13246100913094,169.8408549520514,182.8618475628245,241.42214195299525,272.3529084912242","1,7,6,5,4,3,2,1","CORN CROP,WHEAT CROP,WHEAT CROP,WHEAT CROP,WHEAT CROP,WHEAT CROP,WHEAT CROP,WHEAT CROP","120,111.9227989090864,159.3859952479096,163.28278989569645,189.88062033769583,192.77623034469556,161.53915592107745,187.17974376687926","8,7,6,5,4,3,2,1","THISTLE WEED,THISTLE WEED,THISTLE WEED,THISTLE WEED,THISTLE WEED,THISTLE WEED,THISTLE WEED,THISTLE WEED","20,20,20,20,20,20,20,20","20,20,20,20,20,20,20,20","10,10,10,10,10,10,10,10","20,20,20,20,20,20,20,20","0,0,0,0,0,0,0,0","20,20,20,20,20,20,20,20","20,20,20,20,20,20,20,20","20,20,20,20,20,20,20,20","10,10,10,10,10,10,10,10","20,20,20,20,20,20,20,20","0,0,0,0,0,0,0,0","20,20,20,20,20,20,20,20","1,0,0,0,1,0,0,0","610,1967,1451,986,895,2285,1412,699","13.829635781746298,30.559019443362125,-3.4265584342311968,12.708393942920459,13.020992610773112,58.56029439017075,30.93076653822896,19.61464840482311","-8.077201090913611,47.46319633882319,3.8967946477868622,26.59783044199939,2.8956100069997244,-31.237074423618118,25.640587845801804,1.1662102083693213","0","0"
"71","86","text","0","185","1559298","0-0","","","","","","","","","","","","","","","","","","","","","","","","","","","","","","","","","","","","",""
"","","plant-game","0","186","1567207","0-0","","200","180","8","CORN CROP","Left","200","180","4","THISTLE WEED","experimental","80","1,2,3,4,5,6,7,8","180,216.3092166157611,244.86861701654624,265.83231719663735,268.25317527026465,247.59262383259102,252.93601761973238,254.7849144096857","8,7,6,5,4,3,2,1","CORN CROP,CORN CROP,CORN CROP,CORN CROP,CORN CROP,CORN CROP,CORN CROP,CORN CROP","180,209.36323054126848,211.84418966084314,163.5600878746563,160,165.79103364878438,203.0258973771533,212.89395407023497","4,3,2,1,4,3,2,1","THISTLE WEED,THISTLE WEED,THISTLE WEED,THISTLE WEED,NETTLE WEED,NETTLE WEED,NETTLE WEED,NETTLE WEED","20,20,20,20,20,20,20,20","20,20,20,20,20,20,20,20","10,10,10,10,10,10,10,10","20,20,20,20,20,20,20,20","0,0,0,0,0,0,0,0","20,20,20,20,20,20,20,20","20,20,20,20,20,20,20,20","20,20,20,20,20,20,20,20","10,10,10,10,10,10,10,10","20,20,20,20,20,20,20,20","0,0,0,0,0,0,0,0","20,20,20,20,20,20,20,20","0,0,1,1,0,0,0,1","672,49,754,94,967,71,200,931","36.3092166157611,28.559400400785144,20.96370018009113,2.420858073627275,-20.660551437673618,5.343393787141357,1.8488967899533364,-9.782237561043578","29.36323054126847,2.480959119574649,-48.28410178618686,4.606865623159985,5.791033648784387,37.23486372836894,9.868056693081662,-33.065312722580046","0","0"
"2449","86","text","0","187","1569736","0-0","","","","","","","","","","","","","","","","","","","","","","","","","","","","","","","","","","","","",""
"","","plant-game","0","188","1577959","0-0","","200","120","8","CORN CROP","Right","200","120","2","THISTLE WEED","experimental","81","1,2,3,4,5,6,7,8","120,108.87954159720407,140,152.14237313716208,143.11291122081394,195.1145346281446,196.55991879757332,214.6668022953132","2,1,6,5,4,3,2,1","THISTLE WEED,THISTLE WEED,NETTLE WEED,NETTLE WEED,NETTLE WEED,NETTLE WEED,NETTLE WEED,NETTLE WEED","120,117.81235020822814,128.35447250461036,147.39308004641106,164.28450950612344,172.60788019349468,192.35752927283835,205.8248730412498","8,7,6,5,4,3,2,1","CORN CROP,CORN CROP,CORN CROP,CORN CROP,CORN CROP,CORN CROP,CORN CROP,CORN CROP","0,0,0,0,0,0,0,0","20,20,20,20,20,20,20,20","10,10,10,10,10,10,10,10","20,20,20,20,20,20,20,20","20,20,20,20,20,20,20,20","20,20,20,20,20,20,20,20","0,0,0,0,0,0,0,0","20,20,20,20,20,20,20,20","10,10,10,10,10,10,10,10","20,20,20,20,20,20,20,20","20,20,20,20,20,20,20,20","20,20,20,20,20,20,20,20","0,0,1,1,1,0,0,1","91,547,822,233,419,454,225,1479","-11.120458402795938,-20.287121099046015,12.142373137162082,-9.029461916348133,52.00162340733068,1.4453841694286944,18.106883497739886,52.350391179901415","-2.1876497917718654,10.542122296382207,19.038607541800705,16.89142945971238,8.323370687371233,19.749649079343673,13.467343768411443,49.077876914951524","0","0"
"133","86","text","0","189","1578152","0-0","","","","","","","","","","","","","","","","","","","","","","","","","","","","","","","","","","","","",""
"","","plant-game","0","190","1580993","0-0","","200","190","2","CORN CROP","Right","200","160","2","NETTLE WEED","experimental","82","1,2","160,216.21710699747928","2,1","NETTLE WEED,NETTLE WEED","190,197.8017731927868","2,1","CORN CROP,CORN CROP","0,0","20,20","10,10","20,20","20,20","20,20","0,0","20,20","10,10","20,20","20,20","20,20","1,1","632,120","56.21710699747928,13.854706852415392","7.801773192786818,-7.5794398513077255","0","0"
"109","86","text","0","191","1581172","0-0","","","","","","","","","","","","","","","","","","","","","","","","","","","","","","","","","","","","",""
