"rt","key_press","trial_type","trial_index","trial_index_global","time_elapsed","internal_chunk_id","responses","experimental_goal_height","experimental_start_height","experimental_weeks_total","experimental_crop_type","experimental_crop_side","fixed_goal_height","fixed_start_height","fixed_weeks_total","fixed_crop_type","trial_kind","trial_number","stage","left_current_height","left_weeks_remaining","left_crop_type","right_current_height","right_weeks_remaining","right_crop_type","mean_left_growth_given_left","sd_left_growth_given_left","mean_left_growth_given_middle","sd_left_growth_given_middle","mean_left_growth_given_right","sd_left_growth_given_right","mean_right_growth_given_left","sd_right_growth_given_left","mean_right_growth_given_middle","sd_right_growth_given_middle","mean_right_growth_given_right","sd_right_growth_given_right","response","response_time","left_growth","right_growth","other_key_pressed","mouse_clicked"
"2872310","87","text","0","0","2872468","0-0","","","","","","","","","","","","","","","","","","","","","","","","","","","","","","","","","","","","",""
"9785","","survey-text","0","1","2883291","0-0","{""Q0"":""18""}","","","","","","","","","","","","","","","","","","","","","","","","","","","","","","","","","","","",""
"9367","86","text","0","2","9523","0-0","","","","","","","","","","","","","","","","","","","","","","","","","","","","","","","","","","","","",""
"","","plant-game","0","3","114933","0-0","","200","120","8","WHEAT CROP","Right","200","120","8","THISTLE WEED","practice","1","1,2,3,4,5,6,7,8","120,163.85502559987503,179.5314435733055,164.4588353676891,178.23307487685653,177.36061839617372,174.35173314210763,181.07981743017206","8,7,6,5,4,3,2,1","THISTLE WEED,THISTLE WEED,THISTLE WEED,THISTLE WEED,THISTLE WEED,THISTLE WEED,THISTLE WEED,THISTLE WEED","120,115.08760817963812,120.52531885803714,193.1206894427247,195.7962119978948,190.09522128388124,191.22815303188074,180.6908855179392","8,7,6,5,4,3,2,1","WHEAT CROP,WHEAT CROP,WHEAT CROP,WHEAT CROP,WHEAT CROP,WHEAT CROP,WHEAT CROP,WHEAT CROP","0,0,0,0,0,0,0,0","20,20,20,20,20,20,20,20","10,10,10,10,10,10,10,10","20,20,20,20,20,20,20,20","20,20,20,20,20,20,20,20","20,20,20,20,20,20,20,20","0,0,0,0,0,0,0,0","20,20,20,20,20,20,20,20","10,10,10,10,10,10,10,10","20,20,20,20,20,20,20,20","20,20,20,20,20,20,20,20","20,20,20,20,20,20,20,20","0,0,1,1,0,0,0,1","21723,5666,3796,3217,3605,1228,560,3342","43.85502559987502,15.676417973430468,-15.072608205616412,13.774239509167435,-0.8724564806828183,-3.0088852540660738,6.728084288064431,34.30792519123513","-4.9123918203618775,5.437710678399013,72.59537058468757,2.6755225551700903,-5.700990714013546,1.1329317479995065,-10.537267513941535,44.45741192361368","0","6"
"1594","86","text","0","4","116727","0-0","","","","","","","","","","","","","","","","","","","","","","","","","","","","","","","","","","","","",""
"","","plant-game","0","5","143836","0-0","","200","160","4","WHEAT CROP","Left","200","160","4","THISTLE WEED","practice","2","1,2,3,4","160,172.59174399597285,125.41856692616368,97.39244302773733","4,3,2,1","WHEAT CROP,WHEAT CROP,WHEAT CROP,WHEAT CROP","160,207.5163251140744,168.51341207169838,145.01640314371213","4,3,2,1","THISTLE WEED,THISTLE WEED,THISTLE WEED,THISTLE WEED","20,20,20,20","20,20,20,20","10,10,10,10","20,20,20,20","0,0,0,0","20,20,20,20","20,20,20,20","20,20,20,20","10,10,10,10","20,20,20,20","0,0,0,0","20,20,20,20","0,1,1,0","3415,5713,916,2091","12.591743995972859,-47.17317706980917,-28.026123898426356,22.789816574449556","47.51632511407438,-39.00291304237602,-23.497008927986258,35.653479576120304","0","0"
"1594","86","text","0","6","145618","0-0","","","","","","","","","","","","","","","","","","","","","","","","","","","","","","","","","","","","",""
"","","plant-game","0","7","160780","0-0","","200","180","2","WHEAT CROP","Right","200","180","2","NETTLE WEED","practice","3","1,2","180,223.92656045942405","2,1","NETTLE WEED,NETTLE WEED","180,169.50162833267535","2,1","WHEAT CROP,WHEAT CROP","0,0","20,20","10,10","20,20","20,20","20,20","0,0","20,20","10,10","20,20","20,20","20,20","0,1","3887,2374","43.92656045942405,4.10518118980071","-10.498371667324633,21.268303354096986","0","0"
"1168","86","text","0","8","162138","0-0","","","","","","","","","","","","","","","","","","","","","","","","","","","","","","","","","","","","",""
"","","plant-game","0","9","175761","0-0","","200","190","1","WHEAT CROP","Right","200","190","1","NETTLE WEED","practice","4","1","190","1","NETTLE WEED","190","1","WHEAT CROP","0","20","10","20","20","20","0","20","10","20","20","20","0","4097","-23.93428942998371","5.973024497594297","0","0"
"686","86","text","0","10","176646","0-0","","","","","","","","","","","","","","","","","","","","","","","","","","","","","","","","","","","","",""
"","","plant-game","0","11","200585","0-0","","200","120","8","CORN CROP","Left","200","160","8","NETTLE WEED","practice","5","1,2,3,4,5,6,7,8","120,128.72863315348343,141.82352890588314,127.88045552545412,107.9413460763658,157.11858752710344,165.56694471432206,191.08729499198566","8,7,6,5,4,3,2,1","CORN CROP,CORN CROP,CORN CROP,CORN CROP,CORN CROP,CORN CROP,CORN CROP,CORN CROP","160,204.6111400876361,229.95371884428647,223.68125695066786,244.54530930779183,240.7581323345198,244.94682081685212,303.9417150575503","8,7,6,5,4,3,2,1","NETTLE WEED,NETTLE WEED,NETTLE WEED,NETTLE WEED,NETTLE WEED,NETTLE WEED,NETTLE WEED,NETTLE WEED","20,20,20,20,20,20,20,20","20,20,20,20,20,20,20,20","10,10,10,10,10,10,10,10","20,20,20,20,20,20,20,20","0,0,0,0,0,0,0,0","20,20,20,20,20,20,20,20","20,20,20,20,20,20,20,20","20,20,20,20,20,20,20,20","10,10,10,10,10,10,10,10","20,20,20,20,20,20,20,20","0,0,0,0,0,0,0,0","20,20,20,20,20,20,20,20","0,1,1,1,0,0,0,0","1253,2093,1449,451,1866,417,369,464","8.728633153483436,13.094895752399703,-13.94307338042902,-19.939109449088324,49.177241450737625,8.448357187218605,25.52035027766359,-3.374103030129941","44.61114008763609,25.34257875665037,-6.272461893618621,20.864052357123967,-3.7871769732720466,4.188688482332346,58.99489424069817,-6.964934078826587","0","0"
"924","86","text","0","12","201669","0-0","","","","","","","","","","","","","","","","","","","","","","","","","","","","","","","","","","","","",""
"","","plant-game","0","13","218786","0-0","","200","180","4","CORN CROP","Right","200","160","4","NETTLE WEED","practice","6","1,2,3,4","160,218.7529867858605,225.87791172434137,239.9247835500119","4,3,2,1","NETTLE WEED,NETTLE WEED,NETTLE WEED,NETTLE WEED","180,175.66637755265265,178.74835445185855,190.9289260715374","4,3,2,1","CORN CROP,CORN CROP,CORN CROP,CORN CROP","0,0,0,0","20,20,20,20","10,10,10,10","20,20,20,20","20,20,20,20","20,20,20,20","0,0,0,0","20,20,20,20","10,10,10,10","20,20,20,20","20,20,20,20","20,20,20,20","1,0,1,1","4486,2130,1481,416","58.75298678586049,7.12492493848088,14.046871825670522,-18.407132236576075","-4.333622447347338,3.0819768992058867,12.180571619678846,-7.26059142951874","0","0"
"620","86","text","0","14","219566","0-0","","","","","","","","","","","","","","","","","","","","","","","","","","","","","","","","","","","","",""
"","","plant-game","0","15","233388","0-0","","200","180","2","CORN CROP","Right","200","190","2","THISTLE WEED","practice","7","1,2","190,201.63935874320785","2,1","THISTLE WEED,THISTLE WEED","180,164.89441396074986","2,1","CORN CROP,CORN CROP","0,0","20,20","10,10","20,20","20,20","20,20","0,0","20,20","10,10","20,20","20,20","20,20","0,0","3962,2540","11.63935874320784,26.195286742002185","-15.105586039250154,-24.47516873733944","0","0"
"900","86","text","0","16","234448","0-0","","","","","","","","","","","","","","","","","","","","","","","","","","","","","","","","","","","","",""
"","","plant-game","0","17","270256","0-0","","200","120","4","WHEAT CROP","Right","200","120","8","THISTLE WEED","practice","8","1,2,3,4,5,6,7,8","120,111.91548530872068,112.82261603076242,145.90956478992587,172.76725273951658,145.2326742899118,147.6712144795991,164.53985597833912","8,7,6,5,4,3,2,1","THISTLE WEED,THISTLE WEED,THISTLE WEED,THISTLE WEED,THISTLE WEED,THISTLE WEED,THISTLE WEED,THISTLE WEED","120,176.8912697833689,223.41590556929583,203.46126946980317,160,190.8877388215609,202.71941304590695,205.90370158594595","4,3,2,1,4,3,2,1","WHEAT CROP,WHEAT CROP,WHEAT CROP,WHEAT CROP,CORN CROP,CORN CROP,CORN CROP,CORN CROP","0,0,0,0,0,0,0,0","20,20,20,20,20,20,20,20","10,10,10,10,10,10,10,10","20,20,20,20,20,20,20,20","20,20,20,20,20,20,20,20","20,20,20,20,20,20,20,20","0,0,0,0,0,0,0,0","20,20,20,20,20,20,20,20","10,10,10,10,10,10,10,10","20,20,20,20,20,20,20,20","20,20,20,20,20,20,20,20","20,20,20,20,20,20,20,20","1,1,1,1,0,0,0,0","4902,1367,3935,1363,5588,1267,3437,1674","-8.084514691279328,0.9071307220417353,33.086948759163434,26.857687949590716,-27.53457844960475,2.438540189687285,16.868641498740043,6.0793338827338586","56.891269783368905,46.52463578592692,-19.954636099492653,20.33998183579423,30.887738821560916,11.831674224346058,3.1842885400390126,3.4509125727474457","0","0"
"704","86","text","0","18","271140","0-0","","","","","","","","","","","","","","","","","","","","","","","","","","","","","","","","","","","","",""
"","","plant-game","0","19","304823","0-0","","200","160","4","WHEAT CROP","Left","200","160","2","THISTLE WEED","practice","9","1,2,3,4","160,160.89879620380577,190.61948268177227,165.15359129860693","4,3,2,1","WHEAT CROP,WHEAT CROP,WHEAT CROP,WHEAT CROP","160,134.21896708552484,180,202.05654316862575","2,1,2,1","THISTLE WEED,THISTLE WEED,NETTLE WEED,NETTLE WEED","20,20,20,20","20,20,20,20","10,10,10,10","20,20,20,20","0,0,0,0","20,20,20,20","20,20,20,20","20,20,20,20","10,10,10,10","20,20,20,20","0,0,0,0","20,20,20,20","1,1,1,0","1717,1230,5147,2456","0.8987962038057838,29.720686477966485,-25.46589138316534,9.793114240109688","-25.781032914475173,13.291693233790232,22.05654316862575,32.69803255689928","0","0"
"177","86","text","0","20","305120","0-0","","","","","","","","","","","","","","","","","","","","","","","","","","","","","","","","","","","","",""
"","","plant-game","0","21","331130","0-0","","200","180","2","WHEAT CROP","Right","200","180","1","THISTLE WEED","practice","10","1,2","180,190","1,1","THISTLE WEED,NETTLE WEED","180,162.90669164797563","2,1","WHEAT CROP,WHEAT CROP","0,0","20,20","10,10","20,20","20,20","20,20","0,0","20,20","10,10","20,20","20,20","20,20","0,0","7690,6796","-25.86621252380464,-18.967358956570454","-17.093308352024366,5.275262981403955","0","0"
"958","86","text","0","22","332244","0-0","","","","","","","","","","","","","","","","","","","","","","","","","","","","","","","","","","","","",""
"","","plant-game","0","23","358579","0-0","","200","120","8","WHEAT CROP","Right","200","160","4","THISTLE WEED","practice","11","1,2,3,4,5,6,7,8","160,183.55884302095356,169.24306958187697,194.51146713276086,160,166.89849656507107,173.02881183459596,211.25615913680323","4,3,2,1,4,3,2,1","THISTLE WEED,THISTLE WEED,THISTLE WEED,THISTLE WEED,NETTLE WEED,NETTLE WEED,NETTLE WEED,NETTLE WEED","120,144.1923209266996,149.8158147414923,140.21488856120544,152.47324318545233,140.28948052201676,139.5615908286808,106.9669875777318","8,7,6,5,4,3,2,1","WHEAT CROP,WHEAT CROP,WHEAT CROP,WHEAT CROP,WHEAT CROP,WHEAT CROP,WHEAT CROP,WHEAT CROP","0,0,0,0,0,0,0,0","20,20,20,20,20,20,20,20","10,10,10,10,10,10,10,10","20,20,20,20,20,20,20,20","20,20,20,20,20,20,20,20","20,20,20,20,20,20,20,20","0,0,0,0,0,0,0,0","20,20,20,20,20,20,20,20","10,10,10,10,10,10,10,10","20,20,20,20,20,20,20,20","20,20,20,20,20,20,20,20","20,20,20,20,20,20,20,20","1,0,0,1,0,0,0,1","4306,1809,920,1318,2478,559,437,3802","23.55884302095356,-14.315773439076608,25.26839755088389,45.96309817375463,6.898496565071056,6.13031526952488,38.22734730220728,20.324382402363174","24.19232092669961,5.623493814792689,-9.600926180286859,12.258354624246888,-12.183762663435584,-0.7278896933359442,-32.594603250949,38.847162282195626","0","0"
"104","86","text","0","24","358793","0-0","","","","","","","","","","","","","","","","","","","","","","","","","","","","","","","","","","","","",""
"","","plant-game","0","25","378205","0-0","","200","180","2","WHEAT CROP","Left","200","160","4","NETTLE WEED","practice","12","1,2,3,4","180,210.8747488996599,180,216.4841056427017","2,1,2,1","WHEAT CROP,WHEAT CROP,CORN CROP,CORN CROP","160,177.5493757714318,173.40824896094443,158.8129458281503","4,3,2,1","NETTLE WEED,NETTLE WEED,NETTLE WEED,NETTLE WEED","20,20,20,20","20,20,20,20","10,10,10,10","20,20,20,20","0,0,0,0","20,20,20,20","20,20,20,20","20,20,20,20","10,10,10,10","20,20,20,20","0,0,0,0","20,20,20,20","1,1,1,1","4126,2580,5055,1449","30.874748899659892,4.024944967133003,36.484105642701714,31.748228600998665","17.5493757714318,-4.141126810487386,-14.59530313279412,28.82768038823182","0","0"
"150","86","text","0","26","378482","0-0","","","","","","","","","","","","","","","","","","","","","","","","","","","","","","","","","","","","",""
"9628","86","text","0","27","389305","0-0","","","","","","","","","","","","","","","","","","","","","","","","","","","","","","","","","","","","",""
"","","plant-game","0","28","408612","0-0","","200","120","4","WHEAT CROP","Left","200","160","1","THISTLE WEED","experimental","1","1,2,3,4","120,144.27706356057456,152.62526469994853,151.0735763302609","4,3,2,1","WHEAT CROP,WHEAT CROP,WHEAT CROP,WHEAT CROP","160,170,166.11233130753888,153.28519634366413","1,3,2,1","THISTLE WEED,NETTLE WEED,NETTLE WEED,NETTLE WEED","20,20,20,20","20,20,20,20","10,10,10,10","20,20,20,20","0,0,0,0","20,20,20,20","20,20,20,20","20,20,20,20","10,10,10,10","20,20,20,20","0,0,0,0","20,20,20,20","1,1,1,1","5680,4342,557,582","24.277063560574568,8.348201139373973,-1.5516883696876342,1.4509072074173999","10.924750077833927,-3.8876686924611055,-12.827134963874755,-29.245612079234174","0","0"
"2546","86","text","0","29","411330","0-0","","","","","","","","","","","","","","","","","","","","","","","","","","","","","","","","","","","","",""
"","","plant-game","0","30","418731","0-0","","200","180","1","WHEAT CROP","Right","200","190","1","THISTLE WEED","experimental","2","1","190","1","THISTLE WEED","180","1","WHEAT CROP","0","20","10","20","20","20","0","20","10","20","20","20","0","3857","14.714421143243063","-26.016484923826848","0","0"
"90","86","text","0","31","418951","0-0","","","","","","","","","","","","","","","","","","","","","","","","","","","","","","","","","","","","",""
"","","plant-game","0","32","431856","0-0","","200","190","8","CORN CROP","Left","200","180","8","NETTLE WEED","experimental","3","1,2,3,4,5,6,7,8","190,182.25551031708474,174.02165535616646,175.64179617456097,169.24703266627202,191.70652355031223,200.42803444730484,210.3550209377992","8,7,6,5,4,3,2,1","CORN CROP,CORN CROP,CORN CROP,CORN CROP,CORN CROP,CORN CROP,CORN CROP,CORN CROP","180,175.01145314940177,205.74878563791478,276.966928138032,255.6209350825081,291.05105243128,297.79660967400036,324.2516766340634","8,7,6,5,4,3,2,1","NETTLE WEED,NETTLE WEED,NETTLE WEED,NETTLE WEED,NETTLE WEED,NETTLE WEED,NETTLE WEED,NETTLE WEED","20,20,20,20,20,20,20,20","20,20,20,20,20,20,20,20","10,10,10,10,10,10,10,10","20,20,20,20,20,20,20,20","0,0,0,0,0,0,0,0","20,20,20,20,20,20,20,20","20,20,20,20,20,20,20,20","20,20,20,20,20,20,20,20","10,10,10,10,10,10,10,10","20,20,20,20,20,20,20,20","0,0,0,0,0,0,0,0","20,20,20,20,20,20,20,20","1,1,0,0,0,0,0,0","3502,1759,2280,489,454,180,111,150","-7.744489682915257,-8.233854960918276,1.620140818394514,-6.39476350828895,22.459490884040203,8.721510896992617,9.926986490494357,14.952567822098576","-4.9885468505982296,30.737332488512994,71.21814250011722,-21.345993055523905,35.43011734877193,6.745557242720315,26.45506696006307,-11.404332123513477","0","0"
"102","86","text","0","33","432078","0-0","","","","","","","","","","","","","","","","","","","","","","","","","","","","","","","","","","","","",""
"","","plant-game","0","34","436909","0-0","","200","190","1","WHEAT CROP","Left","200","120","1","NETTLE WEED","experimental","4","1","190","1","WHEAT CROP","120","1","NETTLE WEED","20","20","10","20","0","20","20","20","10","20","0","20","0","1957","70.02905213307673","58.59745077812391","0","0"
"657","86","text","0","35","437716","0-0","","","","","","","","","","","","","","","","","","","","","","","","","","","","","","","","","","","","",""
"","","plant-game","0","36","442020","0-0","","200","160","2","WHEAT CROP","Right","200","160","2","NETTLE WEED","experimental","5","1,2","160,174.27533097536465","2,1","NETTLE WEED,NETTLE WEED","160,143.9085216754034","2,1","WHEAT CROP,WHEAT CROP","0,0","20,20","10,10","20,20","20,20","20,20","0,0","20,20","10,10","20,20","20,20","20,20","0,0","1131,398","14.275330975364644,-9.505553175302195","-16.09147832459662,15.04609170766243","0","0"
"77","86","text","0","37","442237","0-0","","","","","","","","","","","","","","","","","","","","","","","","","","","","","","","","","","","","",""
"","","plant-game","0","38","459327","0-0","","200","120","4","CORN CROP","Right","200","120","8","THISTLE WEED","experimental","6","1,2,3,4,5,6,7,8","120,136.56841365041095,137.34086123591536,154.92608190528017,178.04472957345547,192.65870991892893,217.3807387275746,236.04461683095326","8,7,6,5,4,3,2,1","THISTLE WEED,THISTLE WEED,THISTLE WEED,THISTLE WEED,THISTLE WEED,THISTLE WEED,THISTLE WEED,THISTLE WEED","120,130.4054470392476,188.30481573312804,200.05795919119672,160,158.01096905357073,183.71818013846672,197.90050766285526","4,3,2,1,4,3,2,1","CORN CROP,CORN CROP,CORN CROP,CORN CROP,WHEAT CROP,WHEAT CROP,WHEAT CROP,WHEAT CROP","0,0,0,0,0,0,0,0","20,20,20,20,20,20,20,20","10,10,10,10,10,10,10,10","20,20,20,20,20,20,20,20","20,20,20,20,20,20,20,20","20,20,20,20,20,20,20,20","0,0,0,0,0,0,0,0","20,20,20,20,20,20,20,20","10,10,10,10,10,10,10,10","20,20,20,20,20,20,20,20","20,20,20,20,20,20,20,20","20,20,20,20,20,20,20,20","1,1,1,0,0,1,0,0","2557,390,481,551,2995,617,1614,633","16.56841365041094,0.7724475855044055,17.585220669364805,23.11864766817529,14.613980345473461,24.72202880864566,18.66387810337865,27.872396047364546","10.405447039247594,57.899368693880426,11.753143458068681,5.602758122956586,-1.9890309464292701,25.707211084895988,14.182327524388548,-23.18488446418342","0","0"
"620","86","text","0","39","460117","0-0","","","","","","","","","","","","","","","","","","","","","","","","","","","","","","","","","","","","",""
"","","plant-game","0","40","477748","0-0","","200","120","8","WHEAT CROP","Right","200","160","4","THISTLE WEED","experimental","7","1,2,3,4,5,6,7,8","160,148.6336082918472,143.7988728152347,162.81587003622326,160,169.25340429480178,161.5495071312918,146.9808260969937","4,3,2,1,4,3,2,1","THISTLE WEED,THISTLE WEED,THISTLE WEED,THISTLE WEED,NETTLE WEED,NETTLE WEED,NETTLE WEED,NETTLE WEED","120,111.66747769711446,119.76353667936694,156.32910617704255,193.7143972388008,212.73972006519062,213.4042871287838,196.45724618813796","8,7,6,5,4,3,2,1","WHEAT CROP,WHEAT CROP,WHEAT CROP,WHEAT CROP,WHEAT CROP,WHEAT CROP,WHEAT CROP,WHEAT CROP","0,0,0,0,0,0,0,0","20,20,20,20,20,20,20,20","10,10,10,10,10,10,10,10","20,20,20,20,20,20,20,20","20,20,20,20,20,20,20,20","20,20,20,20,20,20,20,20","0,0,0,0,0,0,0,0","20,20,20,20,20,20,20,20","10,10,10,10,10,10,10,10","20,20,20,20,20,20,20,20","20,20,20,20,20,20,20,20","20,20,20,20,20,20,20,20","0,0,1,0,0,0,0,0","3078,527,526,953,2985,1565,519,280","-11.366391708152799,-4.834735476612504,19.016997220988586,-7.675508708803123,9.253404294801776,-7.703897163509998,-14.568681034298091,-24.327578779248462","-8.332522302885536,8.096058982252476,36.565569497675625,37.38529106175827,19.025322826389814,0.6645670635931864,-16.947040940645834,-12.090777058590096","0","0"
"117","86","text","0","41","477965","0-0","","","","","","","","","","","","","","","","","","","","","","","","","","","","","","","","","","","","",""
"","","plant-game","0","42","489410","0-0","","200","190","4","WHEAT CROP","Left","200","190","1","NETTLE WEED","experimental","8","1,2,3,4","190,230.30040865373212,206.9780271763687,186.3794011218284","4,3,2,1","WHEAT CROP,WHEAT CROP,WHEAT CROP,WHEAT CROP","190,170,173.8633701460321,201.5239998594958","1,3,2,1","NETTLE WEED,THISTLE WEED,THISTLE WEED,THISTLE WEED","20,20,20,20","20,20,20,20","10,10,10,10","20,20,20,20","0,0,0,0","20,20,20,20","20,20,20,20","20,20,20,20","10,10,10,10","20,20,20,20","0,0,0,0","20,20,20,20","0,1,1,0","2160,1381,467,756","40.300408653732106,-23.32238147736341,-20.598626054540297,-19.02014214951597","38.43759937980394,3.8633701460321186,27.660629713463685,-11.136403822403707","0","0"
"768","86","text","0","43","490338","0-0","","","","","","","","","","","","","","","","","","","","","","","","","","","","","","","","","","","","",""
"","","plant-game","0","44","504970","0-0","","200","180","2","WHEAT CROP","Right","200","190","4","THISTLE WEED","experimental","9","1,2,3,4","190,198.70460198770834,194.676723985033,223.6513951840766","4,3,2,1","THISTLE WEED,THISTLE WEED,THISTLE WEED,THISTLE WEED","180,196.97995499937306,180,227.87314519277413","2,1,2,1","WHEAT CROP,WHEAT CROP,CORN CROP,CORN CROP","0,0,0,0","20,20,20,20","10,10,10,10","20,20,20,20","20,20,20,20","20,20,20,20","0,0,0,0","20,20,20,20","10,10,10,10","20,20,20,20","20,20,20,20","20,20,20,20","0,1,1,1","3732,1004,1717,2438","8.704601987708337,-4.027878002675365,28.974671199043605,17.15276890721902","16.979954999373057,-5.955629971523297,47.87314519277413,14.896754850489746","0","0"
"4566","86","text","0","45","509706","0-0","","","","","","","","","","","","","","","","","","","","","","","","","","","","","","","","","","","","",""
"","","plant-game","0","46","527605","0-0","","200","120","2","CORN CROP","Left","200","160","8","NETTLE WEED","experimental","10","1,2,3,4,5,6,7,8","120,105.63188332536782,140,133.4488057750915,154.8657494543695,168.99138529319558,171.34206446605657,185.4943897601274","2,1,6,5,4,3,2,1","CORN CROP,CORN CROP,WHEAT CROP,WHEAT CROP,WHEAT CROP,WHEAT CROP,WHEAT CROP,WHEAT CROP","160,161.83906861119507,161.1418581861176,179.43846145524674,162.79145064322626,156.7850476553378,196.0188497609441,194.09593226703277","8,7,6,5,4,3,2,1","NETTLE WEED,NETTLE WEED,NETTLE WEED,NETTLE WEED,NETTLE WEED,NETTLE WEED,NETTLE WEED,NETTLE WEED","20,20,20,20,20,20,20,20","20,20,20,20,20,20,20,20","10,10,10,10,10,10,10,10","20,20,20,20,20,20,20,20","0,0,0,0,0,0,0,0","20,20,20,20,20,20,20,20","20,20,20,20,20,20,20,20","20,20,20,20,20,20,20,20","10,10,10,10,10,10,10,10","20,20,20,20,20,20,20,20","0,0,0,0,0,0,0,0","20,20,20,20,20,20,20,20","0,0,1,1,1,1,0,0","5051,588,688,658,1756,456,840,828","-14.368116674632176,-6.554282406070669,-6.551194224908508,21.416943679278,14.125635838826064,2.350679172860989,14.152325294070822,-0.5305928047961608","1.8390686111950743,-0.6972104250774791,18.296603269129147,-16.647010812020483,-6.006402987888464,39.233802105606316,-1.9229174939113491,36.95628769283377","0","0"
"721","86","text","0","47","528476","0-0","","","","","","","","","","","","","","","","","","","","","","","","","","","","","","","","","","","","",""
"","","plant-game","0","48","533257","0-0","","200","190","2","CORN CROP","Left","200","120","2","NETTLE WEED","experimental","11","1,2","190,210.32653844625224","2,1","CORN CROP,CORN CROP","120,113.57195863889632","2,1","NETTLE WEED,NETTLE WEED","20,20","20,20","10,10","20,20","0,0","20,20","20,20","20,20","10,10","20,20","0,0","20,20","0,0","733,1384","20.32653844625224,4.469764947620122","-6.428041361103688,18.091436072714025","0","0"
"833","86","text","0","49","534234","0-0","","","","","","","","","","","","","","","","","","","","","","","","","","","","","","","","","","","","",""
"","","plant-game","0","50","540716","0-0","","200","190","2","CORN CROP","Left","200","180","4","NETTLE WEED","experimental","12","1,2,3,4","190,202.31331621164873,180,214.89061002229002","2,1,2,1","CORN CROP,CORN CROP,WHEAT CROP,WHEAT CROP","180,207.34312391881133,197.91391296288518,207.11927123281535","4,3,2,1","NETTLE WEED,NETTLE WEED,NETTLE WEED,NETTLE WEED","20,20,20,20","20,20,20,20","10,10,10,10","20,20,20,20","0,0,0,0","20,20,20,20","20,20,20,20","20,20,20,20","10,10,10,10","20,20,20,20","0,0,0,0","20,20,20,20","0,0,0,0","563,139,734,129","12.313316211648736,12.844605367442394,34.890610022290026,9.976524477476843","27.343123918811315,-9.429210955926159,9.20535826993017,-4.011792010548348","0","0"
"782","86","text","0","51","541628","0-0","","","","","","","","","","","","","","","","","","","","","","","","","","","","","","","","","","","","",""
"","","plant-game","0","52","556174","0-0","","200","180","4","CORN CROP","Left","200","190","8","NETTLE WEED","experimental","13","1,2,3,4,5,6,7,8","180,182.40584556495924,202.05494990237054,227.79548088818976,160,170.8389419452856,164.25413593676893,168.95755063738662","4,3,2,1,4,3,2,1","CORN CROP,CORN CROP,CORN CROP,CORN CROP,WHEAT CROP,WHEAT CROP,WHEAT CROP,WHEAT CROP","190,172.38206763092498,214.31946080597623,205.99263670453342,226.9208977333321,224.61339640158164,234.46457147251593,282.90397718512105","8,7,6,5,4,3,2,1","NETTLE WEED,NETTLE WEED,NETTLE WEED,NETTLE WEED,NETTLE WEED,NETTLE WEED,NETTLE WEED,NETTLE WEED","20,20,20,20,20,20,20,20","20,20,20,20,20,20,20,20","10,10,10,10,10,10,10,10","20,20,20,20,20,20,20,20","0,0,0,0,0,0,0,0","20,20,20,20,20,20,20,20","20,20,20,20,20,20,20,20","20,20,20,20,20,20,20,20","10,10,10,10,10,10,10,10","20,20,20,20,20,20,20,20","0,0,0,0,0,0,0,0","20,20,20,20,20,20,20,20","1,1,0,0,1,0,1,0","561,383,1414,1336,1032,1201,1010,1096","2.4058455649592263,19.649104337411305,25.740530985819213,54.64040466714882,10.838941945285608,-6.584806008516651,4.703414700617697,33.04867996599832","-17.617932369075024,41.93739317505124,-8.326824101442803,20.928261028798687,-2.307501331750471,9.851175070934302,48.43940571260514,36.38030158084356","0","0"
"854","86","text","0","53","557180","0-0","","","","","","","","","","","","","","","","","","","","","","","","","","","","","","","","","","","","",""
"","","plant-game","0","54","570546","0-0","","200","180","2","WHEAT CROP","Right","200","180","8","THISTLE WEED","experimental","14","1,2,3,4,5,6,7,8","180,189.7466113796668,188.64996721843863,159.23597889266793,132.8977524793691,136.63627089150705,110.48141968205557,113.14817666609136","8,7,6,5,4,3,2,1","THISTLE WEED,THISTLE WEED,THISTLE WEED,THISTLE WEED,THISTLE WEED,THISTLE WEED,THISTLE WEED,THISTLE WEED","180,160.21214885044574,140,141.66705694049105,131.1769808040089,136.28663126289152,135.94545449324988,157.44338161302244","2,1,6,5,4,3,2,1","WHEAT CROP,WHEAT CROP,CORN CROP,CORN CROP,CORN CROP,CORN CROP,CORN CROP,CORN CROP","0,0,0,0,0,0,0,0","20,20,20,20,20,20,20,20","10,10,10,10,10,10,10,10","20,20,20,20,20,20,20,20","20,20,20,20,20,20,20,20","20,20,20,20,20,20,20,20","0,0,0,0,0,0,0,0","20,20,20,20,20,20,20,20","10,10,10,10,10,10,10,10","20,20,20,20,20,20,20,20","20,20,20,20,20,20,20,20","20,20,20,20,20,20,20,20","0,1,0,0,1,1,1,1","1892,770,1348,975,538,423,613,405","9.746611379666808,-1.096644161228177,-29.4139883257707,-26.338226413298834,3.7385184121379496,-26.15485120945148,2.6667569840357928,6.2020727845659565","-19.787851149554264,2.274666719179468,1.6670569404910567,-10.490076136482148,5.109650458882609,-0.34117676964163124,21.49792711977257,22.371873362225706","0","0"
"1009","86","text","0","55","571742","0-0","","","","","","","","","","","","","","","","","","","","","","","","","","","","","","","","","","","","",""
"","","plant-game","0","56","583566","0-0","","200","120","1","CORN CROP","Left","200","160","2","THISTLE WEED","experimental","15","1,2","120,190","1,1","CORN CROP,WHEAT CROP","160,207.8068845065754","2,1","THISTLE WEED,THISTLE WEED","20,20","20,20","10,10","20,20","0,0","20,20","20,20","20,20","10,10","20,20","0,0","20,20","0,1","5841,699","-11.934353242569024,-29.066798991974267","47.8068845065754,-8.15733027505752","0","0"
"230","86","text","0","57","583956","0-0","","","","","","","","","","","","","","","","","","","","","","","","","","","","","","","","","","","","",""
"","","plant-game","0","58","593534","0-0","","200","180","1","CORN CROP","Right","200","160","8","THISTLE WEED","experimental","16","1,2,3,4,5,6,7,8","160,205.22275018149085,217.60629641171477,225.57300999349928,222.04671813074555,259.14778641561765,231.78458822076107,202.91612755055837","8,7,6,5,4,3,2,1","THISTLE WEED,THISTLE WEED,THISTLE WEED,THISTLE WEED,THISTLE WEED,THISTLE WEED,THISTLE WEED,THISTLE WEED","180,130,132.8536931036537,132.7759195390503,147.7113082911941,134.18248964081224,108.86534647728887,113.33637182880472","1,7,6,5,4,3,2,1","CORN CROP,WHEAT CROP,WHEAT CROP,WHEAT CROP,WHEAT CROP,WHEAT CROP,WHEAT CROP,WHEAT CROP","0,0,0,0,0,0,0,0","20,20,20,20,20,20,20,20","10,10,10,10,10,10,10,10","20,20,20,20,20,20,20,20","20,20,20,20,20,20,20,20","20,20,20,20,20,20,20,20","0,0,0,0,0,0,0,0","20,20,20,20,20,20,20,20","10,10,10,10,10,10,10,10","20,20,20,20,20,20,20,20","20,20,20,20,20,20,20,20","20,20,20,20,20,20,20,20","0,1,1,0,0,0,0,0","629,483,980,243,157,459,202,309","45.222750181490845,12.383546230223928,7.966713581784525,-3.5262918627537476,37.10106828487208,-27.363198194856594,-28.868460670202683,-13.173161569137093","-12.678577221744272,2.8536931036537005,-0.07777356460341167,14.935388752143766,-13.528818650381847,-25.31714316352337,4.471025351515848,7.733955984821966","0","0"
"1017","86","text","0","59","594711","0-0","","","","","","","","","","","","","","","","","","","","","","","","","","","","","","","","","","","","",""
"","","plant-game","0","60","601954","0-0","","200","180","4","CORN CROP","Right","200","180","4","NETTLE WEED","experimental","17","1,2,3,4","180,153.91045942433234,145.59059774258333,117.65450164133915","4,3,2,1","NETTLE WEED,NETTLE WEED,NETTLE WEED,NETTLE WEED","180,163.29710405167123,151.35881937674966,178.0850792078144","4,3,2,1","CORN CROP,CORN CROP,CORN CROP,CORN CROP","0,0,0,0","20,20,20,20","10,10,10,10","20,20,20,20","20,20,20,20","20,20,20,20","0,0,0,0","20,20,20,20","10,10,10,10","20,20,20,20","20,20,20,20","20,20,20,20","0,0,0,0","757,634,195,704","-26.089540575667645,-8.319861681749018,-27.936096101244182,36.593329862048925","-16.70289594832876,-11.938284674921565,26.72625983106474,-57.732958052463594","0","0"
"890","86","text","0","61","603013","0-0","","","","","","","","","","","","","","","","","","","","","","","","","","","","","","","","","","","","",""
"","","plant-game","0","62","620145","0-0","","200","190","8","WHEAT CROP","Left","200","120","2","THISTLE WEED","experimental","18","1,2,3,4,5,6,7,8","190,166.6052851817879,185.81400613948293,197.61721411027486,224.701121847499,259.03073847061967,251.0213004087973,265.26682426816836","8,7,6,5,4,3,2,1","WHEAT CROP,WHEAT CROP,WHEAT CROP,WHEAT CROP,WHEAT CROP,WHEAT CROP,WHEAT CROP,WHEAT CROP","120,135.5474355764418,140,150.170021279323,202.3919133978083,266.0439146892659,264.53520073416564,278.4612857188201","2,1,6,5,4,3,2,1","THISTLE WEED,THISTLE WEED,NETTLE WEED,NETTLE WEED,NETTLE WEED,NETTLE WEED,NETTLE WEED,NETTLE WEED","20,20,20,20,20,20,20,20","20,20,20,20,20,20,20,20","10,10,10,10,10,10,10,10","20,20,20,20,20,20,20,20","0,0,0,0,0,0,0,0","20,20,20,20,20,20,20,20","20,20,20,20,20,20,20,20","20,20,20,20,20,20,20,20","10,10,10,10,10,10,10,10","20,20,20,20,20,20,20,20","0,0,0,0,0,0,0,0","20,20,20,20,20,20,20,20","1,1,0,0,0,1,1,1","548,503,950,1237,2475,1968,477,473","-23.394714818212094,19.208720957695018,11.803207970791942,27.083907737224138,34.32961662312066,-8.009438061822365,14.24552385937108,17.906452754789626","15.547435576441815,19.54858865409394,10.170021279322995,52.221892118485314,63.65200129145754,-1.5087139551002324,13.926084984654421,-34.32194949750289","0","0"
"754","86","text","0","63","621049","0-0","","","","","","","","","","","","","","","","","","","","","","","","","","","","","","","","","","","","",""
"","","plant-game","0","64","630880","0-0","","200","180","2","CORN CROP","Left","200","190","1","NETTLE WEED","experimental","19","1,2","180,217.2172860952965","2,1","CORN CROP,CORN CROP","190,190","1,1","NETTLE WEED,THISTLE WEED","20,20","20,20","10,10","20,20","0,0","20,20","20,20","20,20","10,10","20,20","0,0","20,20","0,0","1822,847","37.217286095296494,16.345131489818392","-4.640563981515385,37.46175283442015","0","0"
"644","86","text","0","65","631684","0-0","","","","","","","","","","","","","","","","","","","","","","","","","","","","","","","","","","","","",""
"","","plant-game","0","66","637239","0-0","","200","180","1","CORN CROP","Right","200","160","1","THISTLE WEED","experimental","20","1","160","1","THISTLE WEED","180","1","CORN CROP","0","20","10","20","20","20","0","20","10","20","20","20","0","2471","-4.271748873558266","13.807235736891194","0","0"
"207","86","text","0","67","637606","0-0","","","","","","","","","","","","","","","","","","","","","","","","","","","","","","","","","","","","",""
"","","plant-game","0","68","646036","0-0","","200","120","4","WHEAT CROP","Left","200","180","1","THISTLE WEED","experimental","21","1,2,3,4","120,149.13581942457037,166.62256554414768,158.63334533627636","4,3,2,1","WHEAT CROP,WHEAT CROP,WHEAT CROP,WHEAT CROP","180,170,152.11838185215308,131.42230142441298","1,3,2,1","THISTLE WEED,NETTLE WEED,NETTLE WEED,NETTLE WEED","20,20,20,20","20,20,20,20","10,10,10,10","20,20,20,20","0,0,0,0","20,20,20,20","20,20,20,20","20,20,20,20","10,10,10,10","20,20,20,20","0,0,0,0","20,20,20,20","0,1,1,0","693,879,554,586","29.13581942457038,17.48674611957732,-7.989220207871304,19.06877814693663","30.53230588622263,-17.881618147846915,-20.6960804277401,1.770917774190412","0","0"
"120","86","text","0","69","646286","0-0","","","","","","","","","","","","","","","","","","","","","","","","","","","","","","","","","","","","",""
"","","plant-game","0","70","659959","0-0","","200","180","4","CORN CROP","Right","200","160","2","NETTLE WEED","experimental","22","1,2,3,4","160,181.1638598609578,180,209.0811462200025","2,1,2,1","NETTLE WEED,NETTLE WEED,THISTLE WEED,THISTLE WEED","180,176.06075190569086,168.11629685321535,181.77719539636203","4,3,2,1","CORN CROP,CORN CROP,CORN CROP,CORN CROP","0,0,0,0","20,20,20,20","10,10,10,10","20,20,20,20","20,20,20,20","20,20,20,20","0,0,0,0","20,20,20,20","10,10,10,10","20,20,20,20","20,20,20,20","20,20,20,20","0,0,1,0","711,421,861,4239","21.163859860957825,-2.301736823358093,29.08114622000251,-34.34902628365243","-3.9392480943091455,-7.944455052475532,13.660898543146695,17.072499760199634","0","0"
"691","86","text","0","71","660850","0-0","","","","","","","","","","","","","","","","","","","","","","","","","","","","","","","","","","","","",""
"","","plant-game","0","72","666702","0-0","","200","180","1","WHEAT CROP","Right","200","180","2","NETTLE WEED","experimental","23","1,2","180,204.13841878194702","2,1","NETTLE WEED,NETTLE WEED","180,190","1,1","WHEAT CROP,CORN CROP","0,0","20,20","10,10","20,20","20,20","20,20","0,0","20,20","10,10","20,20","20,20","20,20","0,1","847,983","24.13841878194703,52.8821596475034","-12.232986845077944,49.11430303040966","0","0"
"80","86","text","0","73","666902","0-0","","","","","","","","","","","","","","","","","","","","","","","","","","","","","","","","","","","","",""
"","","plant-game","0","74","676988","0-0","","200","190","4","CORN CROP","Left","200","180","1","NETTLE WEED","experimental","24","1,2,3,4","190,211.02309545379697,259.81269765057243,285.0070944373995","4,3,2,1","CORN CROP,CORN CROP,CORN CROP,CORN CROP","180,170,166.0335841994251,199.2519118401132","1,3,2,1","NETTLE WEED,THISTLE WEED,THISTLE WEED,THISTLE WEED","20,20,20,20","20,20,20,20","10,10,10,10","20,20,20,20","0,0,0,0","20,20,20,20","20,20,20,20","20,20,20,20","10,10,10,10","20,20,20,20","0,0,0,0","20,20,20,20","0,0,0,1","1165,1102,1635,1304","21.023095453796977,48.789602196775434,25.19439678682706,0.8280131589798616","36.15820769705135,-3.9664158005749073,33.218327640688095,-26.05963884032967","0","0"
"227","86","text","0","75","677315","0-0","","","","","","","","","","","","","","","","","","","","","","","","","","","","","","","","","","","","",""
"","","plant-game","0","76","690236","0-0","","200","120","8","CORN CROP","Right","200","120","4","NETTLE WEED","experimental","25","1,2,3,4,5,6,7,8","120,121.87967243518125,132.967828915162,146.72262102186582,160,120.37737733448193,132.08245172148781,118.50898585261545","4,3,2,1,4,3,2,1","NETTLE WEED,NETTLE WEED,NETTLE WEED,NETTLE WEED,THISTLE WEED,THISTLE WEED,THISTLE WEED,THISTLE WEED","120,121.11496714763345,151.48157028654575,156.2435603920065,154.4086081346079,167.81929432756436,168.0013809455492,177.94148041627037","8,7,6,5,4,3,2,1","CORN CROP,CORN CROP,CORN CROP,CORN CROP,CORN CROP,CORN CROP,CORN CROP,CORN CROP","0,0,0,0,0,0,0,0","20,20,20,20,20,20,20,20","10,10,10,10,10,10,10,10","20,20,20,20,20,20,20,20","20,20,20,20,20,20,20,20","20,20,20,20,20,20,20,20","0,0,0,0,0,0,0,0","20,20,20,20,20,20,20,20","10,10,10,10,10,10,10,10","20,20,20,20,20,20,20,20","20,20,20,20,20,20,20,20","20,20,20,20,20,20,20,20","0,1,1,1,0,0,1,0","910,1317,1503,441,946,601,654,987","1.879672435181248,11.088156479980738,13.75479210670383,-5.907152841784008,-39.62262266551806,11.705074387005894,-13.573465868872361,-7.761035320857896","1.1149671476334486,30.36660313891229,4.761990105460727,-1.834952257398573,13.410686192956447,0.18208661798481357,9.940099470721185,-33.872900364389565","0","0"
"778","86","text","0","77","691154","0-0","","","","","","","","","","","","","","","","","","","","","","","","","","","","","","","","","","","","",""
"","","plant-game","0","78","700631","0-0","","200","120","1","WHEAT CROP","Left","200","160","4","NETTLE WEED","experimental","26","1,2,3,4","120,170,237.9147026887766,231.33519085685796","1,3,2,1","WHEAT CROP,CORN CROP,CORN CROP,CORN CROP","160,151.22627085844016,173.7628102711186,205.9023740918398","4,3,2,1","NETTLE WEED,NETTLE WEED,NETTLE WEED,NETTLE WEED","20,20,20,20","20,20,20,20","10,10,10,10","20,20,20,20","0,0,0,0","20,20,20,20","20,20,20,20","20,20,20,20","10,10,10,10","20,20,20,20","0,0,0,0","20,20,20,20","0,0,1,0","504,762,2074,756","51.153280566898715,67.9147026887766,-6.579511831918631,9.73148995456507","-8.773729141559855,22.53653941267846,32.139563820721186,32.33901588798277","0","0"
"105","86","text","0","79","700866","0-0","","","","","","","","","","","","","","","","","","","","","","","","","","","","","","","","","","","","",""
"","","plant-game","0","80","705267","0-0","","200","120","2","WHEAT CROP","Right","200","160","2","NETTLE WEED","experimental","27","1,2","160,185.20096309517885","2,1","NETTLE WEED,NETTLE WEED","120,121.05364804157925","2,1","WHEAT CROP,WHEAT CROP","0,0","20,20","10,10","20,20","20,20","20,20","0,0","20,20","10,10","20,20","20,20","20,20","0,0","732,414","25.200963095178835,4.382429490536221","1.053648041579256,6.278203257633464","0","0"
"907","86","text","0","81","706334","0-0","","","","","","","","","","","","","","","","","","","","","","","","","","","","","","","","","","","","",""
"","","plant-game","0","82","716480","0-0","","200","160","1","WHEAT CROP","Right","200","120","4","NETTLE WEED","experimental","28","1,2,3,4","120,154.55389372083184,180.6428359509483,219.14400532894626","4,3,2,1","NETTLE WEED,NETTLE WEED,NETTLE WEED,NETTLE WEED","160,170,156.9025414755448,200.7623434303786","1,3,2,1","WHEAT CROP,CORN CROP,CORN CROP,CORN CROP","0,0,0,0","20,20,20,20","10,10,10,10","20,20,20,20","20,20,20,20","20,20,20,20","0,0,0,0","20,20,20,20","10,10,10,10","20,20,20,20","20,20,20,20","20,20,20,20","1,0,1,0","748,856,877,2745","34.553893720831844,26.08894223011646,38.50116937799797,-35.97869464777243","-9.528961416602225,-13.09745852445518,43.85980195483378,0.8624636279789438","0","0"
"745","86","text","0","83","717415","0-0","","","","","","","","","","","","","","","","","","","","","","","","","","","","","","","","","","","","",""
"","","plant-game","0","84","729917","0-0","","200","160","4","WHEAT CROP","Right","200","160","8","NETTLE WEED","experimental","29","1,2,3,4,5,6,7,8","160,174.29301696867685,222.76008090050283,201.28560964242195,171.65165342779554,193.68876677840512,212.00498239121183,210.26540773417992","8,7,6,5,4,3,2,1","NETTLE WEED,NETTLE WEED,NETTLE WEED,NETTLE WEED,NETTLE WEED,NETTLE WEED,NETTLE WEED,NETTLE WEED","160,221.20792339229445,224.02300452483752,223.8020669112064,160,171.32731723930505,176.82580709542776,132.66652205769566","4,3,2,1,4,3,2,1","WHEAT CROP,WHEAT CROP,WHEAT CROP,WHEAT CROP,CORN CROP,CORN CROP,CORN CROP,CORN CROP","0,0,0,0,0,0,0,0","20,20,20,20,20,20,20,20","10,10,10,10,10,10,10,10","20,20,20,20,20,20,20,20","20,20,20,20,20,20,20,20","20,20,20,20,20,20,20,20","0,0,0,0,0,0,0,0","20,20,20,20,20,20,20,20","10,10,10,10,10,10,10,10","20,20,20,20,20,20,20,20","20,20,20,20,20,20,20,20","20,20,20,20,20,20,20,20","1,1,0,0,1,0,0,0","742,1423,1007,440,1045,667,709,592","14.293016968676838,48.46706393182596,-21.474471258080893,-29.633956214626412,22.037113350609584,18.316215612806698,-1.7395746570319002,-4.377013155666029","61.20792339229446,2.815081132543064,-0.2209376136311319,1.9545720542242195,11.327317239305055,5.4984898561227125,-44.159285037732104,-0.5836225536446069","0","0"
"100","86","text","0","85","730183","0-0","","","","","","","","","","","","","","","","","","","","","","","","","","","","","","","","","","","","",""
"","","plant-game","0","86","739248","0-0","","200","160","4","CORN CROP","Right","200","160","2","NETTLE WEED","experimental","30","1,2,3,4","160,136.51554010045612,180,201.00662878266672","2,1,2,1","NETTLE WEED,NETTLE WEED,THISTLE WEED,THISTLE WEED","160,194.12040801959117,219.13311488714592,245.50350265262733","4,3,2,1","CORN CROP,CORN CROP,CORN CROP,CORN CROP","0,0,0,0","20,20,20,20","10,10,10,10","20,20,20,20","20,20,20,20","20,20,20,20","0,0,0,0","20,20,20,20","10,10,10,10","20,20,20,20","20,20,20,20","20,20,20,20","0,0,1,0","1231,644,1521,781","-23.484459899543893,3.224663596380628,21.00662878266672,-25.243515840109577","34.120408019591174,25.012706867554762,26.370387765481414,24.805758664788588","0","0"
"90","86","text","0","87","739518","0-0","","","","","","","","","","","","","","","","","","","","","","","","","","","","","","","","","","","","",""
"","","plant-game","0","88","752582","0-0","","200","190","8","CORN CROP","Left","200","160","2","THISTLE WEED","experimental","31","1,2,3,4,5,6,7,8","190,177.830656371422,165.33673781885057,193.3116021999134,243.33453070765927,245.89412827002536,231.77657482910746,176.97839483735186","8,7,6,5,4,3,2,1","CORN CROP,CORN CROP,CORN CROP,CORN CROP,CORN CROP,CORN CROP,CORN CROP,CORN CROP","160,155.8007892113348,140,139.5072275904002,152.83753070696156,144.6279816516805,113.5472968968514,106.77137718728986","2,1,6,5,4,3,2,1","THISTLE WEED,THISTLE WEED,NETTLE WEED,NETTLE WEED,NETTLE WEED,NETTLE WEED,NETTLE WEED,NETTLE WEED","20,20,20,20,20,20,20,20","20,20,20,20,20,20,20,20","10,10,10,10,10,10,10,10","20,20,20,20,20,20,20,20","0,0,0,0,0,0,0,0","20,20,20,20,20,20,20,20","20,20,20,20,20,20,20,20","20,20,20,20,20,20,20,20","10,10,10,10,10,10,10,10","20,20,20,20,20,20,20,20","0,0,0,0,0,0,0,0","20,20,20,20,20,20,20,20","0,1,0,0,1,1,1,0","716,620,891,407,1428,541,804,673","-12.169343628577998,-12.493918552571433,27.974864381062854,50.022928507745874,2.559597562366087,-14.117553440917906,-54.7981799917556,12.963088625373231","-4.199210788665194,30.95302018726041,-0.4927724095998123,13.330303116561367,-8.209549055281073,-31.080684754829097,-6.77591970956155,19.728334548722476","0","0"
"104","86","text","0","89","752806","0-0","","","","","","","","","","","","","","","","","","","","","","","","","","","","","","","","","","","","",""
"","","plant-game","0","90","765313","0-0","","200","180","8","CORN CROP","Left","200","180","2","THISTLE WEED","experimental","32","1,2,3,4,5,6,7,8","180,171.3658946544353,156.10994693715944,159.90122359033998,158.30962022149168,204.15520146258197,224.95759520293896,231.76710089177277","8,7,6,5,4,3,2,1","CORN CROP,CORN CROP,CORN CROP,CORN CROP,CORN CROP,CORN CROP,CORN CROP,CORN CROP","180,193.2629533144756,140,171.28181698016266,167.966863261076,172.03766305495586,161.7594272279934,129.65419147145573","2,1,6,5,4,3,2,1","THISTLE WEED,THISTLE WEED,NETTLE WEED,NETTLE WEED,NETTLE WEED,NETTLE WEED,NETTLE WEED,NETTLE WEED","20,20,20,20,20,20,20,20","20,20,20,20,20,20,20,20","10,10,10,10,10,10,10,10","20,20,20,20,20,20,20,20","0,0,0,0,0,0,0,0","20,20,20,20,20,20,20,20","20,20,20,20,20,20,20,20","20,20,20,20,20,20,20,20","10,10,10,10,10,10,10,10","20,20,20,20,20,20,20,20","0,0,0,0,0,0,0,0","20,20,20,20,20,20,20,20","0,0,0,0,0,1,1,1","664,336,908,297,776,1334,852,558","-8.634105345564713,-15.255947717275859,3.791276653180539,-1.591603368848297,45.84558124109029,20.802393740356987,6.809505688833813,-10.937658445691483","13.262953314475599,-13.230823368625458,31.281816980162656,-3.3149537190866525,4.0707997938798375,-10.278235826962462,-32.105235756537674,-16.49884091466026","0","0"
"140","86","text","0","91","765613","0-0","","","","","","","","","","","","","","","","","","","","","","","","","","","","","","","","","","","","",""
"","","plant-game","0","92","776104","0-0","","200","190","8","CORN CROP","Left","200","120","8","NETTLE WEED","experimental","33","1,2,3,4,5,6,7,8","190,234.9713574935167,252.66173092503055,293.3038425777542,311.79679507553516,328.16774975047736,335.896695592414,355.9773341721511","8,7,6,5,4,3,2,1","CORN CROP,CORN CROP,CORN CROP,CORN CROP,CORN CROP,CORN CROP,CORN CROP,CORN CROP","120,133.57225996361768,114.08636287916973,113.0149151780716,148.87217351243655,162.57657330191964,139.35110369427872,169.63120522311695","8,7,6,5,4,3,2,1","NETTLE WEED,NETTLE WEED,NETTLE WEED,NETTLE WEED,NETTLE WEED,NETTLE WEED,NETTLE WEED,NETTLE WEED","20,20,20,20,20,20,20,20","20,20,20,20,20,20,20,20","10,10,10,10,10,10,10,10","20,20,20,20,20,20,20,20","0,0,0,0,0,0,0,0","20,20,20,20,20,20,20,20","20,20,20,20,20,20,20,20","20,20,20,20,20,20,20,20","10,10,10,10,10,10,10,10","20,20,20,20,20,20,20,20","0,0,0,0,0,0,0,0","20,20,20,20,20,20,20,20","0,1,1,0,0,1,1,1","1248,1239,530,1807,483,451,317,180","44.97135749351671,17.69037343151384,40.64211165272368,18.492952497780973,16.37095467494217,7.728945841936643,20.080638579737077,25.822322798883555","13.572259963617679,-19.48589708444796,-1.071447701098129,35.85725833436494,13.704399789483078,-23.22546960764091,30.280101528838234,5.69409585830556","0","0"
"711","86","text","0","93","776965","0-0","","","","","","","","","","","","","","","","","","","","","","","","","","","","","","","","","","","","",""
"","","plant-game","0","94","784198","0-0","","200","180","4","CORN CROP","Right","200","160","4","THISTLE WEED","experimental","34","1,2,3,4","160,159.44141811916208,224.02875795653608,237.88005887985415","4,3,2,1","THISTLE WEED,THISTLE WEED,THISTLE WEED,THISTLE WEED","180,124.19436725116483,130.45991254198066,135.53023780622604","4,3,2,1","CORN CROP,CORN CROP,CORN CROP,CORN CROP","0,0,0,0","20,20,20,20","10,10,10,10","20,20,20,20","20,20,20,20","20,20,20,20","0,0,0,0","20,20,20,20","10,10,10,10","20,20,20,20","20,20,20,20","20,20,20,20","0,1,0,1","528,568,648,541","-0.5585818808379207,64.58733983737399,13.851300923318062,35.32801926902557","-55.80563274883517,6.265545290815833,5.070325264245379,17.331664230305044","0","0"
"389","86","text","0","95","784687","0-0","","","","","","","","","","","","","","","","","","","","","","","","","","","","","","","","","","","","",""
"","","plant-game","0","96","798123","0-0","","200","120","8","CORN CROP","Right","200","190","4","THISTLE WEED","experimental","35","1,2,3,4,5,6,7,8","190,198.44608284236492,173.38194979859884,171.29065095535228,160,137.28961381424008,155.16819939819646,141.13408411780352","4,3,2,1,4,3,2,1","THISTLE WEED,THISTLE WEED,THISTLE WEED,THISTLE WEED,NETTLE WEED,NETTLE WEED,NETTLE WEED,NETTLE WEED","120,100.89764785646645,120.86270908061188,134.63599007808781,152.06000544010496,166.85180865310082,192.1805669771643,208.92545970100255","8,7,6,5,4,3,2,1","CORN CROP,CORN CROP,CORN CROP,CORN CROP,CORN CROP,CORN CROP,CORN CROP,CORN CROP","0,0,0,0,0,0,0,0","20,20,20,20,20,20,20,20","10,10,10,10,10,10,10,10","20,20,20,20,20,20,20,20","20,20,20,20,20,20,20,20","20,20,20,20,20,20,20,20","0,0,0,0,0,0,0,0","20,20,20,20,20,20,20,20","10,10,10,10,10,10,10,10","20,20,20,20,20,20,20,20","20,20,20,20,20,20,20,20","20,20,20,20,20,20,20,20","0,1,1,1,1,1,1,1","3028,558,376,278,719,278,241,857","8.44608284236491,-25.064133043766084,-2.0912988432465554,13.773796982277087,-22.710386185759923,17.87858558395637,-14.034115280392939,30.714699558664208","-19.102352143533544,19.96506122414543,13.773280997475943,17.424015362017155,14.791803212995855,25.328758324063458,16.74489272383825,51.05885614752859","0","0"
"940","86","text","0","97","799225","0-0","","","","","","","","","","","","","","","","","","","","","","","","","","","","","","","","","","","","",""
"","","plant-game","0","98","803837","0-0","","200","120","4","CORN CROP","Right","200","190","4","NETTLE WEED","experimental","36","1,2,3,4","190,211.0398445415489,224.19751692679307,215.3459189373702","4,3,2,1","NETTLE WEED,NETTLE WEED,NETTLE WEED,NETTLE WEED","120,149.8052317415707,179.88341524651344,208.30712015800648","4,3,2,1","CORN CROP,CORN CROP,CORN CROP,CORN CROP","0,0,0,0","20,20,20,20","10,10,10,10","20,20,20,20","20,20,20,20","20,20,20,20","0,0,0,0","20,20,20,20","10,10,10,10","20,20,20,20","20,20,20,20","20,20,20,20","1,0,1,0","1272,34,40,100","21.03984454154888,13.157672385244172,-8.85159798942287,-21.071885592793322","29.80523174157071,30.078183504942714,28.423704911493054,2.275523280792901","0","0"
"845","86","text","0","99","804802","0-0","","","","","","","","","","","","","","","","","","","","","","","","","","","","","","","","","","","","",""
"","","plant-game","0","100","811854","0-0","","200","180","2","WHEAT CROP","Left","200","180","4","NETTLE WEED","experimental","37","1,2,3,4","180,180.73653637934876,180,207.87937387111927","2,1,2,1","WHEAT CROP,WHEAT CROP,CORN CROP,CORN CROP","180,215.293739305746,222.799924586553,207.68802273824585","4,3,2,1","NETTLE WEED,NETTLE WEED,NETTLE WEED,NETTLE WEED","20,20,20,20","20,20,20,20","10,10,10,10","20,20,20,20","0,0,0,0","20,20,20,20","20,20,20,20","20,20,20,20","10,10,10,10","20,20,20,20","0,0,0,0","20,20,20,20","0,1,1,0","109,69,1475,1","0.7365363793487774,-22.3116476984778,27.87937387111928,32.79678003734054","35.29373930574599,7.5061852808070215,-15.11190184830715,-2.2739995355662117","0","0"
"263","86","text","0","101","812347","0-0","","","","","","","","","","","","","","","","","","","","","","","","","","","","","","","","","","","","",""
"","","plant-game","0","102","819106","0-0","","200","180","1","CORN CROP","Left","200","190","4","THISTLE WEED","experimental","38","1,2,3,4","180,170,156.22253495666703,176.8834845169515","1,3,2,1","CORN CROP,WHEAT CROP,WHEAT CROP,WHEAT CROP","190,211.5156739005693,187.5103093396158,189.47027238896416","4,3,2,1","THISTLE WEED,THISTLE WEED,THISTLE WEED,THISTLE WEED","20,20,20,20","20,20,20,20","10,10,10,10","20,20,20,20","0,0,0,0","20,20,20,20","20,20,20,20","20,20,20,20","10,10,10,10","20,20,20,20","0,0,0,0","20,20,20,20","0,1,0,1","707,737,167,300","36.77995883104287,-13.777465043332962,20.660949560284468,-21.6180884117121","21.515673900569315,-24.00536456095352,1.9599630493483673,-15.936860644764597","0","0"
"224","86","text","0","103","819570","0-0","","","","","","","","","","","","","","","","","","","","","","","","","","","","","","","","","","","","",""
"","","plant-game","0","104","833402","0-0","","200","120","4","WHEAT CROP","Left","200","180","8","THISTLE WEED","experimental","39","1,2,3,4,5,6,7,8","120,133.74294086832788,165.61745345524767,159.71198084235937,160,125.5449770628525,108.52944545821104,155.5435534217824","4,3,2,1,4,3,2,1","WHEAT CROP,WHEAT CROP,WHEAT CROP,WHEAT CROP,CORN CROP,CORN CROP,CORN CROP,CORN CROP","180,185.35059639291356,183.2671948833153,150.65859695828783,188.4332374321878,203.4578268503396,227.02203240175044,237.73745144695494","8,7,6,5,4,3,2,1","THISTLE WEED,THISTLE WEED,THISTLE WEED,THISTLE WEED,THISTLE WEED,THISTLE WEED,THISTLE WEED,THISTLE WEED","20,20,20,20,20,20,20,20","20,20,20,20,20,20,20,20","10,10,10,10,10,10,10,10","20,20,20,20,20,20,20,20","0,0,0,0,0,0,0,0","20,20,20,20,20,20,20,20","20,20,20,20,20,20,20,20","20,20,20,20,20,20,20,20","10,10,10,10,10,10,10,10","20,20,20,20,20,20,20,20","0,0,0,0,0,0,0,0","20,20,20,20,20,20,20,20","1,0,1,0,1,0,0,0","1315,87,48,170,2782,733,364,284","13.742940868327867,31.874512586919792,-5.905472612888292,0.7641938423027774,-34.45502293714751,-17.015531604641453,47.01410796357138,15.75885442346113","5.350596392913546,-2.0834015095982608,-32.608597925027475,37.774640473899964,15.024589418151766,23.56420555141085,10.715419045204504,-0.22550211830638744","0","0"
"264","86","text","0","105","833833","0-0","","","","","","","","","","","","","","","","","","","","","","","","","","","","","","","","","","","","",""
"","","plant-game","0","106","846909","0-0","","200","190","4","CORN CROP","Left","200","180","8","THISTLE WEED","experimental","40","1,2,3,4,5,6,7,8","190,174.10927100950136,182.23213143958492,226.52766171830072,160,196.5084771154284,182.0158475544552,217.11807420055132","4,3,2,1,4,3,2,1","CORN CROP,CORN CROP,CORN CROP,CORN CROP,WHEAT CROP,WHEAT CROP,WHEAT CROP,WHEAT CROP","180,183.84412299121448,204.27127890788358,250.3800529366312,233.48359322893378,240.30470242218985,230.7206858446046,255.63511622083453","8,7,6,5,4,3,2,1","THISTLE WEED,THISTLE WEED,THISTLE WEED,THISTLE WEED,THISTLE WEED,THISTLE WEED,THISTLE WEED,THISTLE WEED","20,20,20,20,20,20,20,20","20,20,20,20,20,20,20,20","10,10,10,10,10,10,10,10","20,20,20,20,20,20,20,20","0,0,0,0,0,0,0,0","20,20,20,20,20,20,20,20","20,20,20,20,20,20,20,20","20,20,20,20,20,20,20,20","10,10,10,10,10,10,10,10","20,20,20,20,20,20,20,20","0,0,0,0,0,0,0,0","20,20,20,20,20,20,20,20","0,1,0,0,1,1,1,1","1353,677,745,1110,716,2272,320,196","-15.890728990498658,8.122860430083561,44.29553027871581,3.8889164252731625,36.508477115428406,-14.492629560973203,35.102226646096106,4.809502699499246","3.844122991214469,20.427155916669093,46.108774028747604,-16.896459707697417,6.821109193256052,-9.584016577585269,24.914430376229934,-20.124109129359773","0","0"
"1023","86","text","0","107","848079","0-0","","","","","","","","","","","","","","","","","","","","","","","","","","","","","","","","","","","","",""
"","","plant-game","0","108","856750","0-0","","200","160","4","CORN CROP","Left","200","180","8","THISTLE WEED","experimental","41","1,2,3,4,5,6,7,8","160,151.43521435099242,153.94503385901876,162.01415163868663,160,161.7174084128358,180.44444200531973,180.8243142614894","4,3,2,1,4,3,2,1","CORN CROP,CORN CROP,CORN CROP,CORN CROP,WHEAT CROP,WHEAT CROP,WHEAT CROP,WHEAT CROP","180,166.71136894206643,178.6733025344524,196.87005785810956,183.93251680535906,182.79019246695967,165.52294246572146,181.27932932390712","8,7,6,5,4,3,2,1","THISTLE WEED,THISTLE WEED,THISTLE WEED,THISTLE WEED,THISTLE WEED,THISTLE WEED,THISTLE WEED,THISTLE WEED","20,20,20,20,20,20,20,20","20,20,20,20,20,20,20,20","10,10,10,10,10,10,10,10","20,20,20,20,20,20,20,20","0,0,0,0,0,0,0,0","20,20,20,20,20,20,20,20","20,20,20,20,20,20,20,20","20,20,20,20,20,20,20,20","10,10,10,10,10,10,10,10","20,20,20,20,20,20,20,20","0,0,0,0,0,0,0,0","20,20,20,20,20,20,20,20","0,1,1,1,0,1,1,0","476,28,207,917,847,1,316,257","-8.564785649007582,2.5098195080263475,8.069117779667861,9.617527645702248,1.7174084128357912,18.727033592483924,0.37987225616968967,-31.66444516487757","-13.288631057933564,11.96193359238597,18.19675532365715,-12.937541052750507,-1.1423243383993977,-17.26725000123822,15.756386858185651,69.56546911418486","0","0"
"899","86","text","0","109","857839","0-0","","","","","","","","","","","","","","","","","","","","","","","","","","","","","","","","","","","","",""
"","","plant-game","0","110","864111","0-0","","200","120","4","WHEAT CROP","Left","200","120","2","THISTLE WEED","experimental","42","1,2,3,4","120,145.05296991883944,138.072067814104,132.88090106490623","4,3,2,1","WHEAT CROP,WHEAT CROP,WHEAT CROP,WHEAT CROP","120,169.9178895909157,180,172.79227277280586","2,1,2,1","THISTLE WEED,THISTLE WEED,NETTLE WEED,NETTLE WEED","20,20,20,20","20,20,20,20","10,10,10,10","20,20,20,20","0,0,0,0","20,20,20,20","20,20,20,20","20,20,20,20","10,10,10,10","20,20,20,20","0,0,0,0","20,20,20,20","0,1,1,1","441,512,45,500","25.052969918839423,-6.98090210473543,-5.191166749197786,-4.4682852947870675","49.91788959091572,-19.47028141684013,-7.20772722719413,-17.356134775555955","0","0"
"764","86","text","0","111","865075","0-0","","","","","","","","","","","","","","","","","","","","","","","","","","","","","","","","","","","","",""
"","","plant-game","0","112","876335","0-0","","200","120","8","WHEAT CROP","Left","200","190","8","NETTLE WEED","experimental","43","1,2,3,4,5,6,7,8","120,149.77855398582713,193.07401546347108,234.1479592437292,245.65566943432285,266.5244784887736,269.66577628215055,272.8028861855781","8,7,6,5,4,3,2,1","WHEAT CROP,WHEAT CROP,WHEAT CROP,WHEAT CROP,WHEAT CROP,WHEAT CROP,WHEAT CROP,WHEAT CROP","190,203.11653149154216,221.11145139681926,212.73934364499422,239.3005017259498,251.5954786975473,275.72911445949757,319.0080268634437","8,7,6,5,4,3,2,1","NETTLE WEED,NETTLE WEED,NETTLE WEED,NETTLE WEED,NETTLE WEED,NETTLE WEED,NETTLE WEED,NETTLE WEED","20,20,20,20,20,20,20,20","20,20,20,20,20,20,20,20","10,10,10,10,10,10,10,10","20,20,20,20,20,20,20,20","0,0,0,0,0,0,0,0","20,20,20,20,20,20,20,20","20,20,20,20,20,20,20,20","20,20,20,20,20,20,20,20","10,10,10,10,10,10,10,10","20,20,20,20,20,20,20,20","0,0,0,0,0,0,0,0","20,20,20,20,20,20,20,20","0,0,1,1,1,1,0,0","3535,434,684,301,430,802,546,143","29.778553985827138,43.29546147764396,41.07394378025812,11.507710190593645,20.868809054450722,3.14129779337697,3.137109903427543,-3.5508410277380555","13.11653149154216,17.99491990527709,-8.37210775182505,26.56115808095558,12.294976971597496,24.1336357619503,43.27891240394615,8.645422059183492","0","0"
"97","86","text","0","113","876572","0-0","","","","","","","","","","","","","","","","","","","","","","","","","","","","","","","","","","","","",""
"","","plant-game","0","114","886906","0-0","","200","180","4","WHEAT CROP","Left","200","120","1","NETTLE WEED","experimental","44","1,2,3,4","180,189.48629682963684,207.40063732892855,232.31946292878717","4,3,2,1","WHEAT CROP,WHEAT CROP,WHEAT CROP,WHEAT CROP","120,170,202.94763734256045,205.24770925305768","1,3,2,1","NETTLE WEED,THISTLE WEED,THISTLE WEED,THISTLE WEED","20,20,20,20","20,20,20,20","10,10,10,10","20,20,20,20","0,0,0,0","20,20,20,20","20,20,20,20","20,20,20,20","10,10,10,10","20,20,20,20","0,0,0,0","20,20,20,20","0,0,0,0","1378,875,170,476","9.486296829636828,17.914340499291704,24.918825599858607,11.872819393114879","16.94423519091758,32.94763734256045,2.300071910497234,26.052825312791086","0","0"
"234","86","text","0","115","887250","0-0","","","","","","","","","","","","","","","","","","","","","","","","","","","","","","","","","","","","",""
"","","plant-game","0","116","901893","0-0","","200","160","8","WHEAT CROP","Left","200","160","1","THISTLE WEED","experimental","45","1,2,3,4,5,6,7,8","160,183.23504417156332,201.56370172876325,216.01418886944617,190.64993537834064,229.02343757593712,237.8077509463162,220.4448394588942","8,7,6,5,4,3,2,1","WHEAT CROP,WHEAT CROP,WHEAT CROP,WHEAT CROP,WHEAT CROP,WHEAT CROP,WHEAT CROP,WHEAT CROP","160,130,140.43236026182439,190.6760258774535,177.78933940262812,168.00396518531073,198.34156735355216,216.60852354742076","1,7,6,5,4,3,2,1","THISTLE WEED,NETTLE WEED,NETTLE WEED,NETTLE WEED,NETTLE WEED,NETTLE WEED,NETTLE WEED,NETTLE WEED","20,20,20,20,20,20,20,20","20,20,20,20,20,20,20,20","10,10,10,10,10,10,10,10","20,20,20,20,20,20,20,20","0,0,0,0,0,0,0,0","20,20,20,20,20,20,20,20","20,20,20,20,20,20,20,20","20,20,20,20,20,20,20,20","10,10,10,10,10,10,10,10","20,20,20,20,20,20,20,20","0,0,0,0,0,0,0,0","20,20,20,20,20,20,20,20","0,0,0,1,0,0,1,0","788,1385,998,756,766,1531,513,740","23.235044171563327,18.328657557199918,14.450487140682934,-25.36425349110552,38.37350219759648,8.78431337037906,-17.362911487422007,-3.0946871340455218","-3.1564420267039637,10.432360261824373,50.24366561562912,-12.886686474825371,-9.785374217317397,30.337602168241432,18.266956193868587,2.9964347598750294","0","0"
"137","86","text","0","117","902150","0-0","","","","","","","","","","","","","","","","","","","","","","","","","","","","","","","","","","","","",""
"","","plant-game","0","118","916078","0-0","","200","180","2","WHEAT CROP","Left","200","190","8","NETTLE WEED","experimental","46","1,2,3,4,5,6,7,8","180,152.95944944158737,140,120.34936248508792,65.06827473456443,68.83087667925219,110.12009865634973,142.68586846095178","2,1,6,5,4,3,2,1","WHEAT CROP,WHEAT CROP,CORN CROP,CORN CROP,CORN CROP,CORN CROP,CORN CROP,CORN CROP","190,160.77659721544416,190.0890726645984,176.00587385658494,194.12528698848857,222.4852111973044,273.8230029207026,275.03573360119555","8,7,6,5,4,3,2,1","NETTLE WEED,NETTLE WEED,NETTLE WEED,NETTLE WEED,NETTLE WEED,NETTLE WEED,NETTLE WEED,NETTLE WEED","20,20,20,20,20,20,20,20","20,20,20,20,20,20,20,20","10,10,10,10,10,10,10,10","20,20,20,20,20,20,20,20","0,0,0,0,0,0,0,0","20,20,20,20,20,20,20,20","20,20,20,20,20,20,20,20","20,20,20,20,20,20,20,20","10,10,10,10,10,10,10,10","20,20,20,20,20,20,20,20","0,0,0,0,0,0,0,0","20,20,20,20,20,20,20,20","1,0,1,1,0,0,0,0","2473,937,866,474,931,764,147,131","-27.04055055841262,4.272902945971913,-19.65063751491208,-55.2810877505235,3.7626019446877663,41.28922197709754,32.56576980460204,32.19705452202837","-29.223402784555837,29.31247544915425,-14.083198808013464,18.119413131903638,28.35992420881584,51.33779172339818,1.2127306804929532,22.114895903173938","0","0"
"3956","86","text","0","119","920174","0-0","","","","","","","","","","","","","","","","","","","","","","","","","","","","","","","","","","","","",""
"","","plant-game","0","120","928818","0-0","","200","120","4","WHEAT CROP","Left","200","160","4","NETTLE WEED","experimental","47","1,2,3,4","120,97.04425673277156,113.2121037235453,147.5268308387598","4,3,2,1","WHEAT CROP,WHEAT CROP,WHEAT CROP,WHEAT CROP","160,195.99356628212837,225.53055982179555,234.82795329876984","4,3,2,1","NETTLE WEED,NETTLE WEED,NETTLE WEED,NETTLE WEED","20,20,20,20","20,20,20,20","10,10,10,10","20,20,20,20","0,0,0,0","20,20,20,20","20,20,20,20","20,20,20,20","10,10,10,10","20,20,20,20","0,0,0,0","20,20,20,20","1,0,1,1","1074,690,452,2074","-22.955743267228446,16.16784699077374,34.314727115214495,44.98689683742664","35.993566282128356,29.536993539667172,9.29739347697428,-18.883265706526736","0","0"
"135","86","text","0","121","929093","0-0","","","","","","","","","","","","","","","","","","","","","","","","","","","","","","","","","","","","",""
"","","plant-game","0","122","940102","0-0","","200","160","8","WHEAT CROP","Left","200","180","8","THISTLE WEED","experimental","48","1,2,3,4,5,6,7,8","160,159.87134974073248,148.2696857025079,172.5593914257667,183.70409776485042,167.60456735053396,158.5035661942547,174.50408200194443","8,7,6,5,4,3,2,1","WHEAT CROP,WHEAT CROP,WHEAT CROP,WHEAT CROP,WHEAT CROP,WHEAT CROP,WHEAT CROP,WHEAT CROP","180,176.84749264848745,164.38906649799927,159.7454796076927,143.19825880713967,163.9904083677805,161.68499739777184,181.25499943384108","8,7,6,5,4,3,2,1","THISTLE WEED,THISTLE WEED,THISTLE WEED,THISTLE WEED,THISTLE WEED,THISTLE WEED,THISTLE WEED,THISTLE WEED","20,20,20,20,20,20,20,20","20,20,20,20,20,20,20,20","10,10,10,10,10,10,10,10","20,20,20,20,20,20,20,20","0,0,0,0,0,0,0,0","20,20,20,20,20,20,20,20","20,20,20,20,20,20,20,20","20,20,20,20,20,20,20,20","10,10,10,10,10,10,10,10","20,20,20,20,20,20,20,20","0,0,0,0,0,0,0,0","20,20,20,20,20,20,20,20","1,1,1,1,1,1,1,1","917,467,2355,484,321,307,397,314","-0.1286502592675185,-11.601664038224593,24.28970572325882,11.144706339083712,-16.099530414316476,-9.101001156279265,16.00051580768975,5.619743555717811","-3.1525073515125457,-12.458426150488188,-4.643586890306578,-16.54722080055301,20.792149560640848,-2.305410970008658,19.57000203606924,-18.49904787796942","0","0"
"173","86","text","0","123","940365","0-0","","","","","","","","","","","","","","","","","","","","","","","","","","","","","","","","","","","","",""
"","","plant-game","0","124","945908","0-0","","200","160","1","CORN CROP","Right","200","160","4","NETTLE WEED","experimental","49","1,2,3,4","160,202.6937780689579,218.72243403691868,238.1627254997736","4,3,2,1","NETTLE WEED,NETTLE WEED,NETTLE WEED,NETTLE WEED","160,170,203.0245667702368,212.4950411315473","1,3,2,1","CORN CROP,WHEAT CROP,WHEAT CROP,WHEAT CROP","0,0,0,0","20,20,20,20","10,10,10,10","20,20,20,20","20,20,20,20","20,20,20,20","0,0,0,0","20,20,20,20","10,10,10,10","20,20,20,20","20,20,20,20","20,20,20,20","1,1,1,1","877,48,142,168","42.69377806895791,16.02865596796079,19.44029146285489,16.709879992946064","18.339145856477792,33.024566770236774,9.470474361310535,14.490132284957387","0","0"
"668","86","text","0","125","946749","0-0","","","","","","","","","","","","","","","","","","","","","","","","","","","","","","","","","","","","",""
"","","plant-game","0","126","952957","0-0","","200","160","2","CORN CROP","Right","200","180","4","THISTLE WEED","experimental","50","1,2,3,4","180,128.1704739085087,134.42499858329353,158.17466297725392","4,3,2,1","THISTLE WEED,THISTLE WEED,THISTLE WEED,THISTLE WEED","160,197.60501556757194,180,153.2312214974175","2,1,2,1","CORN CROP,CORN CROP,WHEAT CROP,WHEAT CROP","0,0,0,0","20,20,20,20","10,10,10,10","20,20,20,20","20,20,20,20","20,20,20,20","0,0,0,0","20,20,20,20","10,10,10,10","20,20,20,20","20,20,20,20","20,20,20,20","1,1,1,0","1085,284,0,28","-51.829526091491275,6.254524674784822,23.749664393960387,9.831750696610758","37.60501556757194,35.94036501543275,-26.768778502582506,-30.859331249301015","0","0"
"1698","86","text","0","127","954866","0-0","","","","","","","","","","","","","","","","","","","","","","","","","","","","","","","","","","","","",""
"","","plant-game","0","128","967075","0-0","","200","120","1","WHEAT CROP","Right","200","120","8","NETTLE WEED","experimental","51","1,2,3,4,5,6,7,8","120,150.04434648952147,141.2962081658216,132.75718168876622,131.4596009716384,134.68649452233993,176.07921806816736,167.40816000352942","8,7,6,5,4,3,2,1","NETTLE WEED,NETTLE WEED,NETTLE WEED,NETTLE WEED,NETTLE WEED,NETTLE WEED,NETTLE WEED,NETTLE WEED","120,130,163.5683118064763,173.88742487872932,169.3930273169325,135.15774382215773,146.58006980531607,167.23925537007844","1,7,6,5,4,3,2,1","WHEAT CROP,CORN CROP,CORN CROP,CORN CROP,CORN CROP,CORN CROP,CORN CROP,CORN CROP","0,0,0,0,0,0,0,0","20,20,20,20,20,20,20,20","10,10,10,10,10,10,10,10","20,20,20,20,20,20,20,20","20,20,20,20,20,20,20,20","20,20,20,20,20,20,20,20","0,0,0,0,0,0,0,0","20,20,20,20,20,20,20,20","10,10,10,10,10,10,10,10","20,20,20,20,20,20,20,20","20,20,20,20,20,20,20,20","20,20,20,20,20,20,20,20","1,1,0,0,0,1,1,1","1526,774,357,347,284,217,142,367","30.04434648952148,-8.748138323699873,-8.539026477055394,-1.2975807171278206,3.22689355070153,41.39272354582744,-8.671058064637958,14.538839668455015","31.90882553814865,33.5683118064763,10.319113072253035,-4.49439756179682,-34.235283494774755,11.422325983158357,20.659185564762357,23.510491085798414","0","0"
"8474","86","text","0","129","975767","0-0","","","","","","","","","","","","","","","","","","","","","","","","","","","","","","","","","","","","",""
"","","plant-game","0","130","983163","0-0","","200","160","8","CORN CROP","Right","200","120","1","NETTLE WEED","experimental","52","1,2,3,4,5,6,7,8","120,130,161.50311864270355,206.16964388036249,204.90568362685454,188.52881960037672,210.11176958909738,208.20016211729862","1,7,6,5,4,3,2,1","NETTLE WEED,THISTLE WEED,THISTLE WEED,THISTLE WEED,THISTLE WEED,THISTLE WEED,THISTLE WEED,THISTLE WEED","160,202.53914965111053,214.84956300796605,225.22296573782552,198.1915806210299,206.87410679380798,231.5794883803955,229.4846109714569","8,7,6,5,4,3,2,1","CORN CROP,CORN CROP,CORN CROP,CORN CROP,CORN CROP,CORN CROP,CORN CROP,CORN CROP","0,0,0,0,0,0,0,0","20,20,20,20,20,20,20,20","10,10,10,10,10,10,10,10","20,20,20,20,20,20,20,20","20,20,20,20,20,20,20,20","20,20,20,20,20,20,20,20","0,0,0,0,0,0,0,0","20,20,20,20,20,20,20,20","10,10,10,10,10,10,10,10","20,20,20,20,20,20,20,20","20,20,20,20,20,20,20,20","20,20,20,20,20,20,20,20","1,0,1,0,1,1,0,0","664,195,1,34,12,274,85,242","51.57113344024884,31.50311864270354,44.666525237658924,-1.2639602535079577,-16.376864026477833,21.582949988720646,-1.911607471798765,-71.28890834652059","42.539149651110534,12.310413356855527,10.373402729859457,-27.031385116795615,8.682526172778077,24.705381586587528,-2.094877408938605,8.162292544404513","0","0"
"1580","86","text","0","131","984943","0-0","","","","","","","","","","","","","","","","","","","","","","","","","","","","","","","","","","","","",""
"","","plant-game","0","132","990535","0-0","","200","160","2","CORN CROP","Right","200","120","2","THISTLE WEED","experimental","53","1,2","120,157.70134802106043","2,1","THISTLE WEED,THISTLE WEED","160,170.69633135692675","2,1","CORN CROP,CORN CROP","0,0","20,20","10,10","20,20","20,20","20,20","0,0","20,20","10,10","20,20","20,20","20,20","1,1","1446,336","37.701348021060426,37.43810337847333","10.696331356926756,13.423330908326855","0","0"
"1562","86","text","0","133","992277","0-0","","","","","","","","","","","","","","","","","","","","","","","","","","","","","","","","","","","","",""
"","","plant-game","0","134","1005567","0-0","","200","120","2","WHEAT CROP","Left","200","190","8","NETTLE WEED","experimental","54","1,2,3,4,5,6,7,8","120,109.90767571246296,140,191.99791475794527,192.91006496435756,194.83331082490574,213.9680400870995,229.6715725596885","2,1,6,5,4,3,2,1","WHEAT CROP,WHEAT CROP,CORN CROP,CORN CROP,CORN CROP,CORN CROP,CORN CROP,CORN CROP","190,223.14120423083827,251.1767811281354,273.95801054408423,256.4155448929612,239.24267100123606,231.56279275767997,231.1247381886353","8,7,6,5,4,3,2,1","NETTLE WEED,NETTLE WEED,NETTLE WEED,NETTLE WEED,NETTLE WEED,NETTLE WEED,NETTLE WEED,NETTLE WEED","20,20,20,20,20,20,20,20","20,20,20,20,20,20,20,20","10,10,10,10,10,10,10,10","20,20,20,20,20,20,20,20","0,0,0,0,0,0,0,0","20,20,20,20,20,20,20,20","20,20,20,20,20,20,20,20","20,20,20,20,20,20,20,20","10,10,10,10,10,10,10,10","20,20,20,20,20,20,20,20","0,0,0,0,0,0,0,0","20,20,20,20,20,20,20,20","1,0,0,1,1,1,1,1","1816,1293,902,786,347,269,460,341","-10.092324287537036,46.664255826633074,51.99791475794526,0.9121502064122884,1.923245860548165,19.134729262193755,15.703532472589012,6.894907032240361","33.14120423083828,28.035576897297123,22.781229415948822,-17.542465651123045,-17.172873891725114,-7.67987824355608,-0.43805456904468565,33.85614932327221","0","0"
"217","86","text","0","135","1005959","0-0","","","","","","","","","","","","","","","","","","","","","","","","","","","","","","","","","","","","",""
"","","plant-game","0","136","1009962","0-0","","200","190","1","CORN CROP","Left","200","160","1","THISTLE WEED","experimental","55","1","190","1","CORN CROP","160","1","THISTLE WEED","20","20","10","20","0","20","20","20","10","20","0","20","1","704","-9.741859124255166","1.3993056539562063","0","0"
"629","86","text","0","137","1010771","0-0","","","","","","","","","","","","","","","","","","","","","","","","","","","","","","","","","","","","",""
"","","plant-game","0","138","1017961","0-0","","200","160","2","CORN CROP","Left","200","160","1","NETTLE WEED","experimental","56","1,2","160,166.86816097886933","2,1","CORN CROP,CORN CROP","160,190","1,1","NETTLE WEED,THISTLE WEED","20,20","20,20","10,10","20,20","0,0","20,20","20,20","20,20","10,10","20,20","0,0","20,20","0,1","1492,997","6.868160978869323,-26.683355318135945","-14.207991539055357,-21.48534684287761","0","0"
"186","86","text","0","139","1018357","0-0","","","","","","","","","","","","","","","","","","","","","","","","","","","","","","","","","","","","",""
"","","plant-game","0","140","1023792","0-0","","200","160","1","CORN CROP","Right","200","160","1","THISTLE WEED","experimental","57","1","160","1","THISTLE WEED","160","1","CORN CROP","0","20","10","20","20","20","0","20","10","20","20","20","0","1229","20.960964490094565","2.663407528991131","0","0"
"578","86","text","0","141","1024666","0-0","","","","","","","","","","","","","","","","","","","","","","","","","","","","","","","","","","","","",""
"","","plant-game","0","142","1032645","0-0","","200","160","4","CORN CROP","Left","200","160","1","NETTLE WEED","experimental","58","1,2,3,4","160,139.1069451849089,135.8809439374625,174.10771383709096","4,3,2,1","CORN CROP,CORN CROP,CORN CROP,CORN CROP","160,170,183.44404420417249,231.0406699898552","1,3,2,1","NETTLE WEED,THISTLE WEED,THISTLE WEED,THISTLE WEED","20,20,20,20","20,20,20,20","10,10,10,10","20,20,20,20","0,0,0,0","20,20,20,20","20,20,20,20","20,20,20,20","10,10,10,10","20,20,20,20","0,0,0,0","20,20,20,20","1,1,0,1","124,1545,428,185","-20.893054815091077,-3.2260012474464146,38.22676989962845,0.420984892475676","-26.5650379473417,13.444044204172476,47.59662578568272,-14.61360790687625","0","0"
"268","86","text","0","143","1033087","0-0","","","","","","","","","","","","","","","","","","","","","","","","","","","","","","","","","","","","",""
"","","plant-game","0","144","1038881","0-0","","200","120","2","WHEAT CROP","Right","200","160","4","NETTLE WEED","experimental","59","1,2,3,4","160,170.06214533029313,240.0885477439726,216.2202652218095","4,3,2,1","NETTLE WEED,NETTLE WEED,NETTLE WEED,NETTLE WEED","120,105.92317150806136,180,202.9407543008986","2,1,2,1","WHEAT CROP,WHEAT CROP,CORN CROP,CORN CROP","0,0,0,0","20,20,20,20","10,10,10,10","20,20,20,20","20,20,20,20","20,20,20,20","0,0,0,0","20,20,20,20","10,10,10,10","20,20,20,20","20,20,20,20","20,20,20,20","0,1,0,1","908,224,606,90","10.062145330293133,70.02640241367948,-23.86828252216311,10.64464799489696","-14.076828491938649,12.727005703553665,22.940754300898583,-42.941082371603805","0","0"
"232","86","text","0","145","1039273","0-0","","","","","","","","","","","","","","","","","","","","","","","","","","","","","","","","","","","","",""
"","","plant-game","0","146","1060262","0-0","","200","180","1","WHEAT CROP","Left","200","120","8","THISTLE WEED","experimental","60","1,2,3,4,5,6,7,8","180,130,135.10553100982767,138.99232538072,133.29399618556667,123.03316235440845,123.93799378445969,130.34871350248903","1,7,6,5,4,3,2,1","WHEAT CROP,CORN CROP,CORN CROP,CORN CROP,CORN CROP,CORN CROP,CORN CROP,CORN CROP","120,111.24195853913022,113.62063948311565,112.60400514936657,131.22866764925013,147.09921326495262,158.5194437795358,221.99094078305475","8,7,6,5,4,3,2,1","THISTLE WEED,THISTLE WEED,THISTLE WEED,THISTLE WEED,THISTLE WEED,THISTLE WEED,THISTLE WEED,THISTLE WEED","20,20,20,20,20,20,20,20","20,20,20,20,20,20,20,20","10,10,10,10,10,10,10,10","20,20,20,20,20,20,20,20","0,0,0,0,0,0,0,0","20,20,20,20,20,20,20,20","20,20,20,20,20,20,20,20","20,20,20,20,20,20,20,20","10,10,10,10,10,10,10,10","20,20,20,20,20,20,20,20","0,0,0,0,0,0,0,0","20,20,20,20,20,20,20,20","1,1,1,1,1,1,0,1","623,835,432,1045,367,360,556,10293","-3.0003435439681314,5.105531009827664,3.8867943708923276,-5.698329195153323,-10.26083383115822,0.9048314300512527,6.410719718029348,32.77355033076947","-8.758041460869784,2.378680943985433,-1.016634333749086,18.624662499883545,15.870545615702493,11.420230514583189,63.471497003518955,8.247703409795362","0","0"
"228","86","text","0","147","1060670","0-0","","","","","","","","","","","","","","","","","","","","","","","","","","","","","","","","","","","","",""
"","","plant-game","0","148","1077881","0-0","","200","160","8","CORN CROP","Right","200","180","1","THISTLE WEED","experimental","61","1,2,3,4,5,6,7,8","180,130,161.94256940250455,178.7572191824356,173.98249734330113,173.31654586360898,196.62849799811318,175.45339456276116","1,7,6,5,4,3,2,1","THISTLE WEED,NETTLE WEED,NETTLE WEED,NETTLE WEED,NETTLE WEED,NETTLE WEED,NETTLE WEED,NETTLE WEED","160,158.01405922144477,174.1766287710348,179.9079733582003,196.57439381647433,221.68380822164693,252.5069759884127,262.82839857101146","8,7,6,5,4,3,2,1","CORN CROP,CORN CROP,CORN CROP,CORN CROP,CORN CROP,CORN CROP,CORN CROP,CORN CROP","0,0,0,0,0,0,0,0","20,20,20,20,20,20,20,20","10,10,10,10,10,10,10,10","20,20,20,20,20,20,20,20","20,20,20,20,20,20,20,20","20,20,20,20,20,20,20,20","0,0,0,0,0,0,0,0","20,20,20,20,20,20,20,20","10,10,10,10,10,10,10,10","20,20,20,20,20,20,20,20","20,20,20,20,20,20,20,20","20,20,20,20,20,20,20,20","0,1,1,1,1,1,0,1","3658,1298,534,438,1134,2337,853,1068","-25.487600222186472,31.94256940250456,16.81464977993104,-4.774721839134443,-0.6659514796921471,23.311952134504203,-21.17510343535202,27.408600609430792","-1.985940778555226,16.16256954959005,5.731344587165491,16.66642045827402,25.109414405172608,30.823167766765774,10.321422582598741,61.16620139255844","0","0"
"150","86","text","0","149","1078181","0-0","","","","","","","","","","","","","","","","","","","","","","","","","","","","","","","","","","","","",""
"","","plant-game","0","150","1085566","0-0","","200","190","4","CORN CROP","Left","200","160","4","NETTLE WEED","experimental","62","1,2,3,4","190,196.319083108109,195.75475601684576,197.26165896801294","4,3,2,1","CORN CROP,CORN CROP,CORN CROP,CORN CROP","160,134.21140616459195,120.28343354829471,136.1879228029285","4,3,2,1","NETTLE WEED,NETTLE WEED,NETTLE WEED,NETTLE WEED","20,20,20,20","20,20,20,20","10,10,10,10","20,20,20,20","0,0,0,0","20,20,20,20","20,20,20,20","20,20,20,20","10,10,10,10","20,20,20,20","0,0,0,0","20,20,20,20","1,1,1,1","2415,473,642,493","6.319083108108998,-0.5643270912632317,1.5069029511671634,-0.1047616782678861","-25.788593835408037,-13.927972616297247,15.904489254633809,-23.126426005015887","0","0"
"205","86","text","0","151","1085941","0-0","","","","","","","","","","","","","","","","","","","","","","","","","","","","","","","","","","","","",""
"","","plant-game","0","152","1098300","0-0","","200","120","4","WHEAT CROP","Left","200","190","1","NETTLE WEED","experimental","63","1,2,3,4","120,126.46975493870804,110.5375812086893,89.09530072620416","4,3,2,1","WHEAT CROP,WHEAT CROP,WHEAT CROP,WHEAT CROP","190,170,161.23290038954573,171.84579626314851","1,3,2,1","NETTLE WEED,THISTLE WEED,THISTLE WEED,THISTLE WEED","20,20,20,20","20,20,20,20","10,10,10,10","20,20,20,20","0,0,0,0","20,20,20,20","20,20,20,20","20,20,20,20","10,10,10,10","20,20,20,20","0,0,0,0","20,20,20,20","1,1,1,0","3598,865,745,643","6.469754938708037,-15.932173730018736,-21.442280482485142,9.746716221444718","-23.20862443997218,-8.767099610454267,10.612895873602772,29.642596201533962","0","0"
"404","86","text","0","153","1098934","0-0","","","","","","","","","","","","","","","","","","","","","","","","","","","","","","","","","","","","",""
"","","plant-game","0","154","1109236","0-0","","200","160","2","CORN CROP","Left","200","190","4","THISTLE WEED","experimental","64","1,2,3,4","160,150.15614900453235,180,167.1514375833294","2,1,2,1","CORN CROP,CORN CROP,WHEAT CROP,WHEAT CROP","190,219.21266769665127,225.61927050462313,217.3075850158379","4,3,2,1","THISTLE WEED,THISTLE WEED,THISTLE WEED,THISTLE WEED","20,20,20,20","20,20,20,20","10,10,10,10","20,20,20,20","0,0,0,0","20,20,20,20","20,20,20,20","20,20,20,20","10,10,10,10","20,20,20,20","0,0,0,0","20,20,20,20","0,0,0,0","1320,236,796,519","-9.84385099546764,27.015127959428938,-12.848562416670603,6.8147295169086455","29.21266769665126,6.406602807971854,-8.311685488785223,-5.996840671328513","0","0"
"239","86","text","0","155","1109635","0-0","","","","","","","","","","","","","","","","","","","","","","","","","","","","","","","","","","","","",""
"","","plant-game","0","156","1115423","0-0","","200","120","1","WHEAT CROP","Right","200","120","1","NETTLE WEED","experimental","65","1","120","1","NETTLE WEED","120","1","WHEAT CROP","0","20","10","20","20","20","0","20","10","20","20","20","1","981","14.359749336412904","57.37544942642181","0","0"
"164","86","text","0","157","1115717","0-0","","","","","","","","","","","","","","","","","","","","","","","","","","","","","","","","","","","","",""
"","","plant-game","0","158","1127514","0-0","","200","190","8","WHEAT CROP","Right","200","190","2","THISTLE WEED","experimental","66","1,2,3,4,5,6,7,8","190,219.63471646152016,140,133.70348423324958,125.34112543473378,96.27015780116943,61.36124388047734,94.61822513958433","2,1,6,5,4,3,2,1","THISTLE WEED,THISTLE WEED,NETTLE WEED,NETTLE WEED,NETTLE WEED,NETTLE WEED,NETTLE WEED,NETTLE WEED","190,194.7858097719674,180.4647163881564,179.60138265031839,166.7502931468823,182.81615497883743,206.79111211945434,231.24105547630694","8,7,6,5,4,3,2,1","WHEAT CROP,WHEAT CROP,WHEAT CROP,WHEAT CROP,WHEAT CROP,WHEAT CROP,WHEAT CROP,WHEAT CROP","0,0,0,0,0,0,0,0","20,20,20,20,20,20,20,20","10,10,10,10,10,10,10,10","20,20,20,20,20,20,20,20","20,20,20,20,20,20,20,20","20,20,20,20,20,20,20,20","0,0,0,0,0,0,0,0","20,20,20,20,20,20,20,20","10,10,10,10,10,10,10,10","20,20,20,20,20,20,20,20","20,20,20,20,20,20,20,20","20,20,20,20,20,20,20,20","1,0,0,0,0,0,1,1","1091,301,782,387,252,257,1459,890","29.63471646152016,-4.337447629594596,-6.29651576675043,-8.362358798515807,-29.070967633564354,-34.90891392069209,33.25698125910698,13.024789757942216","4.7858097719673935,-14.321093383810988,-0.8633337378380274,-12.851089503436084,16.06586183195513,23.97495714061691,24.449943356852607,9.076108435360759","0","0"
"794","86","text","0","159","1128458","0-0","","","","","","","","","","","","","","","","","","","","","","","","","","","","","","","","","","","","",""
"","","plant-game","0","160","1135784","0-0","","200","190","1","CORN CROP","Left","200","160","2","NETTLE WEED","experimental","67","1,2","190,190","1,1","CORN CROP,WHEAT CROP","160,231.73053723883947","2,1","NETTLE WEED,NETTLE WEED","20,20","20,20","10,10","20,20","0,0","20,20","20,20","20,20","10,10","20,20","0,0","20,20","0,1","714,570","-9.610017055527283,-6.226914131649762","71.73053723883947,33.79586000283287","0","0"
"678","86","text","0","161","1136652","0-0","","","","","","","","","","","","","","","","","","","","","","","","","","","","","","","","","","","","",""
"","","plant-game","0","162","1148583","0-0","","200","160","4","WHEAT CROP","Right","200","180","2","THISTLE WEED","experimental","68","1,2,3,4","180,171.0023333924068,180,201.40618460417042","2,1,2,1","THISTLE WEED,THISTLE WEED,NETTLE WEED,NETTLE WEED","160,152.5130837732822,152.2650608394015,156.97113105917046","4,3,2,1","WHEAT CROP,WHEAT CROP,WHEAT CROP,WHEAT CROP","0,0,0,0","20,20,20,20","10,10,10,10","20,20,20,20","20,20,20,20","20,20,20,20","0,0,0,0","20,20,20,20","10,10,10,10","20,20,20,20","20,20,20,20","20,20,20,20","0,0,0,1","3647,543,2349,674","-8.997666607593205,-49.120538148534166,21.406184604170413,31.43692023810943","-7.486916226717782,-0.24802293388069335,4.706070219768943,35.252450651733724","0","0"
"161","86","text","0","163","1148884","0-0","","","","","","","","","","","","","","","","","","","","","","","","","","","","","","","","","","","","",""
"","","plant-game","0","164","1153123","0-0","","200","160","1","CORN CROP","Left","200","190","2","THISTLE WEED","experimental","69","1,2","160,190","1,1","CORN CROP,WHEAT CROP","190,206.08790895971882","2,1","THISTLE WEED,THISTLE WEED","20,20","20,20","10,10","20,20","0,0","20,20","20,20","20,20","10,10","20,20","0,0","20,20","0,1","511,13","26.655729441506118,1.8098093354090639","16.087908959718817,18.285731300610053","0","0"
"181","86","text","0","165","1153444","0-0","","","","","","","","","","","","","","","","","","","","","","","","","","","","","","","","","","","","",""
"","","plant-game","0","166","1158701","0-0","","200","160","2","WHEAT CROP","Left","200","180","2","NETTLE WEED","experimental","70","1,2","160,207.7702645076542","2,1","WHEAT CROP,WHEAT CROP","180,196.02443305141236","2,1","NETTLE WEED,NETTLE WEED","20,20","20,20","10,10","20,20","0,0","20,20","20,20","20,20","10,10","20,20","0,0","20,20","0,1","830,1160","47.770264507654204,-6.02338610050616","16.024433051412345,2.98502669924398","0","0"
"197","86","text","0","167","1159066","0-0","","","","","","","","","","","","","","","","","","","","","","","","","","","","","","","","","","","","",""
"","","plant-game","0","168","1170202","0-0","","200","180","4","CORN CROP","Right","200","180","1","NETTLE WEED","experimental","71","1,2,3,4","180,170,155.9447843450613,165.34885168771814","1,3,2,1","NETTLE WEED,THISTLE WEED,THISTLE WEED,THISTLE WEED","180,164.91261187807348,174.64684843010437,175.52180817388177","4,3,2,1","CORN CROP,CORN CROP,CORN CROP,CORN CROP","0,0,0,0","20,20,20,20","10,10,10,10","20,20,20,20","20,20,20,20","20,20,20,20","0,0,0,0","20,20,20,20","10,10,10,10","20,20,20,20","20,20,20,20","20,20,20,20","0,0,1,0","947,2398,1203,724","11.74263940702097,-14.055215654938698,9.40406734265684,-16.196167927542405","-15.087388121926528,9.73423655203089,0.8749597437773957,-28.08482951201554","0","0"
"64","86","text","0","169","1170396","0-0","","","","","","","","","","","","","","","","","","","","","","","","","","","","","","","","","","","","",""
"","","plant-game","0","170","1178539","0-0","","200","120","8","CORN CROP","Left","200","180","8","NETTLE WEED","experimental","72","1,2,3,4,5,6,7,8","120,70.47066016638705,81.71084488177927,88.25530582657495,113.36887165812784,126.68120337880545,127.41856460368189,125.76490685100588","8,7,6,5,4,3,2,1","CORN CROP,CORN CROP,CORN CROP,CORN CROP,CORN CROP,CORN CROP,CORN CROP,CORN CROP","180,185.0422189361216,194.22585956040342,196.33454114535678,216.27033683418395,209.24016831934847,247.19442859224978,211.76011210895558","8,7,6,5,4,3,2,1","NETTLE WEED,NETTLE WEED,NETTLE WEED,NETTLE WEED,NETTLE WEED,NETTLE WEED,NETTLE WEED,NETTLE WEED","20,20,20,20,20,20,20,20","20,20,20,20,20,20,20,20","10,10,10,10,10,10,10,10","20,20,20,20,20,20,20,20","0,0,0,0,0,0,0,0","20,20,20,20,20,20,20,20","20,20,20,20,20,20,20,20","20,20,20,20,20,20,20,20","10,10,10,10,10,10,10,10","20,20,20,20,20,20,20,20","0,0,0,0,0,0,0,0","20,20,20,20,20,20,20,20","1,1,0,0,1,0,1,1","1883,434,608,286,1343,75,53,152","-49.52933983361295,11.240184715392214,6.544460944795688,25.113565831552886,13.312331720677609,0.7373612248764374,-1.6536577526760168,-8.564205167486103","5.042218936121587,9.183640624281821,2.1086815849533593,19.93579568882716,-7.030168514835483,37.95426027290131,-35.434316483294204,-5.759257585851473","0","0"
"148","86","text","0","171","1178829","0-0","","","","","","","","","","","","","","","","","","","","","","","","","","","","","","","","","","","","",""
"","","plant-game","0","172","1198832","0-0","","200","190","4","WHEAT CROP","Right","200","190","8","THISTLE WEED","experimental","73","1,2,3,4,5,6,7,8","190,211.64193419185654,226.19376372050837,205.10665835503414,200.45994723824518,236.9668361030109,248.59734810595404,265.6748407779563","8,7,6,5,4,3,2,1","THISTLE WEED,THISTLE WEED,THISTLE WEED,THISTLE WEED,THISTLE WEED,THISTLE WEED,THISTLE WEED,THISTLE WEED","190,182.52833519563126,202.66414041203112,261.0774662561501,160,178.57662149927728,208.37345190663734,240.70197211646712","4,3,2,1,4,3,2,1","WHEAT CROP,WHEAT CROP,WHEAT CROP,WHEAT CROP,CORN CROP,CORN CROP,CORN CROP,CORN CROP","0,0,0,0,0,0,0,0","20,20,20,20,20,20,20,20","10,10,10,10,10,10,10,10","20,20,20,20,20,20,20,20","20,20,20,20,20,20,20,20","20,20,20,20,20,20,20,20","0,0,0,0,0,0,0,0","20,20,20,20,20,20,20,20","10,10,10,10,10,10,10,10","20,20,20,20,20,20,20,20","20,20,20,20,20,20,20,20","20,20,20,20,20,20,20,20","0,1,0,0,1,0,0,0","1599,889,2138,1887,1218,1542,1035,525","21.641934191856524,14.55182952865183,-21.08710536547424,-4.646711116788959,36.50688886476573,11.630512002943128,17.077492672002272,-4.541835837705631","-7.47166480436875,20.13580521639985,58.413325844119,-0.9464693424598324,18.576621499277287,29.79683040736006,32.328520209829776,29.96621177680618","0","0"
"124","86","text","0","173","1199146","0-0","","","","","","","","","","","","","","","","","","","","","","","","","","","","","","","","","","","","",""
"","","plant-game","0","174","1208433","0-0","","200","160","2","CORN CROP","Right","200","180","1","THISTLE WEED","experimental","74","1,2","180,190","1,1","THISTLE WEED,NETTLE WEED","160,203.0853094320942","2,1","CORN CROP,CORN CROP","0,0","20,20","10,10","20,20","20,20","20,20","0,0","20,20","10,10","20,20","20,20","20,20","0,0","1245,2616","15.166706614460326,9.815198259982798","43.0853094320942,3.8892291604419693","0","0"
"753","86","text","0","175","1209346","0-0","","","","","","","","","","","","","","","","","","","","","","","","","","","","","","","","","","","","",""
"","","plant-game","0","176","1222382","0-0","","200","190","2","WHEAT CROP","Right","200","120","8","NETTLE WEED","experimental","75","1,2,3,4,5,6,7,8","120,162.71144264003735,127.91516107289661,162.05374054338046,184.93335008930765,144.90647698716452,140.24045313781824,140.8327381120602","8,7,6,5,4,3,2,1","NETTLE WEED,NETTLE WEED,NETTLE WEED,NETTLE WEED,NETTLE WEED,NETTLE WEED,NETTLE WEED,NETTLE WEED","190,227.55663337813377,140,136.06761307727882,147.74727432617118,133.14879470892876,138.65096484811653,160.67347149626355","2,1,6,5,4,3,2,1","WHEAT CROP,WHEAT CROP,CORN CROP,CORN CROP,CORN CROP,CORN CROP,CORN CROP,CORN CROP","0,0,0,0,0,0,0,0","20,20,20,20,20,20,20,20","10,10,10,10,10,10,10,10","20,20,20,20,20,20,20,20","20,20,20,20,20,20,20,20","20,20,20,20,20,20,20,20","0,0,0,0,0,0,0,0","20,20,20,20,20,20,20,20","10,10,10,10,10,10,10,10","20,20,20,20,20,20,20,20","20,20,20,20,20,20,20,20","20,20,20,20,20,20,20,20","0,1,1,1,0,0,1,1","1376,1398,1310,496,744,573,561,506","42.71144264003735,-34.796281567140745,34.13857947048383,22.879609545927195,-40.02687310214313,-4.666023849346291,0.5922849742419807,38.99105650575201","37.55663337813375,22.953198236883413,-3.932386922721175,11.679661248892359,-14.598479617242418,5.502170139187761,22.022506648147026,46.86251575828325","0","0"
"687","86","text","0","177","1223212","0-0","","","","","","","","","","","","","","","","","","","","","","","","","","","","","","","","","","","","",""
"","","plant-game","0","178","1233765","0-0","","200","190","1","WHEAT CROP","Right","200","180","4","NETTLE WEED","experimental","76","1,2,3,4","180,170.6499610596227,133.1774084002157,137.33952525036418","4,3,2,1","NETTLE WEED,NETTLE WEED,NETTLE WEED,NETTLE WEED","190,170,169.49584565626168,226.35775014620208","1,3,2,1","WHEAT CROP,CORN CROP,CORN CROP,CORN CROP","0,0,0,0","20,20,20,20","10,10,10,10","20,20,20,20","20,20,20,20","20,20,20,20","0,0,0,0","20,20,20,20","10,10,10,10","20,20,20,20","20,20,20,20","20,20,20,20","0,0,1,1","813,2499,606,1244","-9.35003894037729,-37.472552659407015,4.162116850148468,7.306251459695403","-12.575597603523683,-0.5041543437383232,56.861904489940386,27.937944754058464","0","0"
"277","86","text","0","179","1234179","0-0","","","","","","","","","","","","","","","","","","","","","","","","","","","","","","","","","","","","",""
"","","plant-game","0","180","1255089","0-0","","200","160","4","WHEAT CROP","Left","200","190","8","THISTLE WEED","experimental","77","1,2,3,4,5,6,7,8","160,175.9381197140275,169.93982813352633,160.8973249800453,160,173.68649909547588,158.60403310670887,186.56913917923552","4,3,2,1,4,3,2,1","WHEAT CROP,WHEAT CROP,WHEAT CROP,WHEAT CROP,CORN CROP,CORN CROP,CORN CROP,CORN CROP","190,213.7724388520825,192.02190618331304,215.35815975115318,249.7888137815488,245.12648715245422,243.67358941600665,234.27905876675092","8,7,6,5,4,3,2,1","THISTLE WEED,THISTLE WEED,THISTLE WEED,THISTLE WEED,THISTLE WEED,THISTLE WEED,THISTLE WEED,THISTLE WEED","20,20,20,20,20,20,20,20","20,20,20,20,20,20,20,20","10,10,10,10,10,10,10,10","20,20,20,20,20,20,20,20","0,0,0,0,0,0,0,0","20,20,20,20,20,20,20,20","20,20,20,20,20,20,20,20","20,20,20,20,20,20,20,20","10,10,10,10,10,10,10,10","20,20,20,20,20,20,20,20","0,0,0,0,0,0,0,0","20,20,20,20,20,20,20,20","0,1,0,1,1,1,1,1","1467,3413,1508,834,3574,371,410,2043","15.938119714027508,-5.998291580501166,-9.042503153481025,42.19210591626164,13.68649909547587,-15.082465988767026,27.965106072526655,-6.872855637120921","23.77243885208249,-21.750532668769466,23.336253567840146,34.430654030395615,-4.662326629094605,-1.4528977364475615,-9.394530649255723,13.584434709066889","0","0"
"845","86","text","0","181","1256104","0-0","","","","","","","","","","","","","","","","","","","","","","","","","","","","","","","","","","","","",""
"","","plant-game","0","182","1271549","0-0","","200","120","1","CORN CROP","Left","200","180","8","NETTLE WEED","experimental","78","1,2,3,4,5,6,7,8","120,130,105.29345266192652,95.42072524145068,122.74711059433781,163.1304913479504,168.92106625882403,204.98882608377895","1,7,6,5,4,3,2,1","CORN CROP,WHEAT CROP,WHEAT CROP,WHEAT CROP,WHEAT CROP,WHEAT CROP,WHEAT CROP,WHEAT CROP","180,187.76748482556394,181.3857500991193,218.25466250768218,247.4536667837416,262.8278489174029,280.2717814993258,325.0417130649529","8,7,6,5,4,3,2,1","NETTLE WEED,NETTLE WEED,NETTLE WEED,NETTLE WEED,NETTLE WEED,NETTLE WEED,NETTLE WEED,NETTLE WEED","20,20,20,20,20,20,20,20","20,20,20,20,20,20,20,20","10,10,10,10,10,10,10,10","20,20,20,20,20,20,20,20","0,0,0,0,0,0,0,0","20,20,20,20,20,20,20,20","20,20,20,20,20,20,20,20","20,20,20,20,20,20,20,20","10,10,10,10,10,10,10,10","20,20,20,20,20,20,20,20","0,0,0,0,0,0,0,0","20,20,20,20,20,20,20,20","1,1,1,0,0,0,0,0","2877,2210,649,2146,237,146,194,152","-9.299388610863208,-24.706547338073474,-9.872727420475842,27.32638535288713,40.383380753612585,5.79057491087363,36.067759824954926,37.666394164827686","7.76748482556394,-6.381734726444648,36.86891240856289,29.199004276059412,15.374182133661275,17.443932581922898,44.769931565627104,70.63291424574007","0","0"
"174","86","text","0","183","1271893","0-0","","","","","","","","","","","","","","","","","","","","","","","","","","","","","","","","","","","","",""
"","","plant-game","0","184","1277702","0-0","","200","160","1","CORN CROP","Right","200","190","1","NETTLE WEED","experimental","79","1","190","1","NETTLE WEED","160","1","CORN CROP","0","20","10","20","20","20","0","20","10","20","20","20","1","2503","21.565847769577623","33.511450796184576","0","0"
"265","86","text","0","185","1278147","0-0","","","","","","","","","","","","","","","","","","","","","","","","","","","","","","","","","","","","",""
"","","plant-game","0","186","1285950","0-0","","200","160","1","CORN CROP","Left","200","160","2","THISTLE WEED","experimental","80","1,2","160,190","1,1","CORN CROP,WHEAT CROP","160,169.12310993428764","2,1","THISTLE WEED,THISTLE WEED","20,20","20,20","10,10","20,20","0,0","20,20","20,20","20,20","10,10","20,20","0,0","20,20","1,0","1724,1015","6.182905541021539,64.33801806924299","9.123109934287632,25.24775709899413","0","0"
"92","86","text","0","187","1286182","0-0","","","","","","","","","","","","","","","","","","","","","","","","","","","","","","","","","","","","",""
"","","plant-game","0","188","1292555","0-0","","200","190","1","WHEAT CROP","Right","200","180","2","NETTLE WEED","experimental","81","1,2","180,186.6494681278499","2,1","NETTLE WEED,NETTLE WEED","190,190","1,1","WHEAT CROP,CORN CROP","0,0","20,20","10,10","20,20","20,20","20,20","0,0","20,20","10,10","20,20","20,20","20,20","0,1","1135,981","6.649468127849909,40.88900837535144","-10.009498219174178,15.8008820892328","0","0"
"123","86","text","0","189","1292798","0-0","","","","","","","","","","","","","","","","","","","","","","","","","","","","","","","","","","","","",""
"","","plant-game","0","190","1304990","0-0","","200","180","4","WHEAT CROP","Left","200","180","8","THISTLE WEED","experimental","82","1,2,3,4,5,6,7,8","180,218.15568368506626,208.76781677578546,227.33977370276762,160,159.54524935870907,156.38595183304514,127.91785035063282","4,3,2,1,4,3,2,1","WHEAT CROP,WHEAT CROP,WHEAT CROP,WHEAT CROP,CORN CROP,CORN CROP,CORN CROP,CORN CROP","180,204.55731350787914,183.744875526249,181.57829805515252,166.11795717500826,151.53956788619908,129.77659548769626,114.05806349870414","8,7,6,5,4,3,2,1","THISTLE WEED,THISTLE WEED,THISTLE WEED,THISTLE WEED,THISTLE WEED,THISTLE WEED,THISTLE WEED,THISTLE WEED","20,20,20,20,20,20,20,20","20,20,20,20,20,20,20,20","10,10,10,10,10,10,10,10","20,20,20,20,20,20,20,20","0,0,0,0,0,0,0,0","20,20,20,20,20,20,20,20","20,20,20,20,20,20,20,20","20,20,20,20,20,20,20,20","10,10,10,10,10,10,10,10","20,20,20,20,20,20,20,20","0,0,0,0,0,0,0,0","20,20,20,20,20,20,20,20","1,1,1,1,1,1,1,0","1075,1093,1726,1203,1051,281,214,102","38.155683685066265,-9.387866909280794,18.571956926982153,23.26421086718279,-0.4547506412909298,-3.1592975256639253,-28.468101482412322,22.745658481311395","24.557313507879147,-20.812437981630158,-2.1665774710964754,-15.460340880144257,-14.578389288809175,-21.762972398502818,-15.71853198899211,-5.816054456967837","0","0"
"110","86","text","0","191","1305260","0-0","","","","","","","","","","","","","","","","","","","","","","","","","","","","","","","","","","","","",""
"","","plant-game","0","192","1314358","0-0","","200","120","1","CORN CROP","Right","200","120","4","NETTLE WEED","experimental","83","1,2,3,4","120,136.49634655108636,163.89053375079973,182.99148569471674","4,3,2,1","NETTLE WEED,NETTLE WEED,NETTLE WEED,NETTLE WEED","120,170,191.97700612632323,252.29568056268576","1,3,2,1","CORN CROP,WHEAT CROP,WHEAT CROP,WHEAT CROP","0,0,0,0","20,20,20,20","10,10,10,10","20,20,20,20","20,20,20,20","20,20,20,20","0,0,0,0","20,20,20,20","10,10,10,10","20,20,20,20","20,20,20,20","20,20,20,20","0,1,1,0","646,1548,477,1397","16.496346551086365,27.394187199713365,19.100951943917007,9.748734775529854","-5.278838802398664,21.97700612632324,60.31867443636252,2.6161880859309457","0","0"
"87","86","text","0","193","1314566","0-0","","","","","","","","","","","","","","","","","","","","","","","","","","","","","","","","","","","","",""
"","","plant-game","0","194","1319736","0-0","","200","180","1","WHEAT CROP","Right","200","120","1","NETTLE WEED","experimental","84","1","120","1","NETTLE WEED","180","1","WHEAT CROP","0","20","10","20","20","20","0","20","10","20","20","20","0","783","10.238202154631724","7.85870300997826","0","0"
"2492","86","text","0","195","1322378","0-0","","","","","","","","","","","","","","","","","","","","","","","","","","","","","","","","","","","","",""
"","","plant-game","0","196","1331987","0-0","","200","190","2","WHEAT CROP","Right","200","180","8","THISTLE WEED","experimental","85","1,2,3,4,5,6,7,8","180,195.93197523327518,192.35393119112604,206.45479410190774,244.40047888263118,308.55605660000134,308.990506602236,324.723064436538","8,7,6,5,4,3,2,1","THISTLE WEED,THISTLE WEED,THISTLE WEED,THISTLE WEED,THISTLE WEED,THISTLE WEED,THISTLE WEED,THISTLE WEED","190,149.20687321047808,140,186.42157953739866,188.23712988702843,163.1418226197332,161.34043016224246,181.0582988047469","2,1,6,5,4,3,2,1","WHEAT CROP,WHEAT CROP,CORN CROP,CORN CROP,CORN CROP,CORN CROP,CORN CROP,CORN CROP","0,0,0,0,0,0,0,0","20,20,20,20,20,20,20,20","10,10,10,10,10,10,10,10","20,20,20,20,20,20,20,20","20,20,20,20,20,20,20,20","20,20,20,20,20,20,20,20","0,0,0,0,0,0,0,0","20,20,20,20,20,20,20,20","10,10,10,10,10,10,10,10","20,20,20,20,20,20,20,20","20,20,20,20,20,20,20,20","20,20,20,20,20,20,20,20","0,1,1,1,1,0,0,0","1012,220,242,728,411,918,131,144","15.931975233275196,-3.5780440421491555,14.100862910781691,37.94568478072345,64.15557771737015,0.4344500022346373,15.732557834301959,50.454486524330974","-40.79312678952193,29.29252766873752,46.42157953739864,1.815550349629774,-25.095307267295226,-1.8013924574907405,19.717868642504445,9.99757942069034","0","0"
