"rt","key_press","trial_type","trial_index","trial_index_global","time_elapsed","internal_chunk_id","responses","experimental_goal_height","experimental_start_height","experimental_weeks_total","experimental_crop_type","experimental_crop_side","fixed_goal_height","fixed_start_height","fixed_weeks_total","fixed_crop_type","trial_kind","trial_number","stage","left_current_height","left_weeks_remaining","left_crop_type","right_current_height","right_weeks_remaining","right_crop_type","mean_left_growth_given_left","sd_left_growth_given_left","mean_left_growth_given_middle","sd_left_growth_given_middle","mean_left_growth_given_right","sd_left_growth_given_right","mean_right_growth_given_left","sd_right_growth_given_left","mean_right_growth_given_middle","sd_right_growth_given_middle","mean_right_growth_given_right","sd_right_growth_given_right","response","response_time","left_growth","right_growth","other_key_pressed","mouse_clicked"
"778657","77","text","0","0","778752","0-0","","","","","","","","","","","","","","","","","","","","","","","","","","","","","","","","","","","","",""
"15818","","survey-text","0","1","795576","0-0","{""Q0"":""18""}","","","","","","","","","","","","","","","","","","","","","","","","","","","","","","","","","","","",""
"2784","86","text","0","2","2862","0-0","","","","","","","","","","","","","","","","","","","","","","","","","","","","","","","","","","","","",""
"","","plant-game","0","3","67962","0-0","","200","120","8","CORN CROP","Right","200","120","8","NETTLE WEED","practice","1","1,2,3,4,5,6,7,8","120,155.967486609096,151.47986594399146,125.78893694202232,167.25076611569452,136.44670565241174,145.303677565812,136.5143534297885","8,7,6,5,4,3,2,1","NETTLE WEED,NETTLE WEED,NETTLE WEED,NETTLE WEED,NETTLE WEED,NETTLE WEED,NETTLE WEED,NETTLE WEED","120,145.9470994985052,146.5848119841249,133.60384516851764,165.8665997812751,180.26543805655288,202.3720755590603,208.57268346349204","8,7,6,5,4,3,2,1","CORN CROP,CORN CROP,CORN CROP,CORN CROP,CORN CROP,CORN CROP,CORN CROP,CORN CROP","0,0,0,0,0,0,0,0","20,20,20,20,20,20,20,20","10,10,10,10,10,10,10,10","20,20,20,20,20,20,20,20","20,20,20,20,20,20,20,20","20,20,20,20,20,20,20,20","0,0,0,0,0,0,0,0","20,20,20,20,20,20,20,20","10,10,10,10,10,10,10,10","20,20,20,20,20,20,20,20","20,20,20,20,20,20,20,20","20,20,20,20,20,20,20,20","0,0,0,1,0,1,1,1","6635,3964,3072,2873,2162,2065,4152,1615","35.967486609096014,-4.487620665104534,-25.690929001969142,41.4618291736722,-30.804060463282784,8.856971913400253,-8.789324136023467,36.92319841601363","25.947099498505185,0.6377124856197267,-12.980966815607262,32.262754612757476,14.39883827527778,22.106637502507425,6.200607904431742,14.156165096347578","0","2"
"1138","86","text","0","4","69200","0-0","","","","","","","","","","","","","","","","","","","","","","","","","","","","","","","","","","","","",""
"","","plant-game","0","5","97671","0-0","","200","160","4","WHEAT CROP","Right","200","160","4","THISTLE WEED","practice","2","1,2,3,4","160,194.97205612452856,206.7615091165296,213.49856659010965","4,3,2,1","THISTLE WEED,THISTLE WEED,THISTLE WEED,THISTLE WEED","160,205.11995523279202,207.3990406411451,180.24577077131136","4,3,2,1","WHEAT CROP,WHEAT CROP,WHEAT CROP,WHEAT CROP","0,0,0,0","20,20,20,20","10,10,10,10","20,20,20,20","20,20,20,20","20,20,20,20","0,0,0,0","20,20,20,20","10,10,10,10","20,20,20,20","20,20,20,20","20,20,20,20","1,0,0,0","1297,4366,2078,1756","34.972056124528564,11.789452992001031,6.737057473580047,7.667639300054571","45.119955232792016,2.279085408353079,-27.153269869833743,10.43660369695123","0","0"
"727","86","text","0","6","98478","0-0","","","","","","","","","","","","","","","","","","","","","","","","","","","","","","","","","","","","",""
"","","plant-game","0","7","126173","0-0","","200","180","2","CORN CROP","Left","200","180","2","NETTLE WEED","practice","3","1,2","180,192.4334186381684","2,1","CORN CROP,CORN CROP","180,189.58332567553495","2,1","NETTLE WEED,NETTLE WEED","20,20","20,20","10,10","20,20","0,0","20,20","20,20","20,20","10,10","20,20","0,0","20,20","1,1","924,12039","12.433418638168405,-6.242775387994822","9.58332567553494,-2.0741245094997227","0","1"
"506","86","text","0","8","126757","0-0","","","","","","","","","","","","","","","","","","","","","","","","","","","","","","","","","","","","",""
"","","plant-game","0","9","143535","0-0","","200","190","1","CORN CROP","Right","200","190","1","NETTLE WEED","practice","4","1","190","1","NETTLE WEED","190","1","CORN CROP","0","20","10","20","20","20","0","20","10","20","20","20","1","777","32.970374169967144","15.404333779087802","0","0"
"720","86","text","0","10","144352","0-0","","","","","","","","","","","","","","","","","","","","","","","","","","","","","","","","","","","","",""
"","","plant-game","0","11","162740","0-0","","200","120","8","WHEAT CROP","Right","200","160","8","NETTLE WEED","practice","5","1,2,3,4,5,6,7,8","160,202.78890405765196,234.82385744385795,233.58829902420297,240.7873997640435,214.63251136362666,202.55139205940168,234.73605524371735","8,7,6,5,4,3,2,1","NETTLE WEED,NETTLE WEED,NETTLE WEED,NETTLE WEED,NETTLE WEED,NETTLE WEED,NETTLE WEED,NETTLE WEED","120,140.6593639980116,119.19507240124454,131.5262729024916,132.35993983065268,141.29279436586438,163.7290779441431,128.7825198108867","8,7,6,5,4,3,2,1","WHEAT CROP,WHEAT CROP,WHEAT CROP,WHEAT CROP,WHEAT CROP,WHEAT CROP,WHEAT CROP,WHEAT CROP","0,0,0,0,0,0,0,0","20,20,20,20,20,20,20,20","10,10,10,10,10,10,10,10","20,20,20,20,20,20,20,20","20,20,20,20,20,20,20,20","20,20,20,20,20,20,20,20","0,0,0,0,0,0,0,0","20,20,20,20,20,20,20,20","10,10,10,10,10,10,10,10","20,20,20,20,20,20,20,20","20,20,20,20,20,20,20,20","20,20,20,20,20,20,20,20","0,0,0,0,0,0,0,0","1247,1212,450,374,392,1128,885,515","42.78890405765196,32.03495338620597,-1.2355584196549687,7.199100739840521,-26.154888400416834,-12.08111930422498,32.18466318431566,-36.441657906245595","20.659363998011592,-21.464291596767055,12.331200501247068,0.8336669281610741,8.9328545352117,22.436283578278747,-34.9465581332564,-7.302279893872219","1","0"
"551","86","text","0","12","163411","0-0","","","","","","","","","","","","","","","","","","","","","","","","","","","","","","","","","","","","",""
"","","plant-game","0","13","173894","0-0","","200","180","4","CORN CROP","Right","200","160","4","THISTLE WEED","practice","6","1,2,3,4","160,178.33915641588607,142.50689872919793,125.08014626884291","4,3,2,1","THISTLE WEED,THISTLE WEED,THISTLE WEED,THISTLE WEED","180,166.34548180627652,158.1667290029052,173.4374359152033","4,3,2,1","CORN CROP,CORN CROP,CORN CROP,CORN CROP","0,0,0,0","20,20,20,20","10,10,10,10","20,20,20,20","20,20,20,20","20,20,20,20","0,0,0,0","20,20,20,20","10,10,10,10","20,20,20,20","20,20,20,20","20,20,20,20","0,0,0,0","401,393,381,420","18.339156415886062,-35.83225768668812,-17.42675246035502,-1.5424675402409855","-13.654518193723478,-8.178752803371301,15.270706912298095,-12.644553470592538","0","0"
"377","86","text","0","14","174380","0-0","","","","","","","","","","","","","","","","","","","","","","","","","","","","","","","","","","","","",""
"","","plant-game","0","15","188976","0-0","","200","180","2","CORN CROP","Left","200","190","2","THISTLE WEED","practice","7","1,2","180,184.61030614281472","2,1","CORN CROP,CORN CROP","190,183.2279706188163","2,1","THISTLE WEED,THISTLE WEED","20,20","20,20","10,10","20,20","0,0","20,20","20,20","20,20","10,10","20,20","0,0","20,20","1,0","4814,2251","4.610306142814719,17.586110464318093","-6.772029381183707,7.377068131739861","0","0"
"493","86","text","0","16","189560","0-0","","","","","","","","","","","","","","","","","","","","","","","","","","","","","","","","","","","","",""
"","","plant-game","0","17","213537","0-0","","200","120","4","WHEAT CROP","Right","200","120","8","NETTLE WEED","practice","8","1,2,3,4,5,6,7,8","120,107.78910432388446,127.8483747901318,182.080539231022,193.0509092198889,200.18973036093942,212.3736551028696,212.8675673537695","8,7,6,5,4,3,2,1","NETTLE WEED,NETTLE WEED,NETTLE WEED,NETTLE WEED,NETTLE WEED,NETTLE WEED,NETTLE WEED,NETTLE WEED","120,117.16514740218513,117.61088808810153,143.86524248916277,160,164.65928531827637,168.64489659821407,142.4833731962636","4,3,2,1,4,3,2,1","WHEAT CROP,WHEAT CROP,WHEAT CROP,WHEAT CROP,CORN CROP,CORN CROP,CORN CROP,CORN CROP","0,0,0,0,0,0,0,0","20,20,20,20,20,20,20,20","10,10,10,10,10,10,10,10","20,20,20,20,20,20,20,20","20,20,20,20,20,20,20,20","20,20,20,20,20,20,20,20","0,0,0,0,0,0,0,0","20,20,20,20,20,20,20,20","10,10,10,10,10,10,10,10","20,20,20,20,20,20,20,20","20,20,20,20,20,20,20,20","20,20,20,20,20,20,20,20","1,1,1,1,0,0,0,0","2464,1018,1072,1000,7106,492,403,402","-12.210895676115541,20.059270466247348,54.23216444089017,10.97036998886691,7.138821141050519,12.183924741930188,0.4939122508998725,3.8982814248911506","-2.834852597814873,0.4457406859164017,26.254354401061235,5.673022189796644,4.659285318276374,3.985611279937693,-26.16152340195046,-31.03402260525503","0","0"
"600","86","text","0","18","214237","0-0","","","","","","","","","","","","","","","","","","","","","","","","","","","","","","","","","","","","",""
"","","plant-game","0","19","244317","0-0","","200","160","4","WHEAT CROP","Left","200","160","2","THISTLE WEED","practice","9","1,2,3,4","160,177.72646548655163,178.33069667109856,187.06951968493874","4,3,2,1","WHEAT CROP,WHEAT CROP,WHEAT CROP,WHEAT CROP","160,161.9757742214963,180,194.77896413988663","2,1,2,1","THISTLE WEED,THISTLE WEED,NETTLE WEED,NETTLE WEED","20,20,20,20","20,20,20,20","10,10,10,10","20,20,20,20","0,0,0,0","20,20,20,20","20,20,20,20","20,20,20,20","10,10,10,10","20,20,20,20","0,0,0,0","20,20,20,20","1,1,0,0","853,701,1540,700","17.726465486551636,0.6042311845469343,8.738823013840179,23.109474650646504","1.9757742214962888,-1.7427731360463552,14.778964139886634,18.213080470087355","0","0"
"467","86","text","0","20","244894","0-0","","","","","","","","","","","","","","","","","","","","","","","","","","","","","","","","","","","","",""
"","","plant-game","0","21","262502","0-0","","200","180","2","CORN CROP","Right","200","180","1","NETTLE WEED","practice","10","1,2","180,190","1,1","NETTLE WEED,THISTLE WEED","180,226.0094088370144","2,1","CORN CROP,CORN CROP","0,0","20,20","10,10","20,20","20,20","20,20","0,0","20,20","10,10","20,20","20,20","20,20","0,0","1708,1942","-0.1946844826051838,-10.27776908075684","46.00940883701441,-4.5474339983491605","0","0"
"394","86","text","0","22","262996","0-0","","","","","","","","","","","","","","","","","","","","","","","","","","","","","","","","","","","","",""
"","","plant-game","0","23","291811","0-0","","200","120","8","WHEAT CROP","Right","200","160","4","THISTLE WEED","practice","11","1,2,3,4,5,6,7,8","160,157.933821382228,152.78554811431954,155.43976596735484,160,181.52032361606518,144.4073313004018,154.6625709446177","4,3,2,1,4,3,2,1","THISTLE WEED,THISTLE WEED,THISTLE WEED,THISTLE WEED,NETTLE WEED,NETTLE WEED,NETTLE WEED,NETTLE WEED","120,131.87577797584302,114.33396389614327,168.110379602304,162.62904098835776,173.55226102519066,138.50605746195598,203.8539947371646","8,7,6,5,4,3,2,1","WHEAT CROP,WHEAT CROP,WHEAT CROP,WHEAT CROP,WHEAT CROP,WHEAT CROP,WHEAT CROP,WHEAT CROP","0,0,0,0,0,0,0,0","20,20,20,20,20,20,20,20","10,10,10,10,10,10,10,10","20,20,20,20,20,20,20,20","20,20,20,20,20,20,20,20","20,20,20,20,20,20,20,20","0,0,0,0,0,0,0,0","20,20,20,20,20,20,20,20","10,10,10,10,10,10,10,10","20,20,20,20,20,20,20,20","20,20,20,20,20,20,20,20","20,20,20,20,20,20,20,20","0,0,1,1,1,0,1,0","5046,1136,1612,2090,4791,1080,900,1261","-2.066178617772019,-5.148273267908464,2.6542178530353127,36.4545354600389,21.520323616065184,-37.11299231566338,10.255239644215889,11.588039043339375","11.87577797584302,-17.54181407969975,53.77641570616071,-5.481338613946242,10.923220036832905,-35.046203563234684,65.34793727520864,25.401815721615954","0","0"
"463","86","text","0","24","292401","0-0","","","","","","","","","","","","","","","","","","","","","","","","","","","","","","","","","","","","",""
"","","plant-game","0","25","312520","0-0","","200","180","2","CORN CROP","Right","200","160","4","THISTLE WEED","practice","12","1,2,3,4","160,131.95183012366223,123.97975775100146,111.27284139176776","4,3,2,1","THISTLE WEED,THISTLE WEED,THISTLE WEED,THISTLE WEED","180,165.51801376897345,180,185.99669367266893","2,1,2,1","CORN CROP,CORN CROP,WHEAT CROP,WHEAT CROP","0,0,0,0","20,20,20,20","10,10,10,10","20,20,20,20","20,20,20,20","20,20,20,20","0,0,0,0","20,20,20,20","10,10,10,10","20,20,20,20","20,20,20,20","20,20,20,20","0,1,1,1","418,2464,3030,1249","-28.048169876337777,-7.972072372660776,-12.706916359233702,12.73191619322551","-14.48198623102656,-20.66255905856532,5.996693672668938,8.36997504452739","1","0"
"237","86","text","0","26","312819","0-0","","","","","","","","","","","","","","","","","","","","","","","","","","","","","","","","","","","","",""
"7242","86","text","0","27","321171","0-0","","","","","","","","","","","","","","","","","","","","","","","","","","","","","","","","","","","","",""
"","","plant-game","0","28","337208","0-0","","200","180","2","CORN CROP","Right","200","160","4","THISTLE WEED","experimental","1","1,2,3,4","160,158.6926566826571,133.7546932079946,138.12340713073968","4,3,2,1","THISTLE WEED,THISTLE WEED,THISTLE WEED,THISTLE WEED","180,225.60134462928707,180,189.7329875708609","2,1,2,1","CORN CROP,CORN CROP,WHEAT CROP,WHEAT CROP","0,0,0,0","20,20,20,20","10,10,10,10","20,20,20,20","20,20,20,20","20,20,20,20","0,0,0,0","20,20,20,20","10,10,10,10","20,20,20,20","20,20,20,20","20,20,20,20","1,0,1,1","4121,2250,3081,705","-1.307343317342923,-24.937963474662503,4.368713922745098,-12.72391858484444","45.60134462928706,61.145713359163494,9.732987570860892,51.446899226199335","0","0"
"607","86","text","0","29","337942","0-0","","","","","","","","","","","","","","","","","","","","","","","","","","","","","","","","","","","","",""
"","","plant-game","0","30","362913","0-0","","200","180","1","WHEAT CROP","Left","200","190","8","NETTLE WEED","experimental","2","1,2,3,4,5,6,7,8","180,130,148.46544039234732,150.96079577170863,150.2521480191664,183.66764100726027,215.45189288674032,237.2706246171669","1,7,6,5,4,3,2,1","WHEAT CROP,CORN CROP,CORN CROP,CORN CROP,CORN CROP,CORN CROP,CORN CROP,CORN CROP","190,203.94569321974558,167.35050551319708,189.38932642688138,189.05614040033194,191.53735781333427,224.42141294552212,217.11809617517943","8,7,6,5,4,3,2,1","NETTLE WEED,NETTLE WEED,NETTLE WEED,NETTLE WEED,NETTLE WEED,NETTLE WEED,NETTLE WEED,NETTLE WEED","20,20,20,20,20,20,20,20","20,20,20,20,20,20,20,20","10,10,10,10,10,10,10,10","20,20,20,20,20,20,20,20","0,0,0,0,0,0,0,0","20,20,20,20,20,20,20,20","20,20,20,20,20,20,20,20","20,20,20,20,20,20,20,20","10,10,10,10,10,10,10,10","20,20,20,20,20,20,20,20","0,0,0,0,0,0,0,0","20,20,20,20,20,20,20,20","0,1,1,1,1,0,1,1","7697,4501,979,481,617,1650,2089,791","-20.89546796629469,18.465440392347325,2.4953553793613255,-0.7086477525422186,33.41549298809386,31.784251879480045,21.81873173042659,-2.2546368773589514","13.945693219745575,-36.59518770654851,22.03882091368429,-0.33318602654942786,2.48121741300234,32.884055132187854,-7.303316770342688,-47.055239726518906","0","0"
"397","86","text","0","31","363440","0-0","","","","","","","","","","","","","","","","","","","","","","","","","","","","","","","","","","","","",""
"","","plant-game","0","32","382772","0-0","","200","180","1","WHEAT CROP","Right","200","180","8","NETTLE WEED","experimental","3","1,2,3,4,5,6,7,8","180,195.51880582351785,218.39866597856562,204.3188246179017,191.92355675520588,175.04285822916734,187.2590034385496,172.45920678318706","8,7,6,5,4,3,2,1","NETTLE WEED,NETTLE WEED,NETTLE WEED,NETTLE WEED,NETTLE WEED,NETTLE WEED,NETTLE WEED,NETTLE WEED","180,130,144.10211197160487,137.17068293268653,138.5583543484685,120.642189701475,104.08282909294842,120.9521823941071","1,7,6,5,4,3,2,1","WHEAT CROP,CORN CROP,CORN CROP,CORN CROP,CORN CROP,CORN CROP,CORN CROP,CORN CROP","0,0,0,0,0,0,0,0","20,20,20,20,20,20,20,20","10,10,10,10,10,10,10,10","20,20,20,20,20,20,20,20","20,20,20,20,20,20,20,20","20,20,20,20,20,20,20,20","0,0,0,0,0,0,0,0","20,20,20,20,20,20,20,20","10,10,10,10,10,10,10,10","20,20,20,20,20,20,20,20","20,20,20,20,20,20,20,20","20,20,20,20,20,20,20,20","1,0,0,0,0,0,0,0","4312,2609,1083,358,424,514,1771,2201","15.518805823517846,22.879860155047776,-14.079841360663924,-12.395267862695826,-16.880698526038543,12.216145209382272,-14.799796655362547,38.98295197928637","10.667821582884235,14.102111971604877,-6.931429038918328,1.3876714157819534,-17.916164646993494,-16.55936060852659,16.86935330115869,-19.78364885441742","0","0"
"9936","86","text","0","33","392798","0-0","","","","","","","","","","","","","","","","","","","","","","","","","","","","","","","","","","","","",""
"","","plant-game","0","34","405331","0-0","","200","160","2","WHEAT CROP","Right","200","160","1","THISTLE WEED","experimental","4","1,2","160,190","1,1","THISTLE WEED,NETTLE WEED","160,167.99217837683267","2,1","WHEAT CROP,WHEAT CROP","0,0","20,20","10,10","20,20","20,20","20,20","0,0","20,20","10,10","20,20","20,20","20,20","1,0","4483,3323","33.02234545703763,37.20312967596499","7.992178376832669,6.128739290542017","0","0"
"437","86","text","0","35","405928","0-0","","","","","","","","","","","","","","","","","","","","","","","","","","","","","","","","","","","","",""
"","","plant-game","0","36","418777","0-0","","200","160","4","CORN CROP","Right","200","190","1","THISTLE WEED","experimental","5","1,2,3,4","190,170,193.16504708567766,192.91335316452336","1,3,2,1","THISTLE WEED,NETTLE WEED,NETTLE WEED,NETTLE WEED","160,172.15663986183168,167.79037411640064,150.9026553317731","4,3,2,1","CORN CROP,CORN CROP,CORN CROP,CORN CROP","0,0,0,0","20,20,20,20","10,10,10,10","20,20,20,20","20,20,20,20","20,20,20,20","0,0,0,0","20,20,20,20","10,10,10,10","20,20,20,20","20,20,20,20","20,20,20,20","1,1,1,1","4487,1692,801,787","29.47895855499555,23.16504708567765,-0.25169392115430256,13.125842252739998","12.156639861831685,-4.366265745431029,-16.887718784627538,27.966138736923973","0","0"
"454","86","text","0","37","419351","0-0","","","","","","","","","","","","","","","","","","","","","","","","","","","","","","","","","","","","",""
"","","plant-game","0","38","431945","0-0","","200","120","1","CORN CROP","Right","200","180","2","NETTLE WEED","experimental","6","1,2","180,208.87749234045418","2,1","NETTLE WEED,NETTLE WEED","120,190","1,1","CORN CROP,WHEAT CROP","0,0","20,20","10,10","20,20","20,20","20,20","0,0","20,20","10,10","20,20","20,20","20,20","1,0","4379,3048","28.877492340454168,29.41737092591431","12.419197447898881,2.3209598649555256","1","0"
"406","86","text","0","39","432471","0-0","","","","","","","","","","","","","","","","","","","","","","","","","","","","","","","","","","","","",""
"","","plant-game","0","40","441456","0-0","","200","190","1","CORN CROP","Left","200","160","1","THISTLE WEED","experimental","7","1","190","1","CORN CROP","160","1","THISTLE WEED","20","20","10","20","0","20","20","20","10","20","0","20","0","5657","-8.966415295898386","7.832524800385048","0","0"
"430","86","text","0","41","441999","0-0","","","","","","","","","","","","","","","","","","","","","","","","","","","","","","","","","","","","",""
"","","plant-game","0","42","455591","0-0","","200","160","2","WHEAT CROP","Left","200","190","4","NETTLE WEED","experimental","8","1,2,3,4","160,191.43949249428977,180,164.32231442979653","2,1,2,1","WHEAT CROP,WHEAT CROP,CORN CROP,CORN CROP","190,152.24456610403203,157.21460545458115,214.40859704370078","4,3,2,1","NETTLE WEED,NETTLE WEED,NETTLE WEED,NETTLE WEED","20,20,20,20","20,20,20,20","10,10,10,10","20,20,20,20","0,0,0,0","20,20,20,20","20,20,20,20","20,20,20,20","10,10,10,10","20,20,20,20","0,0,0,0","20,20,20,20","1,0,0,0","3468,1820,2582,604","31.439492494289762,34.177290679416025,-15.677685570203472,14.21496433380744","-37.75543389596797,4.970039350549122,57.193991589119626,-1.978422785881694","0","0"
"454","86","text","0","43","456165","0-0","","","","","","","","","","","","","","","","","","","","","","","","","","","","","","","","","","","","",""
"","","plant-game","0","44","468926","0-0","","200","190","8","WHEAT CROP","Left","200","120","8","NETTLE WEED","experimental","9","1,2,3,4,5,6,7,8","190,221.5527715358433,234.5103456235994,221.70662406057056,244.352223364363,257.5032593765637,274.4184959501246,263.01003350129855","8,7,6,5,4,3,2,1","WHEAT CROP,WHEAT CROP,WHEAT CROP,WHEAT CROP,WHEAT CROP,WHEAT CROP,WHEAT CROP,WHEAT CROP","120,153.431274101538,123.44711754922503,110.94083986132404,113.13456463084718,123.49114348081639,96.79536902867179,98.89469710307927","8,7,6,5,4,3,2,1","NETTLE WEED,NETTLE WEED,NETTLE WEED,NETTLE WEED,NETTLE WEED,NETTLE WEED,NETTLE WEED,NETTLE WEED","20,20,20,20,20,20,20,20","20,20,20,20,20,20,20,20","10,10,10,10,10,10,10,10","20,20,20,20,20,20,20,20","0,0,0,0,0,0,0,0","20,20,20,20,20,20,20,20","20,20,20,20,20,20,20,20","20,20,20,20,20,20,20,20","10,10,10,10,10,10,10,10","20,20,20,20,20,20,20,20","0,0,0,0,0,0,0,0","20,20,20,20,20,20,20,20","0,1,1,1,1,1,1,1","2630,3092,408,371,367,378,609,517","31.55277153584332,12.95757408775608,-12.80372156302884,22.645599303792427,13.151036012200667,16.915236573560954,-11.408462448826082,-14.0486207755449","33.431274101538,-29.984156552312985,-12.506277687900997,2.193724769523148,10.356578849969203,-26.69577445214461,2.0993280744074867,21.07192266784896","0","0"
"447","86","text","0","45","469533","0-0","","","","","","","","","","","","","","","","","","","","","","","","","","","","","","","","","","","","",""
"","","plant-game","0","46","486308","0-0","","200","120","4","CORN CROP","Left","200","180","2","THISTLE WEED","experimental","10","1,2,3,4","120,173.43445107402857,175.50882875562746,173.04149826654336","4,3,2,1","CORN CROP,CORN CROP,CORN CROP,CORN CROP","180,192.45923108598936,180,180.3599395680838","2,1,2,1","THISTLE WEED,THISTLE WEED,NETTLE WEED,NETTLE WEED","20,20,20,20","20,20,20,20","10,10,10,10","20,20,20,20","0,0,0,0","20,20,20,20","20,20,20,20","20,20,20,20","10,10,10,10","20,20,20,20","0,0,0,0","20,20,20,20","0,0,0,0","7263,385,3143,730","53.43445107402859,2.074377681598879,-2.4673304890841123,50.431640240851294","12.45923108598936,30.079871893919087,0.35993956808379934,47.75222866641499","0","0"
"320","86","text","0","47","486748","0-0","","","","","","","","","","","","","","","","","","","","","","","","","","","","","","","","","","","","",""
"","","plant-game","0","48","498605","0-0","","200","190","4","WHEAT CROP","Left","200","160","1","NETTLE WEED","experimental","11","1,2,3,4","190,191.91340282856743,158.92715978012546,193.29085351849128","4,3,2,1","WHEAT CROP,WHEAT CROP,WHEAT CROP,WHEAT CROP","160,170,167.33802237542233,183.3714704463377","1,3,2,1","NETTLE WEED,THISTLE WEED,THISTLE WEED,THISTLE WEED","20,20,20,20","20,20,20,20","10,10,10,10","20,20,20,20","0,0,0,0","20,20,20,20","20,20,20,20","20,20,20,20","10,10,10,10","20,20,20,20","0,0,0,0","20,20,20,20","0,1,1,1","2215,3023,895,958","1.9134028285674347,-32.98624304844195,34.36369373836581,12.52103153718657","11.38830327497536,-2.6619776245776823,16.033448070915362,-12.820351742889951","0","0"
"407","86","text","0","49","499122","0-0","","","","","","","","","","","","","","","","","","","","","","","","","","","","","","","","","","","","",""
"","","plant-game","0","50","519909","0-0","","200","190","1","WHEAT CROP","Right","200","160","8","THISTLE WEED","experimental","12","1,2,3,4,5,6,7,8","160,184.85239373440453,140.00357931876576,142.36183337092524,144.84782578645746,165.0318139304222,144.84091890713614,179.06436946846395","8,7,6,5,4,3,2,1","THISTLE WEED,THISTLE WEED,THISTLE WEED,THISTLE WEED,THISTLE WEED,THISTLE WEED,THISTLE WEED,THISTLE WEED","190,130,93.91317488030874,101.61432825653026,77.74266149033481,55.69547488464919,75.30310129623821,140.2791487226587","1,7,6,5,4,3,2,1","WHEAT CROP,CORN CROP,CORN CROP,CORN CROP,CORN CROP,CORN CROP,CORN CROP,CORN CROP","0,0,0,0,0,0,0,0","20,20,20,20,20,20,20,20","10,10,10,10,10,10,10,10","20,20,20,20,20,20,20,20","20,20,20,20,20,20,20,20","20,20,20,20,20,20,20,20","0,0,0,0,0,0,0,0","20,20,20,20,20,20,20,20","10,10,10,10,10,10,10,10","20,20,20,20,20,20,20,20","20,20,20,20,20,20,20,20","20,20,20,20,20,20,20,20","1,0,0,0,0,0,1,1","4382,5581,1475,635,608,817,1364,735","24.852393734404522,-44.84881441563877,2.358254052159487,2.4859924155322357,20.18398814396475,-20.19089502328606,34.2234505613278,1.7719100164610992","17.427492372642607,-36.086825119691255,7.701153376221514,-23.871666766195446,-22.047186605685624,19.60762641158902,64.97604742642048,21.773988022552267","0","0"
"411","86","text","0","51","520420","0-0","","","","","","","","","","","","","","","","","","","","","","","","","","","","","","","","","","","","",""
"","","plant-game","0","52","535837","0-0","","200","180","1","CORN CROP","Right","200","120","8","THISTLE WEED","experimental","13","1,2,3,4,5,6,7,8","120,163.34470911022694,176.6836685075707,143.58287074291098,183.41577715069565,170.00328649526276,166.56131416980264,144.57398454356738","8,7,6,5,4,3,2,1","THISTLE WEED,THISTLE WEED,THISTLE WEED,THISTLE WEED,THISTLE WEED,THISTLE WEED,THISTLE WEED,THISTLE WEED","180,130,151.7490045725561,187.34035326109188,213.41804859383237,234.85704857282877,267.86724165128487,244.38129264651388","1,7,6,5,4,3,2,1","CORN CROP,WHEAT CROP,WHEAT CROP,WHEAT CROP,WHEAT CROP,WHEAT CROP,WHEAT CROP,WHEAT CROP","0,0,0,0,0,0,0,0","20,20,20,20,20,20,20,20","10,10,10,10,10,10,10,10","20,20,20,20,20,20,20,20","20,20,20,20,20,20,20,20","20,20,20,20,20,20,20,20","0,0,0,0,0,0,0,0","20,20,20,20,20,20,20,20","10,10,10,10,10,10,10,10","20,20,20,20,20,20,20,20","20,20,20,20,20,20,20,20","20,20,20,20,20,20,20,20","1,0,0,1,0,0,0,0","2267,2090,421,2240,1562,399,389,457","43.344709110226944,13.338959397343746,-33.10079776465971,39.83290640778465,-13.412490655432892,-3.4419723254601173,-21.987329626235265,36.058094360897464","24.569903170340424,21.749004572556103,35.5913486885358,26.077695332740493,21.43899997899642,33.01019307845612,-23.485949004770987,-3.996636417682394","0","0"
"376","86","text","0","53","536343","0-0","","","","","","","","","","","","","","","","","","","","","","","","","","","","","","","","","","","","",""
"","","plant-game","0","54","547209","0-0","","200","180","1","CORN CROP","Left","200","180","2","NETTLE WEED","experimental","14","1,2","180,190","1,1","CORN CROP,WHEAT CROP","180,207.66934836335855","2,1","NETTLE WEED,NETTLE WEED","20,20","20,20","10,10","20,20","0,0","20,20","20,20","20,20","10,10","20,20","0,0","20,20","0,1","2902,3319","-25.63789227946743,13.284288453256558","27.669348363358544,18.154443808815785","0","0"
"527","86","text","0","55","547856","0-0","","","","","","","","","","","","","","","","","","","","","","","","","","","","","","","","","","","","",""
"","","plant-game","0","56","564850","0-0","","200","190","2","WHEAT CROP","Right","200","180","8","THISTLE WEED","experimental","15","1,2,3,4,5,6,7,8","180,206.50565328852628,191.08752111230595,204.61548162265106,229.85762482071374,252.1865661334877,265.82890927715187,255.9009188085895","8,7,6,5,4,3,2,1","THISTLE WEED,THISTLE WEED,THISTLE WEED,THISTLE WEED,THISTLE WEED,THISTLE WEED,THISTLE WEED,THISTLE WEED","190,183.7510278797156,140,157.11813178063264,170.51411515952665,186.2446041397442,239.19414701970717,261.60099930432733","2,1,6,5,4,3,2,1","WHEAT CROP,WHEAT CROP,CORN CROP,CORN CROP,CORN CROP,CORN CROP,CORN CROP,CORN CROP","0,0,0,0,0,0,0,0","20,20,20,20,20,20,20,20","10,10,10,10,10,10,10,10","20,20,20,20,20,20,20,20","20,20,20,20,20,20,20,20","20,20,20,20,20,20,20,20","0,0,0,0,0,0,0,0","20,20,20,20,20,20,20,20","10,10,10,10,10,10,10,10","20,20,20,20,20,20,20,20","20,20,20,20,20,20,20,20","20,20,20,20,20,20,20,20","0,0,1,1,1,1,0,0","4277,1098,3364,478,358,354,1442,436","26.50565328852627,-15.418132176220322,13.527960510345123,25.242143198062667,22.328941312773956,13.642343143664135,-9.92799046856237,18.237339708531465","-6.248972120284404,30.50183250461008,17.118131780632638,13.395983378894023,15.730488980217569,52.949542879962955,22.40685228462018,16.773913884582743","0","0"
"560","86","text","0","57","565530","0-0","","","","","","","","","","","","","","","","","","","","","","","","","","","","","","","","","","","","",""
"","","plant-game","0","58","575445","0-0","","200","180","8","WHEAT CROP","Left","200","120","8","THISTLE WEED","experimental","16","1,2,3,4,5,6,7,8","180,240.81935014152853,253.29810816977422,238.97407861355964,255.74528121001876,272.62634623446286,290.7966808066618,261.7195755499294","8,7,6,5,4,3,2,1","WHEAT CROP,WHEAT CROP,WHEAT CROP,WHEAT CROP,WHEAT CROP,WHEAT CROP,WHEAT CROP,WHEAT CROP","120,161.60516699555524,195.79673530139877,180.2036296017625,190.6573851008422,208.80547605256584,212.27795769988293,223.61042887878065","8,7,6,5,4,3,2,1","THISTLE WEED,THISTLE WEED,THISTLE WEED,THISTLE WEED,THISTLE WEED,THISTLE WEED,THISTLE WEED,THISTLE WEED","20,20,20,20,20,20,20,20","20,20,20,20,20,20,20,20","10,10,10,10,10,10,10,10","20,20,20,20,20,20,20,20","0,0,0,0,0,0,0,0","20,20,20,20,20,20,20,20","20,20,20,20,20,20,20,20","20,20,20,20,20,20,20,20","10,10,10,10,10,10,10,10","20,20,20,20,20,20,20,20","0,0,0,0,0,0,0,0","20,20,20,20,20,20,20,20","0,1,1,1,1,1,1,1","2413,1434,403,360,433,517,390,442","60.81935014152854,12.478758028245704,-14.324029556214581,16.77120259645911,16.881065024444105,18.170334572198946,-29.077105256732384,-9.073326621204789","41.605166995555244,34.19156830584353,-15.593105699636281,10.453755499079717,18.14809095172366,3.472481647317104,11.332471178897714,12.73929179623205","0","0"
"461","86","text","0","59","575970","0-0","","","","","","","","","","","","","","","","","","","","","","","","","","","","","","","","","","","","",""
"","","plant-game","0","60","589106","0-0","","200","190","2","WHEAT CROP","Left","200","160","1","NETTLE WEED","experimental","17","1,2","190,238.47163061483155","2,1","WHEAT CROP,WHEAT CROP","160,190","1,1","NETTLE WEED,THISTLE WEED","20,20","20,20","10,10","20,20","0,0","20,20","20,20","20,20","10,10","20,20","0,0","20,20","0,1","5063,3088","48.47163061483157,-12.886496398221865","5.19383148006586,15.051343242741055","2","0"
"1061","86","text","0","61","590257","0-0","","","","","","","","","","","","","","","","","","","","","","","","","","","","","","","","","","","","",""
"","","plant-game","0","62","604645","0-0","","200","160","4","CORN CROP","Right","200","120","8","THISTLE WEED","experimental","18","1,2,3,4,5,6,7,8","120,128.4185372039877,169.06849033509923,197.94409416707663,230.84809726958906,216.9158562888179,220.76320014896302,286.5315565790986","8,7,6,5,4,3,2,1","THISTLE WEED,THISTLE WEED,THISTLE WEED,THISTLE WEED,THISTLE WEED,THISTLE WEED,THISTLE WEED,THISTLE WEED","160,163.0654803845714,153.07549775389654,172.9394717836962,160,150.97778212072433,189.0635544946049,209.3515592459896","4,3,2,1,4,3,2,1","CORN CROP,CORN CROP,CORN CROP,CORN CROP,WHEAT CROP,WHEAT CROP,WHEAT CROP,WHEAT CROP","0,0,0,0,0,0,0,0","20,20,20,20,20,20,20,20","10,10,10,10,10,10,10,10","20,20,20,20,20,20,20,20","20,20,20,20,20,20,20,20","20,20,20,20,20,20,20,20","0,0,0,0,0,0,0,0","20,20,20,20,20,20,20,20","10,10,10,10,10,10,10,10","20,20,20,20,20,20,20,20","20,20,20,20,20,20,20,20","20,20,20,20,20,20,20,20","1,1,1,1,1,1,1,1","2283,332,311,1007,2809,521,301,1034","8.418537203987722,40.649953131111516,28.875603831977386,32.90400310251243,-13.93224098077117,3.8473438601451058,65.76835643013557,11.570439913588446","3.0654803845713943,-9.989982630674863,19.863974029799664,23.72913850222869,-9.022217879275672,38.08577237388057,20.288004751384708,7.1221917042061555","0","0"
"470","86","text","0","63","605165","0-0","","","","","","","","","","","","","","","","","","","","","","","","","","","","","","","","","","","","",""
"","","plant-game","0","64","617052","0-0","","200","120","4","WHEAT CROP","Right","200","160","4","NETTLE WEED","experimental","19","1,2,3,4","160,126.04914403724192,134.2512708946024,108.05240573588777","4,3,2,1","NETTLE WEED,NETTLE WEED,NETTLE WEED,NETTLE WEED","120,160.55389797587367,217.32051276167024,213.2753004485757","4,3,2,1","WHEAT CROP,WHEAT CROP,WHEAT CROP,WHEAT CROP","0,0,0,0","20,20,20,20","10,10,10,10","20,20,20,20","20,20,20,20","20,20,20,20","0,0,0,0","20,20,20,20","10,10,10,10","20,20,20,20","20,20,20,20","20,20,20,20","0,1,0,1","3417,1515,1401,2020","-33.95085596275809,8.202126857360504,-26.19886515871464,23.960753049778774","40.55389797587365,56.76661478579658,-4.045212313094536,26.213741916872422","0","0"
"407","86","text","0","65","617569","0-0","","","","","","","","","","","","","","","","","","","","","","","","","","","","","","","","","","","","",""
"","","plant-game","0","66","630413","0-0","","200","180","1","CORN CROP","Right","200","190","4","THISTLE WEED","experimental","20","1,2,3,4","190,209.85092936079627,197.6628397742604,196.98420483073184","4,3,2,1","THISTLE WEED,THISTLE WEED,THISTLE WEED,THISTLE WEED","180,170,152.89622609142913,162.4094462184291","1,3,2,1","CORN CROP,WHEAT CROP,WHEAT CROP,WHEAT CROP","0,0,0,0","20,20,20,20","10,10,10,10","20,20,20,20","20,20,20,20","20,20,20,20","0,0,0,0","20,20,20,20","10,10,10,10","20,20,20,20","20,20,20,20","20,20,20,20","1,0,0,0","3527,2336,847,941","19.850929360796272,-12.188089586535884,-0.6786349435285512,-16.460989891208136","33.406591634944654,-17.103773908570872,9.513220126999975,0.17514915241092932","0","0"
"447","86","text","0","67","630940","0-0","","","","","","","","","","","","","","","","","","","","","","","","","","","","","","","","","","","","",""
"","","plant-game","0","68","644968","0-0","","200","190","2","WHEAT CROP","Right","200","190","4","THISTLE WEED","experimental","21","1,2,3,4","190,211.59592445985615,216.85807177387704,228.23362409787268","4,3,2,1","THISTLE WEED,THISTLE WEED,THISTLE WEED,THISTLE WEED","190,204.6141135394907,180,210.04654044722963","2,1,2,1","WHEAT CROP,WHEAT CROP,CORN CROP,CORN CROP","0,0,0,0","20,20,20,20","10,10,10,10","20,20,20,20","20,20,20,20","20,20,20,20","0,0,0,0","20,20,20,20","10,10,10,10","20,20,20,20","20,20,20,20","20,20,20,20","1,0,1,0","1827,1987,2645,1200","21.59592445985614,5.262147314020899,11.375552323995628,16.409806276524233","14.614113539490676,-20.775185499960745,30.046540447229642,-0.7775484772072659","1","0"
"97","86","text","0","69","645185","0-0","","","","","","","","","","","","","","","","","","","","","","","","","","","","","","","","","","","","",""
"","","plant-game","0","70","662174","0-0","","200","160","8","CORN CROP","Left","200","190","2","THISTLE WEED","experimental","22","1,2,3,4,5,6,7,8","160,185.94623712558712,196.4003501204631,234.03158890062636,188.13566953352026,228.26256026352775,225.4597243698064,197.6360189875728","8,7,6,5,4,3,2,1","CORN CROP,CORN CROP,CORN CROP,CORN CROP,CORN CROP,CORN CROP,CORN CROP,CORN CROP","190,236.68621638033716,140,147.8116342749969,161.67234371189332,180.345504845777,212.08634685439668,215.8945528945007","2,1,6,5,4,3,2,1","THISTLE WEED,THISTLE WEED,NETTLE WEED,NETTLE WEED,NETTLE WEED,NETTLE WEED,NETTLE WEED,NETTLE WEED","20,20,20,20,20,20,20,20","20,20,20,20,20,20,20,20","10,10,10,10,10,10,10,10","20,20,20,20,20,20,20,20","0,0,0,0,0,0,0,0","20,20,20,20,20,20,20,20","20,20,20,20,20,20,20,20","20,20,20,20,20,20,20,20","10,10,10,10,10,10,10,10","20,20,20,20,20,20,20,20","0,0,0,0,0,0,0,0","20,20,20,20,20,20,20,20","0,0,0,0,0,0,0,0","3174,545,2435,2142,650,604,1050,796","25.94623712558711,10.454112994875972,37.631238780163265,-45.8959193671061,40.126890730007474,-2.8028358937213618,-27.82370538223357,0.764678333029515","46.68621638033715,69.55850326774978,7.811634274996884,13.860709436896425,18.673161133883664,31.740842008619687,3.808206040104011,41.26177192973919","0","0"
"466","86","text","0","71","662785","0-0","","","","","","","","","","","","","","","","","","","","","","","","","","","","","","","","","","","","",""
"","","plant-game","0","72","678322","0-0","","200","160","8","WHEAT CROP","Right","200","120","2","NETTLE WEED","experimental","23","1,2,3,4,5,6,7,8","120,100.4608823848611,140,155.82443630338122,110.15685146812618,142.78636321933442,116.13741030209863,110.96752825049798","2,1,6,5,4,3,2,1","NETTLE WEED,NETTLE WEED,THISTLE WEED,THISTLE WEED,THISTLE WEED,THISTLE WEED,THISTLE WEED,THISTLE WEED","160,168.09610747060947,154.97431901933277,163.29239916829866,141.70639404981875,154.26048071938317,130.8240070934726,109.009332686808","8,7,6,5,4,3,2,1","WHEAT CROP,WHEAT CROP,WHEAT CROP,WHEAT CROP,WHEAT CROP,WHEAT CROP,WHEAT CROP,WHEAT CROP","0,0,0,0,0,0,0,0","20,20,20,20,20,20,20,20","10,10,10,10,10,10,10,10","20,20,20,20,20,20,20,20","20,20,20,20,20,20,20,20","20,20,20,20,20,20,20,20","0,0,0,0,0,0,0,0","20,20,20,20,20,20,20,20","10,10,10,10,10,10,10,10","20,20,20,20,20,20,20,20","20,20,20,20,20,20,20,20","20,20,20,20,20,20,20,20","0,0,0,0,0,0,0,1","2916,483,2104,829,647,581,420,1836","-19.539117615138913,14.312353859166402,15.82443630338122,-45.667584835255035,32.62951175120824,-26.648952917235786,-5.169882051600658,-3.571021040662572","8.096107470609475,-13.121788451276696,8.318080148965887,-21.58600511847989,12.554086669564398,-23.436473625910573,-21.81467440666461,19.32378900335836","1","0"
"337","86","text","0","73","678769","0-0","","","","","","","","","","","","","","","","","","","","","","","","","","","","","","","","","","","","",""
"","","plant-game","0","74","697100","0-0","","200","120","8","WHEAT CROP","Left","200","120","4","NETTLE WEED","experimental","24","1,2,3,4,5,6,7,8","120,174.1436565767408,181.11214936407964,161.27989008626636,191.50855923741574,177.78115860260849,188.78488077124788,237.491917327629","8,7,6,5,4,3,2,1","WHEAT CROP,WHEAT CROP,WHEAT CROP,WHEAT CROP,WHEAT CROP,WHEAT CROP,WHEAT CROP,WHEAT CROP","120,144.6405393457111,136.45974229059652,136.91091048137582,160,180.63697065590839,154.69766923125044,173.0362249582155","4,3,2,1,4,3,2,1","NETTLE WEED,NETTLE WEED,NETTLE WEED,NETTLE WEED,THISTLE WEED,THISTLE WEED,THISTLE WEED,THISTLE WEED","20,20,20,20,20,20,20,20","20,20,20,20,20,20,20,20","10,10,10,10,10,10,10,10","20,20,20,20,20,20,20,20","0,0,0,0,0,0,0,0","20,20,20,20,20,20,20,20","20,20,20,20,20,20,20,20","20,20,20,20,20,20,20,20","10,10,10,10,10,10,10,10","20,20,20,20,20,20,20,20","0,0,0,0,0,0,0,0","20,20,20,20,20,20,20,20","0,1,1,0,1,1,0,1","3171,1397,676,1845,2077,736,1911,951","54.14365657674078,6.96849278733886,-19.83225927781328,30.228669151149386,-13.727400634807257,11.003722168639406,48.707036556381134,30.72380580888766","24.640539345711105,-8.180797055114578,0.4511681907792974,9.713092903227366,20.636970655908378,-25.939301424657934,18.33855572696507,15.943943667953402","0","0"
"447","86","text","0","75","697624","0-0","","","","","","","","","","","","","","","","","","","","","","","","","","","","","","","","","","","","",""
"","","plant-game","0","76","712669","0-0","","200","190","8","WHEAT CROP","Right","200","120","2","NETTLE WEED","experimental","25","1,2,3,4,5,6,7,8","120,112.99108562335542,140,135.75865240356825,113.40160738337238,88.23984344059778,104.62911019515086,124.87576927863601","2,1,6,5,4,3,2,1","NETTLE WEED,NETTLE WEED,THISTLE WEED,THISTLE WEED,THISTLE WEED,THISTLE WEED,THISTLE WEED,THISTLE WEED","190,215.93621521459642,252.12673728081344,269.85995262587187,274.5692588591237,264.00751576840145,280.71348369952756,230.49251440137942","8,7,6,5,4,3,2,1","WHEAT CROP,WHEAT CROP,WHEAT CROP,WHEAT CROP,WHEAT CROP,WHEAT CROP,WHEAT CROP,WHEAT CROP","0,0,0,0,0,0,0,0","20,20,20,20,20,20,20,20","10,10,10,10,10,10,10,10","20,20,20,20,20,20,20,20","20,20,20,20,20,20,20,20","20,20,20,20,20,20,20,20","0,0,0,0,0,0,0,0","20,20,20,20,20,20,20,20","10,10,10,10,10,10,10,10","20,20,20,20,20,20,20,20","20,20,20,20,20,20,20,20","20,20,20,20,20,20,20,20","0,0,0,0,0,0,0,0","3052,1588,1948,498,354,397,347,910","-7.008914376644585,33.672731502924336,-4.241347596431753,-22.357045020195873,-25.16176394277459,16.389266754553077,20.246659083485156,15.645328519356664","25.93621521459641,36.190522066217035,17.733215345058447,4.709306233251822,-10.561743090722253,16.70596793112609,-50.22096929814815,-29.253547156522657","0","0"
"484","86","text","0","77","713273","0-0","","","","","","","","","","","","","","","","","","","","","","","","","","","","","","","","","","","","",""
"","","plant-game","0","78","728282","0-0","","200","190","2","WHEAT CROP","Left","200","120","8","THISTLE WEED","experimental","26","1,2,3,4,5,6,7,8","190,182.87881861306386,140,161.19556192702834,152.2750517504794,134.82140572988598,128.2017797534794,156.30004159744487","2,1,6,5,4,3,2,1","WHEAT CROP,WHEAT CROP,CORN CROP,CORN CROP,CORN CROP,CORN CROP,CORN CROP,CORN CROP","120,129.89808691534307,156.3377532764843,193.05454881007543,186.15733341783084,181.49510167137726,173.02492575611709,206.28877264573265","8,7,6,5,4,3,2,1","THISTLE WEED,THISTLE WEED,THISTLE WEED,THISTLE WEED,THISTLE WEED,THISTLE WEED,THISTLE WEED,THISTLE WEED","20,20,20,20,20,20,20,20","20,20,20,20,20,20,20,20","10,10,10,10,10,10,10,10","20,20,20,20,20,20,20,20","0,0,0,0,0,0,0,0","20,20,20,20,20,20,20,20","20,20,20,20,20,20,20,20","20,20,20,20,20,20,20,20","10,10,10,10,10,10,10,10","20,20,20,20,20,20,20,20","0,0,0,0,0,0,0,0","20,20,20,20,20,20,20,20","0,0,0,1,1,1,0,1","2157,862,1731,1348,485,448,1315,529","-7.121181386936133,-15.826821801172372,21.19556192702833,-8.920510176548918,-17.453646020593414,-6.619625976406587,28.098261843965478,36.13853539307367","9.898086915343072,26.43966636114125,36.71679553359113,-6.897215392244594,-4.662231746453598,-8.470175915260178,33.26384688961558,-24.350598798326658","0","0"
"480","86","text","0","79","728837","0-0","","","","","","","","","","","","","","","","","","","","","","","","","","","","","","","","","","","","",""
"","","plant-game","0","80","740353","0-0","","200","120","8","CORN CROP","Left","200","180","1","NETTLE WEED","experimental","27","1,2,3,4,5,6,7,8","120,131.66485002534617,130.6984083616286,165.63203558793793,170.90060081538695,150.26980413589496,180.8620882454323,199.05040132421112","8,7,6,5,4,3,2,1","CORN CROP,CORN CROP,CORN CROP,CORN CROP,CORN CROP,CORN CROP,CORN CROP,CORN CROP","180,130,138.727278636494,136.55540360402867,158.923408499347,161.97139443396318,211.49748741311205,207.5517761149","1,7,6,5,4,3,2,1","NETTLE WEED,THISTLE WEED,THISTLE WEED,THISTLE WEED,THISTLE WEED,THISTLE WEED,THISTLE WEED,THISTLE WEED","20,20,20,20,20,20,20,20","20,20,20,20,20,20,20,20","10,10,10,10,10,10,10,10","20,20,20,20,20,20,20,20","0,0,0,0,0,0,0,0","20,20,20,20,20,20,20,20","20,20,20,20,20,20,20,20","20,20,20,20,20,20,20,20","10,10,10,10,10,10,10,10","20,20,20,20,20,20,20,20","0,0,0,0,0,0,0,0","20,20,20,20,20,20,20,20","1,0,0,0,1,0,0,0","1221,1185,561,631,600,808,989,539","11.664850025346157,-0.9664416637175606,34.933627226309326,5.268565227449017,-20.630796679491983,30.592284109537324,18.18831307877884,50.2429710642256","10.62125504818421,8.727278636493983,-2.1718750324653335,22.368004895318336,3.0479859346161837,49.52609297914887,-3.9457112982120606,-6.423126231015111","0","0"
"407","86","text","0","81","740850","0-0","","","","","","","","","","","","","","","","","","","","","","","","","","","","","","","","","","","","",""
"","","plant-game","0","82","745103","0-0","","200","160","1","WHEAT CROP","Right","200","180","1","THISTLE WEED","experimental","28","1","180","1","THISTLE WEED","160","1","WHEAT CROP","0","20","10","20","20","20","0","20","10","20","20","20","1","1602","33.77170622148806","-2.0085140990655823","0","0"
"394","86","text","0","83","745617","0-0","","","","","","","","","","","","","","","","","","","","","","","","","","","","","","","","","","","","",""
"","","plant-game","0","84","757630","0-0","","200","120","2","WHEAT CROP","Right","200","160","8","NETTLE WEED","experimental","29","1,2,3,4,5,6,7,8","160,191.51295809008326,169.85334970451757,183.1604383199138,149.85652819572766,195.9181492526017,211.33209450711115,246.18897162598233","8,7,6,5,4,3,2,1","NETTLE WEED,NETTLE WEED,NETTLE WEED,NETTLE WEED,NETTLE WEED,NETTLE WEED,NETTLE WEED,NETTLE WEED","120,142.78736558172557,140,135.48620307069604,117.43338870014479,129.90283746821964,148.3716262216339,176.030414711387","2,1,6,5,4,3,2,1","WHEAT CROP,WHEAT CROP,CORN CROP,CORN CROP,CORN CROP,CORN CROP,CORN CROP,CORN CROP","0,0,0,0,0,0,0,0","20,20,20,20,20,20,20,20","10,10,10,10,10,10,10,10","20,20,20,20,20,20,20,20","20,20,20,20,20,20,20,20","20,20,20,20,20,20,20,20","0,0,0,0,0,0,0,0","20,20,20,20,20,20,20,20","10,10,10,10,10,10,10,10","20,20,20,20,20,20,20,20","20,20,20,20,20,20,20,20","20,20,20,20,20,20,20,20","1,0,1,0,0,0,1,0","1339,619,1020,678,362,533,1941,1282","31.512958090083245,-21.65960838556569,13.307088615396237,-33.30391012418614,46.06162105687404,15.413945254509464,34.85687711887117,-7.194090077142566","22.787365581725574,29.248930506690485,-4.513796929303972,-18.052814370551246,12.469448768074843,18.46878875341426,27.6587884897531,6.472271123330239","0","0"
"314","86","text","0","85","758074","0-0","","","","","","","","","","","","","","","","","","","","","","","","","","","","","","","","","","","","",""
"","","plant-game","0","86","767382","0-0","","200","120","1","WHEAT CROP","Right","200","180","8","THISTLE WEED","experimental","30","1,2,3,4,5,6,7,8","180,185.6749524388838,217.2418209118171,246.73120331680005,255.81606804680072,263.08520277867285,292.1234153456245,322.77500168417697","8,7,6,5,4,3,2,1","THISTLE WEED,THISTLE WEED,THISTLE WEED,THISTLE WEED,THISTLE WEED,THISTLE WEED,THISTLE WEED,THISTLE WEED","120,130,142.32140683636862,150.48893324604822,162.45015461080945,149.45466813679667,190.61437038484343,198.50163981724427","1,7,6,5,4,3,2,1","WHEAT CROP,CORN CROP,CORN CROP,CORN CROP,CORN CROP,CORN CROP,CORN CROP,CORN CROP","0,0,0,0,0,0,0,0","20,20,20,20,20,20,20,20","10,10,10,10,10,10,10,10","20,20,20,20,20,20,20,20","20,20,20,20,20,20,20,20","20,20,20,20,20,20,20,20","0,0,0,0,0,0,0,0","20,20,20,20,20,20,20,20","10,10,10,10,10,10,10,10","20,20,20,20,20,20,20,20","20,20,20,20,20,20,20,20","20,20,20,20,20,20,20,20","0,1,1,1,1,1,1,1","1178,1329,594,395,284,250,181,397","5.674952438883781,31.566868472933297,29.48938240498297,9.084864730000675,7.269134731872155,29.03821256695162,30.651586338552498,12.122431415743986","-9.502690775019994,12.32140683636863,8.167526409679587,11.96122136476124,-12.995486474012786,41.159702248046756,7.887269432400835,-8.445327189068141","0","0"
"182","86","text","0","87","767704","0-0","","","","","","","","","","","","","","","","","","","","","","","","","","","","","","","","","","","","",""
"","","plant-game","0","88","779725","0-0","","200","120","8","CORN CROP","Right","200","190","1","NETTLE WEED","experimental","31","1,2,3,4,5,6,7,8","190,130,149.9343691568052,204.19423602071666,250.24782511689486,258.8494142677371,215.88453337118804,209.71442642657485","1,7,6,5,4,3,2,1","NETTLE WEED,THISTLE WEED,THISTLE WEED,THISTLE WEED,THISTLE WEED,THISTLE WEED,THISTLE WEED,THISTLE WEED","120,106.98119601122511,90.01505895774562,109.55173894104624,176.6575333468079,167.43436435078115,158.7883254971621,137.77215651841394","8,7,6,5,4,3,2,1","CORN CROP,CORN CROP,CORN CROP,CORN CROP,CORN CROP,CORN CROP,CORN CROP,CORN CROP","0,0,0,0,0,0,0,0","20,20,20,20,20,20,20,20","10,10,10,10,10,10,10,10","20,20,20,20,20,20,20,20","20,20,20,20,20,20,20,20","20,20,20,20,20,20,20,20","0,0,0,0,0,0,0,0","20,20,20,20,20,20,20,20","10,10,10,10,10,10,10,10","20,20,20,20,20,20,20,20","20,20,20,20,20,20,20,20","20,20,20,20,20,20,20,20","0,1,1,1,0,0,0,0","2165,1568,668,558,712,447,454,610","6.036117248714191,19.93436915680518,54.25986686391147,46.0535890961782,8.601589150842239,-42.96488089654903,-6.170106944613196,-13.576257815354255","-13.018803988774888,-16.966137053479493,19.536679983300623,67.10579440576167,-9.223168996026734,-8.64603885361904,-21.016168978748166,-0.969239402920492","0","0"
"531","86","text","0","89","780376","0-0","","","","","","","","","","","","","","","","","","","","","","","","","","","","","","","","","","","","",""
"","","plant-game","0","90","787071","0-0","","200","180","1","CORN CROP","Right","200","190","2","NETTLE WEED","experimental","32","1,2","190,198.40160433332065","2,1","NETTLE WEED,NETTLE WEED","180,190","1,1","CORN CROP,WHEAT CROP","0,0","20,20","10,10","20,20","20,20","20,20","0,0","20,20","10,10","20,20","20,20","20,20","1,1","1777,1627","8.401604333320643,58.21124000959355","8.732531702493823,30.73660713319907","0","0"
"3689","86","text","0","91","790870","0-0","","","","","","","","","","","","","","","","","","","","","","","","","","","","","","","","","","","","",""
"","","plant-game","0","92","803854","0-0","","200","180","2","WHEAT CROP","Left","200","180","8","THISTLE WEED","experimental","33","1,2,3,4,5,6,7,8","180,183.3510223070041,140,137.62723825950567,140.54633390078078,129.76917970335288,136.0087183527256,138.90486678990098","2,1,6,5,4,3,2,1","WHEAT CROP,WHEAT CROP,CORN CROP,CORN CROP,CORN CROP,CORN CROP,CORN CROP,CORN CROP","180,218.0006038891084,241.95027787120455,248.37468555698578,278.631351541608,283.201840130642,274.53670885884793,277.8599741525621","8,7,6,5,4,3,2,1","THISTLE WEED,THISTLE WEED,THISTLE WEED,THISTLE WEED,THISTLE WEED,THISTLE WEED,THISTLE WEED,THISTLE WEED","20,20,20,20,20,20,20,20","20,20,20,20,20,20,20,20","10,10,10,10,10,10,10,10","20,20,20,20,20,20,20,20","0,0,0,0,0,0,0,0","20,20,20,20,20,20,20,20","20,20,20,20,20,20,20,20","20,20,20,20,20,20,20,20","10,10,10,10,10,10,10,10","20,20,20,20,20,20,20,20","0,0,0,0,0,0,0,0","20,20,20,20,20,20,20,20","0,0,1,1,1,1,1,1","4309,674,2233,315,270,154,100,104","3.3510223070041008,40.99469047774751,-2.3727617404943224,2.9190956412751126,-10.777154197427905,6.239538649372732,2.89614843717539,-1.624092089226927","38.000603889108405,23.949673982096172,6.424407685781236,30.256665984622234,4.570488589033972,-8.665131271794031,3.3232652937141207,3.130986294597201","0","0"
"437","86","text","0","93","804411","0-0","","","","","","","","","","","","","","","","","","","","","","","","","","","","","","","","","","","","",""
"","","plant-game","0","94","810118","0-0","","200","190","2","CORN CROP","Right","200","160","4","THISTLE WEED","experimental","34","1,2,3,4","160,181.03233118455714,178.07941188182718,173.81664547196192","4,3,2,1","THISTLE WEED,THISTLE WEED,THISTLE WEED,THISTLE WEED","190,227.77337305361283,180,202.42395133266163","2,1,2,1","CORN CROP,CORN CROP,WHEAT CROP,WHEAT CROP","0,0,0,0","20,20,20,20","10,10,10,10","20,20,20,20","20,20,20,20","20,20,20,20","0,0,0,0","20,20,20,20","10,10,10,10","20,20,20,20","20,20,20,20","20,20,20,20","0,0,0,0","1157,118,557,137","21.032331184557137,-2.952919302729966,-4.262766409865258,-11.949514183602245","37.77337305361282,0.6997596805810796,22.42395133266163,-13.414454245974918","0","0"
"535","86","text","0","95","810734","0-0","","","","","","","","","","","","","","","","","","","","","","","","","","","","","","","","","","","","",""
"","","plant-game","0","96","815397","0-0","","200","120","2","CORN CROP","Left","200","180","4","THISTLE WEED","experimental","35","1,2,3,4","120,140.20429823906312,180,200.92070981332608","2,1,2,1","CORN CROP,CORN CROP,WHEAT CROP,WHEAT CROP","180,175.14287197606802,163.26046638868024,203.1765926241532","4,3,2,1","THISTLE WEED,THISTLE WEED,THISTLE WEED,THISTLE WEED","20,20,20,20","20,20,20,20","10,10,10,10","20,20,20,20","0,0,0,0","20,20,20,20","20,20,20,20","20,20,20,20","10,10,10,10","20,20,20,20","0,0,0,0","20,20,20,20","0,0,0,0","476,141,527,117","20.20429823906313,10.137277963593295,20.920709813326084,9.570063995841647","-4.8571280239319705,-11.882405587387787,39.916126235472944,44.118787646857456","0","0"
"130","86","text","0","97","815638","0-0","","","","","","","","","","","","","","","","","","","","","","","","","","","","","","","","","","","","",""
"","","plant-game","0","98","822637","0-0","","200","190","4","WHEAT CROP","Right","200","180","1","THISTLE WEED","experimental","36","1,2,3,4","180,170,163.68086091358572,160.33596658766484","1,3,2,1","THISTLE WEED,NETTLE WEED,NETTLE WEED,NETTLE WEED","190,178.51626245529323,211.23353595477514,221.1929437160222","4,3,2,1","WHEAT CROP,WHEAT CROP,WHEAT CROP,WHEAT CROP","0,0,0,0","20,20,20,20","10,10,10,10","20,20,20,20","20,20,20,20","20,20,20,20","0,0,0,0","20,20,20,20","10,10,10,10","20,20,20,20","20,20,20,20","20,20,20,20","0,1,1,1","569,1288,465,353","2.0431040373328444,-6.319139086414278,-3.3448943259208797,-3.2403681544382543","-11.483737544706758,32.717273499481905,9.959407761247064,21.98124055874349","0","0"
"266","86","text","0","99","823003","0-0","","","","","","","","","","","","","","","","","","","","","","","","","","","","","","","","","","","","",""
"","","plant-game","0","100","828792","0-0","","200","190","2","CORN CROP","Right","200","190","1","NETTLE WEED","experimental","37","1,2","190,190","1,1","NETTLE WEED,THISTLE WEED","190,212.13193316697485","2,1","CORN CROP,CORN CROP","0,0","20,20","10,10","20,20","20,20","20,20","0,0","20,20","10,10","20,20","20,20","20,20","0,0","784,1925","21.984139212429525,-1.8025834632051843","22.131933166974843,3.4278033954712326","0","0"
"149","86","text","0","101","828966","0-0","","","","","","","","","","","","","","","","","","","","","","","","","","","","","","","","","","","","",""
"","","plant-game","0","102","839721","0-0","","200","160","4","WHEAT CROP","Left","200","160","8","THISTLE WEED","experimental","38","1,2,3,4,5,6,7,8","160,164.96325569920472,153.37803401249985,123.73276537095957,160,189.75049130799346,166.13210756139387,183.33116268469738","4,3,2,1,4,3,2,1","WHEAT CROP,WHEAT CROP,WHEAT CROP,WHEAT CROP,CORN CROP,CORN CROP,CORN CROP,CORN CROP","160,171.19009607272932,158.22957533283883,182.59697451786752,227.85660583953626,237.03538493223405,224.05144940157143,196.89230960676292","8,7,6,5,4,3,2,1","THISTLE WEED,THISTLE WEED,THISTLE WEED,THISTLE WEED,THISTLE WEED,THISTLE WEED,THISTLE WEED,THISTLE WEED","20,20,20,20,20,20,20,20","20,20,20,20,20,20,20,20","10,10,10,10,10,10,10,10","20,20,20,20,20,20,20,20","0,0,0,0,0,0,0,0","20,20,20,20,20,20,20,20","20,20,20,20,20,20,20,20","20,20,20,20,20,20,20,20","10,10,10,10,10,10,10,10","20,20,20,20,20,20,20,20","0,0,0,0,0,0,0,0","20,20,20,20,20,20,20,20","0,1,1,1,1,1,1,1","1301,1144,476,507,1254,320,344,485","4.963255699204719,-11.585221686704859,-29.64526864154028,11.749802935579087,29.75049130799345,-23.618383746599605,17.199055123303502,-13.890398444954277","11.190096072729332,-12.960520739890494,24.367399185028688,45.25963132166873,9.178779092697805,-12.98393553066263,-27.159139794808524,-39.40485633951666","0","0"
"83","86","text","0","103","839924","0-0","","","","","","","","","","","","","","","","","","","","","","","","","","","","","","","","","","","","",""
"","","plant-game","0","104","848940","0-0","","200","160","8","CORN CROP","Left","200","120","1","THISTLE WEED","experimental","39","1,2,3,4,5,6,7,8","160,190.64700015033736,190.5763292209008,157.3433565764186,171.63267971535615,171.96720427430057,164.39832089999308,190.0254526285192","8,7,6,5,4,3,2,1","CORN CROP,CORN CROP,CORN CROP,CORN CROP,CORN CROP,CORN CROP,CORN CROP,CORN CROP","120,130,159.38606464071097,186.706723321742,219.41509766401694,235.9922905462677,248.56241351249582,271.71225971541355","1,7,6,5,4,3,2,1","THISTLE WEED,NETTLE WEED,NETTLE WEED,NETTLE WEED,NETTLE WEED,NETTLE WEED,NETTLE WEED,NETTLE WEED","20,20,20,20,20,20,20,20","20,20,20,20,20,20,20,20","10,10,10,10,10,10,10,10","20,20,20,20,20,20,20,20","0,0,0,0,0,0,0,0","20,20,20,20,20,20,20,20","20,20,20,20,20,20,20,20","20,20,20,20,20,20,20,20","10,10,10,10,10,10,10,10","20,20,20,20,20,20,20,20","0,0,0,0,0,0,0,0","20,20,20,20,20,20,20,20","0,0,0,0,0,0,0,0","1091,1330,441,470,468,333,338,308","30.647000150337362,-0.07067092943658082,-33.232972644482174,14.289323138937545,0.3345245589444339,-7.568883374307486,25.62713172852611,9.025209322110936","-12.508730946670461,29.38606464071097,27.320658681031045,32.70837434227494,16.57719288225076,12.570122966228126,23.14984620291775,39.57093141798954","0","0"
"107","86","text","0","105","849167","0-0","","","","","","","","","","","","","","","","","","","","","","","","","","","","","","","","","","","","",""
"","","plant-game","0","106","853364","0-0","","200","190","2","CORN CROP","Right","200","190","2","NETTLE WEED","experimental","40","1,2","190,197.087198218858","2,1","NETTLE WEED,NETTLE WEED","190,203.57224738895445","2,1","CORN CROP,CORN CROP","0,0","20,20","10,10","20,20","20,20","20,20","0,0","20,20","10,10","20,20","20,20","20,20","0,0","931,433","7.087198218857992,-15.805329671540335","13.572247388954445,9.528010927417917","0","0"
"2425","86","text","0","107","855899","0-0","","","","","","","","","","","","","","","","","","","","","","","","","","","","","","","","","","","","",""
"","","plant-game","0","108","859819","0-0","","200","190","2","CORN CROP","Left","200","160","2","NETTLE WEED","experimental","41","1,2","190,183.6699316367108","2,1","CORN CROP,CORN CROP","160,173.6306566544043","2,1","NETTLE WEED,NETTLE WEED","20,20","20,20","10,10","20,20","0,0","20,20","20,20","20,20","10,10","20,20","0,0","20,20","0,0","905,334","-6.330068363289207,15.196372478195919","13.630656654404303,19.824482427305632","0","0"
"490","86","text","0","109","860449","0-0","","","","","","","","","","","","","","","","","","","","","","","","","","","","","","","","","","","","",""
"","","plant-game","0","110","865938","0-0","","200","120","4","CORN CROP","Right","200","190","1","THISTLE WEED","experimental","42","1,2,3,4","190,170,131.48955452040673,164.72681095319362","1,3,2,1","THISTLE WEED,NETTLE WEED,NETTLE WEED,NETTLE WEED","120,129.06954755326754,127.58509230142602,136.23684857340663","4,3,2,1","CORN CROP,CORN CROP,CORN CROP,CORN CROP","0,0,0,0","20,20,20,20","10,10,10,10","20,20,20,20","20,20,20,20","20,20,20,20","0,0,0,0","20,20,20,20","10,10,10,10","20,20,20,20","20,20,20,20","20,20,20,20","0,0,0,0","617,638,207,327","61.27483894987048,-38.51044547959329,33.23725643278689,-20.267186132454626","9.069547553267537,-1.4844552518415288,8.651756271980615,19.74397231788849","0","0"
"107","86","text","0","111","866154","0-0","","","","","","","","","","","","","","","","","","","","","","","","","","","","","","","","","","","","",""
"","","plant-game","0","112","870063","0-0","","200","180","2","WHEAT CROP","Left","200","120","2","THISTLE WEED","experimental","43","1,2","180,171.4542717340198","2,1","WHEAT CROP,WHEAT CROP","120,95.55730782779935","2,1","THISTLE WEED,THISTLE WEED","20,20","20,20","10,10","20,20","0,0","20,20","20,20","20,20","10,10","20,20","0,0","20,20","0,0","1119,386","-8.545728265980202,42.63894193770163","-24.44269217220065,9.597823416265946","0","0"
"112","86","text","0","113","870315","0-0","","","","","","","","","","","","","","","","","","","","","","","","","","","","","","","","","","","","",""
"","","plant-game","0","114","878035","0-0","","200","160","1","WHEAT CROP","Right","200","180","2","NETTLE WEED","experimental","44","1,2","180,200.1715911505413","2,1","NETTLE WEED,NETTLE WEED","160,190","1,1","WHEAT CROP,CORN CROP","0,0","20,20","10,10","20,20","20,20","20,20","0,0","20,20","10,10","20,20","20,20","20,20","0,0","1633,739","20.171591150541293,-8.763876988238428","-41.52921956026036,46.65754418049545","0","0"
"537","86","text","0","115","878684","0-0","","","","","","","","","","","","","","","","","","","","","","","","","","","","","","","","","","","","",""
"","","plant-game","0","116","884034","0-0","","200","120","1","CORN CROP","Right","200","120","2","NETTLE WEED","experimental","45","1,2","120,127.27970288846389","2,1","NETTLE WEED,NETTLE WEED","120,190","1,1","CORN CROP,WHEAT CROP","0,0","20,20","10,10","20,20","20,20","20,20","0,0","20,20","10,10","20,20","20,20","20,20","0,0","754,1028","7.279702888463893,-29.27088162314826","2.0306895339525823,14.735750842195493","0","0"
"130","86","text","0","117","884274","0-0","","","","","","","","","","","","","","","","","","","","","","","","","","","","","","","","","","","","",""
"","","plant-game","0","118","894476","0-0","","200","160","4","CORN CROP","Right","200","180","8","THISTLE WEED","experimental","46","1,2,3,4,5,6,7,8","180,184.21199298489068,191.84000971849747,205.75978822766268,199.2999778678613,201.22696191012628,235.6589041739,262.34451211779543","8,7,6,5,4,3,2,1","THISTLE WEED,THISTLE WEED,THISTLE WEED,THISTLE WEED,THISTLE WEED,THISTLE WEED,THISTLE WEED,THISTLE WEED","160,207.7765637131593,207.7489987988481,161.02421632244108,160,166.06884737722072,188.51345658550304,180.38402116154046","4,3,2,1,4,3,2,1","CORN CROP,CORN CROP,CORN CROP,CORN CROP,WHEAT CROP,WHEAT CROP,WHEAT CROP,WHEAT CROP","0,0,0,0,0,0,0,0","20,20,20,20,20,20,20,20","10,10,10,10,10,10,10,10","20,20,20,20,20,20,20,20","20,20,20,20,20,20,20,20","20,20,20,20,20,20,20,20","0,0,0,0,0,0,0,0","20,20,20,20,20,20,20,20","10,10,10,10,10,10,10,10","20,20,20,20,20,20,20,20","20,20,20,20,20,20,20,20","20,20,20,20,20,20,20,20","0,0,0,1,1,1,1,1","1069,175,172,1310,1071,357,450,869","4.211992984890675,7.628016733606793,13.919778509165209,-6.459810359801381,1.926984042264987,34.43194226377372,26.68560794389544,23.301990430999417","47.77656371315932,-0.027564914311211226,-46.72478247640704,9.228236825256902,6.068847377220729,22.44460920828233,-8.12943542396258,17.393623746976818","0","0"
"146","86","text","0","119","894748","0-0","","","","","","","","","","","","","","","","","","","","","","","","","","","","","","","","","","","","",""
"","","plant-game","0","120","899026","0-0","","200","120","4","CORN CROP","Right","200","180","4","NETTLE WEED","experimental","47","1,2,3,4","180,193.9181658053605,248.0564157598745,277.42234533814434","4,3,2,1","NETTLE WEED,NETTLE WEED,NETTLE WEED,NETTLE WEED","120,153.33697300792332,151.02818414066948,182.55484215557613","4,3,2,1","CORN CROP,CORN CROP,CORN CROP,CORN CROP","0,0,0,0","20,20,20,20","10,10,10,10","20,20,20,20","20,20,20,20","20,20,20,20","0,0,0,0","20,20,20,20","10,10,10,10","20,20,20,20","20,20,20,20","20,20,20,20","1,1,1,1","1243,80,82,90","13.91816580536049,54.138249954514016,29.36592957826985,-2.9633455246827722","33.336973007923326,-2.3087888672538313,31.526658014906637,18.81892092349094","0","0"
"175","86","text","0","121","899321","0-0","","","","","","","","","","","","","","","","","","","","","","","","","","","","","","","","","","","","",""
"","","plant-game","0","122","905402","0-0","","200","190","4","WHEAT CROP","Left","200","120","1","THISTLE WEED","experimental","48","1,2,3,4","190,191.5986970135408,215.7928805380578,238.91225503145154","4,3,2,1","WHEAT CROP,WHEAT CROP,WHEAT CROP,WHEAT CROP","120,170,203.1112330670626,214.64631235313115","1,3,2,1","THISTLE WEED,NETTLE WEED,NETTLE WEED,NETTLE WEED","20,20,20,20","20,20,20,20","10,10,10,10","20,20,20,20","0,0,0,0","20,20,20,20","20,20,20,20","20,20,20,20","10,10,10,10","20,20,20,20","0,0,0,0","20,20,20,20","0,0,0,0","701,886,667,341","1.5986970135407965,24.194183524517,23.119374493393728,40.824167277085024","2.2615385937513572,33.111233067062614,11.535079286068544,-14.384619856198434","0","0"
"130","86","text","0","123","905642","0-0","","","","","","","","","","","","","","","","","","","","","","","","","","","","","","","","","","","","",""
"","","plant-game","0","124","908769","0-0","","200","180","1","WHEAT CROP","Left","200","180","1","THISTLE WEED","experimental","49","1","180","1","WHEAT CROP","180","1","THISTLE WEED","20","20","10","20","0","20","20","20","10","20","0","20","0","927","26.30454492323377","37.762975569775236","0","0"
"122","86","text","0","125","909005","0-0","","","","","","","","","","","","","","","","","","","","","","","","","","","","","","","","","","","","",""
"","","plant-game","0","126","915566","0-0","","200","190","4","WHEAT CROP","Left","200","190","8","THISTLE WEED","experimental","50","1,2,3,4,5,6,7,8","190,228.20497686736365,264.0102653367359,250.52522580927223,160,198.55752152611484,224.49020092667308,227.20143748672496","4,3,2,1,4,3,2,1","WHEAT CROP,WHEAT CROP,WHEAT CROP,WHEAT CROP,CORN CROP,CORN CROP,CORN CROP,CORN CROP","190,185.53158066608827,178.71241469594744,208.16603000721622,215.74283467003573,244.01676450213978,236.98901421048447,228.86598363893546","8,7,6,5,4,3,2,1","THISTLE WEED,THISTLE WEED,THISTLE WEED,THISTLE WEED,THISTLE WEED,THISTLE WEED,THISTLE WEED,THISTLE WEED","20,20,20,20,20,20,20,20","20,20,20,20,20,20,20,20","10,10,10,10,10,10,10,10","20,20,20,20,20,20,20,20","0,0,0,0,0,0,0,0","20,20,20,20,20,20,20,20","20,20,20,20,20,20,20,20","20,20,20,20,20,20,20,20","10,10,10,10,10,10,10,10","20,20,20,20,20,20,20,20","0,0,0,0,0,0,0,0","20,20,20,20,20,20,20,20","0,0,0,0,0,0,0,0","423,531,133,114,820,97,131,760","38.20497686736367,35.80528846937227,-13.485039527463691,71.72258056887226,38.557521526114854,25.932679400558243,2.7112365600518586,13.354089523485799","-4.468419333911726,-6.819165970140837,29.453615311268774,7.576804662819502,28.273929832104038,-7.0277502916553125,-8.123030571549016,41.213408624961694","0","0"
"614","86","text","0","127","916300","0-0","","","","","","","","","","","","","","","","","","","","","","","","","","","","","","","","","","","","",""
"","","plant-game","0","128","921902","0-0","","200","120","1","CORN CROP","Right","200","120","4","NETTLE WEED","experimental","51","1,2,3,4","120,134.77335230808612,128.67484909815352,104.10092829126057","4,3,2,1","NETTLE WEED,NETTLE WEED,NETTLE WEED,NETTLE WEED","120,170,152.39538396642752,185.3310733815628","1,3,2,1","CORN CROP,WHEAT CROP,WHEAT CROP,WHEAT CROP","0,0,0,0","20,20,20,20","10,10,10,10","20,20,20,20","20,20,20,20","20,20,20,20","0,0,0,0","20,20,20,20","10,10,10,10","20,20,20,20","20,20,20,20","20,20,20,20","0,0,0,0","479,759,122,112","14.773352308086118,-6.098503209932601,-24.57392080689295,-20.034684466853854","-9.396659084751278,-17.604616033572484,32.93568941513528,31.885466274869515","0","0"
"527","86","text","0","129","922569","0-0","","","","","","","","","","","","","","","","","","","","","","","","","","","","","","","","","","","","",""
"","","plant-game","0","130","929234","0-0","","200","180","8","CORN CROP","Right","200","180","2","THISTLE WEED","experimental","52","1,2,3,4,5,6,7,8","180,171.0884735464659,140,94.8758126202955,94.59965203700635,89.40169939123322,72.63548176678393,74.74474836174952","2,1,6,5,4,3,2,1","THISTLE WEED,THISTLE WEED,NETTLE WEED,NETTLE WEED,NETTLE WEED,NETTLE WEED,NETTLE WEED,NETTLE WEED","180,173.59557452735177,218.74125166042808,201.4351655775129,180.31094949310435,223.8277704969052,226.8446095640972,223.0456532491744","8,7,6,5,4,3,2,1","CORN CROP,CORN CROP,CORN CROP,CORN CROP,CORN CROP,CORN CROP,CORN CROP,CORN CROP","0,0,0,0,0,0,0,0","20,20,20,20,20,20,20,20","10,10,10,10,10,10,10,10","20,20,20,20,20,20,20,20","20,20,20,20,20,20,20,20","20,20,20,20,20,20,20,20","0,0,0,0,0,0,0,0","20,20,20,20,20,20,20,20","10,10,10,10,10,10,10,10","20,20,20,20,20,20,20,20","20,20,20,20,20,20,20,20","20,20,20,20,20,20,20,20","0,0,0,0,0,0,0,0","723,120,744,77,90,110,789,99","-8.911526453534089,-25.66645949800783,-45.124187379704495,-0.276160583289159,-5.197952645773121,-16.766217624449304,2.1092665949655904,19.259677023433046","-6.404425472648238,45.145677133076305,-17.30608608291518,-21.124216084408545,43.51682100380085,3.016839067192001,-3.798956314922817,-12.684372883412907","0","0"
"449","86","text","0","131","929838","0-0","","","","","","","","","","","","","","","","","","","","","","","","","","","","","","","","","","","","",""
"","","plant-game","0","132","936046","0-0","","200","120","4","WHEAT CROP","Right","200","120","2","NETTLE WEED","experimental","53","1,2,3,4","120,113.63976380871402,180,165.8821816686153","2,1,2,1","NETTLE WEED,NETTLE WEED,THISTLE WEED,THISTLE WEED","120,101.81859159560874,109.97692699529843,120.02788374672753","4,3,2,1","WHEAT CROP,WHEAT CROP,WHEAT CROP,WHEAT CROP","0,0,0,0","20,20,20,20","10,10,10,10","20,20,20,20","20,20,20,20","20,20,20,20","0,0,0,0","20,20,20,20","10,10,10,10","20,20,20,20","20,20,20,20","20,20,20,20","0,0,0,0","728,124,618,150","-6.360236191285983,-0.05464166869485879,-14.117818331384704,4.651283084450317","-18.181408404391263,8.15833539968969,10.050956751429103,15.541112811799596","0","0"
"838","86","text","0","133","936944","0-0","","","","","","","","","","","","","","","","","","","","","","","","","","","","","","","","","","","","",""
"","","plant-game","0","134","944146","0-0","","200","120","2","CORN CROP","Right","200","120","1","THISTLE WEED","experimental","54","1,2","120,190","1,1","THISTLE WEED,NETTLE WEED","120,131.2645163637936","2,1","CORN CROP,CORN CROP","0,0","20,20","10,10","20,20","20,20","20,20","0,0","20,20","10,10","20,20","20,20","20,20","0,1","958,1818","-13.318180119522276,9.170134824568317","11.264516363793595,7.7840195743657965","1","0"
"358","86","text","0","135","944629","0-0","","","","","","","","","","","","","","","","","","","","","","","","","","","","","","","","","","","","",""
"","","plant-game","0","136","952037","0-0","","200","190","4","CORN CROP","Right","200","180","8","NETTLE WEED","experimental","55","1,2,3,4,5,6,7,8","180,205.00178335717976,181.2009943455359,229.21888235629388,207.67187684600316,211.4730597774514,246.8276883400814,231.93074135168746","8,7,6,5,4,3,2,1","NETTLE WEED,NETTLE WEED,NETTLE WEED,NETTLE WEED,NETTLE WEED,NETTLE WEED,NETTLE WEED,NETTLE WEED","190,200.82050869891987,229.1198691083773,237.05788543568772,160,195.0164374195224,236.85794035429637,253.06528915847935","4,3,2,1,4,3,2,1","CORN CROP,CORN CROP,CORN CROP,CORN CROP,WHEAT CROP,WHEAT CROP,WHEAT CROP,WHEAT CROP","0,0,0,0,0,0,0,0","20,20,20,20,20,20,20,20","10,10,10,10,10,10,10,10","20,20,20,20,20,20,20,20","20,20,20,20,20,20,20,20","20,20,20,20,20,20,20,20","0,0,0,0,0,0,0,0","20,20,20,20,20,20,20,20","10,10,10,10,10,10,10,10","20,20,20,20,20,20,20,20","20,20,20,20,20,20,20,20","20,20,20,20,20,20,20,20","1,1,1,1,1,1,1,1","1058,148,117,145,1059,64,116,121","25.001783357179775,-23.800789011643886,48.01788801075797,-21.547005510290717,3.8011829314482277,35.35462856263002,-14.896946988393942,1.7238181679384184","10.820508698919852,28.29936040945743,7.938016327310427,-8.35974299841494,35.016437419522404,41.841502934774,16.207348804182967,9.41981069850012","0","0"
"504","86","text","0","137","952661","0-0","","","","","","","","","","","","","","","","","","","","","","","","","","","","","","","","","","","","",""
"","","plant-game","0","138","955890","0-0","","200","160","2","CORN CROP","Left","200","160","2","THISTLE WEED","experimental","56","1,2","160,186.32618709224363","2,1","CORN CROP,CORN CROP","160,115.3575137304522","2,1","THISTLE WEED,THISTLE WEED","20,20","20,20","10,10","20,20","0,0","20,20","20,20","20,20","10,10","20,20","0,0","20,20","1,1","348,113","26.326187092243643,11.206849309218622","-44.6424862695478,21.67069804786573","0","0"
"94","86","text","0","139","956084","0-0","","","","","","","","","","","","","","","","","","","","","","","","","","","","","","","","","","","","",""
"","","plant-game","0","140","960911","0-0","","200","160","8","CORN CROP","Right","200","120","8","THISTLE WEED","experimental","57","1,2,3,4,5,6,7,8","120,129.26366278148842,148.4534024916765,170.13148803038223,232.23836172605507,234.72547981877173,236.68138762353692,245.14736826384808","8,7,6,5,4,3,2,1","THISTLE WEED,THISTLE WEED,THISTLE WEED,THISTLE WEED,THISTLE WEED,THISTLE WEED,THISTLE WEED,THISTLE WEED","160,191.71233627726681,184.5832907138749,173.5474693668617,207.0534427591196,247.78307493370153,279.3543924676691,307.92687386472517","8,7,6,5,4,3,2,1","CORN CROP,CORN CROP,CORN CROP,CORN CROP,CORN CROP,CORN CROP,CORN CROP,CORN CROP","0,0,0,0,0,0,0,0","20,20,20,20,20,20,20,20","10,10,10,10,10,10,10,10","20,20,20,20,20,20,20,20","20,20,20,20,20,20,20,20","20,20,20,20,20,20,20,20","0,0,0,0,0,0,0,0","20,20,20,20,20,20,20,20","10,10,10,10,10,10,10,10","20,20,20,20,20,20,20,20","20,20,20,20,20,20,20,20","20,20,20,20,20,20,20,20","1,1,1,1,1,1,1,1","1093,89,103,87,80,84,222,111","9.263662781488424,19.18973971018809,21.67808553870572,62.106873695672846,2.4871180927166563,1.9559078047651788,8.465980640311173,9.802743759821901","31.712336277266807,-7.129045563391912,-11.035821347013211,33.50597339225793,40.72963217458192,31.571317533967573,28.57248139705611,2.9672072755837817","0","0"
"134","86","text","0","141","961135","0-0","","","","","","","","","","","","","","","","","","","","","","","","","","","","","","","","","","","","",""
"","","plant-game","0","142","964528","0-0","","200","190","1","WHEAT CROP","Left","200","180","1","THISTLE WEED","experimental","58","1","190","1","WHEAT CROP","180","1","THISTLE WEED","20","20","10","20","0","20","20","20","10","20","0","20","0","951","-18.47013870548109","21.49077640002836","0","0"
"125","86","text","0","143","964723","0-0","","","","","","","","","","","","","","","","","","","","","","","","","","","","","","","","","","","","",""
"","","plant-game","0","144","975563","0-0","","200","180","8","WHEAT CROP","Left","200","160","1","THISTLE WEED","experimental","59","1,2,3,4,5,6,7,8","180,207.78019004001595,205.20475820356617,243.5821180540855,228.78932412840157,283.0380981020568,310.2264375777035,316.4733113250704","8,7,6,5,4,3,2,1","WHEAT CROP,WHEAT CROP,WHEAT CROP,WHEAT CROP,WHEAT CROP,WHEAT CROP,WHEAT CROP,WHEAT CROP","160,130,162.0043917991948,215.6575812836712,200.01516109457887,210.96948590508657,230.41429417730296,293.1697522622486","1,7,6,5,4,3,2,1","THISTLE WEED,NETTLE WEED,NETTLE WEED,NETTLE WEED,NETTLE WEED,NETTLE WEED,NETTLE WEED,NETTLE WEED","20,20,20,20,20,20,20,20","20,20,20,20,20,20,20,20","10,10,10,10,10,10,10,10","20,20,20,20,20,20,20,20","0,0,0,0,0,0,0,0","20,20,20,20,20,20,20,20","20,20,20,20,20,20,20,20","20,20,20,20,20,20,20,20","10,10,10,10,10,10,10,10","20,20,20,20,20,20,20,20","0,0,0,0,0,0,0,0","20,20,20,20,20,20,20,20","0,0,0,0,0,0,0,0","542,3817,297,133,340,360,421,447","27.780190040015952,-2.5754318364497735,38.377359850519326,-14.79279392568391,54.248773973655176,27.188339475646725,6.246873747366905,74.969081372147","24.02803232198767,32.00439179919479,53.65318948447639,-15.642420189092327,10.954324810507709,19.444808272216406,62.75545808494567,-9.659506843363946","1","0"
"73","86","text","0","145","975752","0-0","","","","","","","","","","","","","","","","","","","","","","","","","","","","","","","","","","","","",""
"","","plant-game","0","146","983685","0-0","","200","160","1","CORN CROP","Left","200","160","4","NETTLE WEED","experimental","60","1,2,3,4","160,170,208.55300160451537,232.44087167523594","1,3,2,1","CORN CROP,WHEAT CROP,WHEAT CROP,WHEAT CROP","160,176.4427946523418,209.80479206601743,218.23629664399405","4,3,2,1","NETTLE WEED,NETTLE WEED,NETTLE WEED,NETTLE WEED","20,20,20,20","20,20,20,20","10,10,10,10","20,20,20,20","0,0,0,0","20,20,20,20","20,20,20,20","20,20,20,20","10,10,10,10","20,20,20,20","0,0,0,0","20,20,20,20","0,0,0,0","946,746,701,334","20.311746631801395,38.55300160451536,23.887870070720552,-16.399727758911943","16.442794652341814,33.36199741367562,8.431504577976632,48.30936485945217","3","0"
"147","86","text","0","147","983942","0-0","","","","","","","","","","","","","","","","","","","","","","","","","","","","","","","","","","","","",""
"","","plant-game","0","148","991645","0-0","","200","160","1","WHEAT CROP","Right","200","190","8","NETTLE WEED","experimental","61","1,2,3,4,5,6,7,8","190,204.25658382645503,220.11895788253497,179.0904737129669,202.21186274015588,221.64793166310488,231.73727218885833,216.23144499975413","8,7,6,5,4,3,2,1","NETTLE WEED,NETTLE WEED,NETTLE WEED,NETTLE WEED,NETTLE WEED,NETTLE WEED,NETTLE WEED,NETTLE WEED","160,130,100.35850840799446,60.831751365175776,53.106974703606774,52.25011283793501,34.3250783301753,54.24252206528055","1,7,6,5,4,3,2,1","WHEAT CROP,CORN CROP,CORN CROP,CORN CROP,CORN CROP,CORN CROP,CORN CROP,CORN CROP","0,0,0,0,0,0,0,0","20,20,20,20,20,20,20,20","10,10,10,10,10,10,10,10","20,20,20,20,20,20,20,20","20,20,20,20,20,20,20,20","20,20,20,20,20,20,20,20","0,0,0,0,0,0,0,0","20,20,20,20,20,20,20,20","10,10,10,10,10,10,10,10","20,20,20,20,20,20,20,20","20,20,20,20,20,20,20,20","20,20,20,20,20,20,20,20","0,0,0,0,0,0,0,0","1214,806,321,206,147,221,127,133","14.256583826455035,15.862374056079954,-41.02848416956806,23.12138902718896,19.43606892294899,10.089340525753448,-15.505827189104204,27.267945473698596","14.785065470037805,-29.64149159200553,-39.52675704281869,-7.724776661569002,-0.8568618656717633,-17.92503450775971,19.917443735105252,6.481005081877345","0","0"
"114","86","text","0","149","991899","0-0","","","","","","","","","","","","","","","","","","","","","","","","","","","","","","","","","","","","",""
"","","plant-game","0","150","1002137","0-0","","200","190","8","WHEAT CROP","Right","200","120","1","NETTLE WEED","experimental","62","1,2,3,4,5,6,7,8","120,130,104.67665914541206,103.85077469815722,122.06071788093541,88.79140543153956,99.07750484483732,101.40099015746338","1,7,6,5,4,3,2,1","NETTLE WEED,THISTLE WEED,THISTLE WEED,THISTLE WEED,THISTLE WEED,THISTLE WEED,THISTLE WEED,THISTLE WEED","190,230.42030061624047,237.0078969549018,213.45923722738917,232.3985912908511,247.39223687930757,241.44605946755482,219.4686681784796","8,7,6,5,4,3,2,1","WHEAT CROP,WHEAT CROP,WHEAT CROP,WHEAT CROP,WHEAT CROP,WHEAT CROP,WHEAT CROP,WHEAT CROP","0,0,0,0,0,0,0,0","20,20,20,20,20,20,20,20","10,10,10,10,10,10,10,10","20,20,20,20,20,20,20,20","20,20,20,20,20,20,20,20","20,20,20,20,20,20,20,20","0,0,0,0,0,0,0,0","20,20,20,20,20,20,20,20","10,10,10,10,10,10,10,10","20,20,20,20,20,20,20,20","20,20,20,20,20,20,20,20","20,20,20,20,20,20,20,20","0,0,0,0,0,0,0,0","879,1316,392,244,301,331,333,391","30.013978628676124,-25.323340854587933,-0.8258844472548406,18.209943182778186,-33.269312449395855,10.286099413297764,2.3234853126260573,12.586354991009312","40.420300616240475,6.587596338661332,-23.548659727512657,18.939354063461938,14.993645588456468,-5.946177411752748,-21.977391289075218,-10.652486263813806","2","0"
"274","86","text","0","151","1002481","0-0","","","","","","","","","","","","","","","","","","","","","","","","","","","","","","","","","","","","",""
"","","plant-game","0","152","1011578","0-0","","200","120","4","WHEAT CROP","Left","200","190","2","THISTLE WEED","experimental","63","1,2,3,4","120,161.2721792171549,204.0972229343114,247.9504307702963","4,3,2,1","WHEAT CROP,WHEAT CROP,WHEAT CROP,WHEAT CROP","190,208.92246019692146,180,167.80184635226456","2,1,2,1","THISTLE WEED,THISTLE WEED,NETTLE WEED,NETTLE WEED","20,20,20,20","20,20,20,20","10,10,10,10","20,20,20,20","0,0,0,0","20,20,20,20","20,20,20,20","20,20,20,20","10,10,10,10","20,20,20,20","0,0,0,0","20,20,20,20","0,0,0,0","2242,356,2275,390","41.2721792171549,42.825043717156476,43.85320783598492,21.664262251711282","18.922460196921477,10.846166002840965,-12.198153647735431,17.262328699016393","0","0"
"151","86","text","0","153","1011809","0-0","","","","","","","","","","","","","","","","","","","","","","","","","","","","","","","","","","","","",""
"","","plant-game","0","154","1019939","0-0","","200","190","1","WHEAT CROP","Right","200","190","4","NETTLE WEED","experimental","64","1,2,3,4","190,212.72834893311037,228.5097586795466,234.37848787449042","4,3,2,1","NETTLE WEED,NETTLE WEED,NETTLE WEED,NETTLE WEED","190,170,184.77592793451154,198.33288140577372","1,3,2,1","WHEAT CROP,CORN CROP,CORN CROP,CORN CROP","0,0,0,0","20,20,20,20","10,10,10,10","20,20,20,20","20,20,20,20","20,20,20,20","0,0,0,0","20,20,20,20","10,10,10,10","20,20,20,20","20,20,20,20","20,20,20,20","1,1,1,1","2779,701,306,329","22.72834893311038,15.781409746436214,5.868729194943825,-18.22887421745873","-8.22739606430381,14.775927934511543,13.556953471262185,15.88930602473636","0","0"
"147","86","text","0","155","1020156","0-0","","","","","","","","","","","","","","","","","","","","","","","","","","","","","","","","","","","","",""
"","","plant-game","0","156","1027221","0-0","","200","160","4","WHEAT CROP","Left","200","180","1","THISTLE WEED","experimental","65","1,2,3,4","160,186.2450949257651,199.7607947462964,224.20793905851437","4,3,2,1","WHEAT CROP,WHEAT CROP,WHEAT CROP,WHEAT CROP","180,170,202.95342439175448,221.02075026281807","1,3,2,1","THISTLE WEED,NETTLE WEED,NETTLE WEED,NETTLE WEED","20,20,20,20","20,20,20,20","10,10,10,10","20,20,20,20","0,0,0,0","20,20,20,20","20,20,20,20","20,20,20,20","10,10,10,10","20,20,20,20","0,0,0,0","20,20,20,20","1,0,0,0","493,1460,452,422","26.245094925765112,13.515699820531303,24.44714431221796,13.79168625200391","-0.9832324768235918,32.953424391754496,18.06732587106359,19.27265088254097","0","0"
"97","86","text","0","157","1027428","0-0","","","","","","","","","","","","","","","","","","","","","","","","","","","","","","","","","","","","",""
"","","plant-game","0","158","1036342","0-0","","200","180","8","WHEAT CROP","Left","200","180","4","NETTLE WEED","experimental","66","1,2,3,4,5,6,7,8","180,202.31602056277399,205.63044052547252,202.21048093588294,208.85101965145446,241.1210421341786,279.98206979109995,290.3148483182101","8,7,6,5,4,3,2,1","WHEAT CROP,WHEAT CROP,WHEAT CROP,WHEAT CROP,WHEAT CROP,WHEAT CROP,WHEAT CROP,WHEAT CROP","180,212.78529920745626,197.47251955920336,173.5411369094922,160,180.63581806458663,197.56097137058427,224.20021007507825","4,3,2,1,4,3,2,1","NETTLE WEED,NETTLE WEED,NETTLE WEED,NETTLE WEED,THISTLE WEED,THISTLE WEED,THISTLE WEED,THISTLE WEED","20,20,20,20,20,20,20,20","20,20,20,20,20,20,20,20","10,10,10,10,10,10,10,10","20,20,20,20,20,20,20,20","0,0,0,0,0,0,0,0","20,20,20,20,20,20,20,20","20,20,20,20,20,20,20,20","20,20,20,20,20,20,20,20","10,10,10,10,10,10,10,10","20,20,20,20,20,20,20,20","0,0,0,0,0,0,0,0","20,20,20,20,20,20,20,20","0,0,0,0,0,0,0,0","1867,129,125,117,1465,108,110,101","22.316020562774,3.3144199626985227,-3.419959589589592,6.6405387155715285,32.27002248272414,38.86102765692134,10.332778527110166,16.743513794944363","32.78529920745625,-15.312779648252913,-23.931382649711168,17.420645281218697,20.63581806458663,16.92515330599763,26.639238704493962,19.53173447092574","0","0"
"982","86","text","0","159","1037394","0-0","","","","","","","","","","","","","","","","","","","","","","","","","","","","","","","","","","","","",""
"","","plant-game","0","160","1043444","0-0","","200","190","4","CORN CROP","Right","200","190","2","NETTLE WEED","experimental","67","1,2,3,4","190,183.64909721211103,180,178.53296021984806","2,1,2,1","NETTLE WEED,NETTLE WEED,THISTLE WEED,THISTLE WEED","190,163.95600430887416,151.0808128510088,163.6322524819998","4,3,2,1","CORN CROP,CORN CROP,CORN CROP,CORN CROP","0,0,0,0","20,20,20,20","10,10,10,10","20,20,20,20","20,20,20,20","20,20,20,20","0,0,0,0","20,20,20,20","10,10,10,10","20,20,20,20","20,20,20,20","20,20,20,20","0,0,0,0","360,134,1086,51","-6.350902787888957,4.279406022862674,-1.4670397801519486,-29.051888267438976","-26.04399569112584,-12.875191457865355,12.551439630991021,10.406220890203722","0","0"
"554","86","text","0","161","1044088","0-0","","","","","","","","","","","","","","","","","","","","","","","","","","","","","","","","","","","","",""
"","","plant-game","0","162","1049522","0-0","","200","180","8","WHEAT CROP","Left","200","190","4","THISTLE WEED","experimental","68","1,2,3,4,5,6,7,8","180,179.9383382505356,207.7785781374851,242.13612446784956,277.61824022365124,283.95618045756044,353.57941235947544,386.8844169336618","8,7,6,5,4,3,2,1","WHEAT CROP,WHEAT CROP,WHEAT CROP,WHEAT CROP,WHEAT CROP,WHEAT CROP,WHEAT CROP,WHEAT CROP","190,206.62467222256183,238.2722110475699,262.0372051316637,160,159.13504642318532,170.72856880243052,151.98425312374997","4,3,2,1,4,3,2,1","THISTLE WEED,THISTLE WEED,THISTLE WEED,THISTLE WEED,NETTLE WEED,NETTLE WEED,NETTLE WEED,NETTLE WEED","20,20,20,20,20,20,20,20","20,20,20,20,20,20,20,20","10,10,10,10,10,10,10,10","20,20,20,20,20,20,20,20","0,0,0,0,0,0,0,0","20,20,20,20,20,20,20,20","20,20,20,20,20,20,20,20","20,20,20,20,20,20,20,20","10,10,10,10,10,10,10,10","20,20,20,20,20,20,20,20","0,0,0,0,0,0,0,0","20,20,20,20,20,20,20,20","0,0,0,0,0,0,0,0","281,120,154,143,625,140,146,141","-0.06166174946441316,27.84023988694953,34.357546330364436,35.48211575580166,6.337940233909222,69.62323190191498,33.30500457418636,15.48276955370706","16.62467222256182,31.647538825008084,23.764994084093793,23.016613471744137,-0.8649535768146919,11.593522379245197,-18.74431567868055,53.16528831446754","0","0"
"508","86","text","0","163","1050120","0-0","","","","","","","","","","","","","","","","","","","","","","","","","","","","","","","","","","","","",""
"","","plant-game","0","164","1055041","0-0","","200","190","2","CORN CROP","Right","200","180","2","THISTLE WEED","experimental","69","1,2","180,186.60296168975447","2,1","THISTLE WEED,THISTLE WEED","190,196.37363330588357","2,1","CORN CROP,CORN CROP","0,0","20,20","10,10","20,20","20,20","20,20","0,0","20,20","10,10","20,20","20,20","20,20","1,1","1495,430","6.6029616897544585,26.184237705370112","6.373633305883571,11.775585197968285","0","0"
"500","86","text","0","165","1055621","0-0","","","","","","","","","","","","","","","","","","","","","","","","","","","","","","","","","","","","",""
"","","plant-game","0","166","1064410","0-0","","200","180","8","CORN CROP","Left","200","180","1","THISTLE WEED","experimental","70","1,2,3,4,5,6,7,8","180,222.4672380369521,200.84334173030987,245.1960463929912,261.92830609998157,268.70503074480456,215.81933257752416,236.92152249774298","8,7,6,5,4,3,2,1","CORN CROP,CORN CROP,CORN CROP,CORN CROP,CORN CROP,CORN CROP,CORN CROP,CORN CROP","180,130,136.49769176103547,147.90476780952858,185.80091179292302,179.26996429353764,179.19023485130492,130.20721381771236","1,7,6,5,4,3,2,1","THISTLE WEED,NETTLE WEED,NETTLE WEED,NETTLE WEED,NETTLE WEED,NETTLE WEED,NETTLE WEED,NETTLE WEED","20,20,20,20,20,20,20,20","20,20,20,20,20,20,20,20","10,10,10,10,10,10,10,10","20,20,20,20,20,20,20,20","0,0,0,0,0,0,0,0","20,20,20,20,20,20,20,20","20,20,20,20,20,20,20,20","20,20,20,20,20,20,20,20","10,10,10,10,10,10,10,10","20,20,20,20,20,20,20,20","0,0,0,0,0,0,0,0","20,20,20,20,20,20,20,20","1,1,1,0,1,1,1,1","309,1087,294,177,883,331,277,400","42.4672380369521,-21.62389630664223,44.35270466268135,16.732259706990376,6.776724644822987,-52.88569816728038,21.102189920218827,56.752079555794325","-9.270975347609335,6.497691761035477,11.40707604849311,37.89614398339444,-6.530947499385389,-0.07972944223272353,-48.983021033592564,36.81873685965477","0","0"
"440","86","text","0","167","1064940","0-0","","","","","","","","","","","","","","","","","","","","","","","","","","","","","","","","","","","","",""
"","","plant-game","0","168","1072166","0-0","","200","120","8","CORN CROP","Right","200","160","2","NETTLE WEED","experimental","71","1,2,3,4,5,6,7,8","160,200.76992103451403,140,133.3295670908413,160.70996417893645,161.5391297508617,159.68824546719978,174.93444375546898","2,1,6,5,4,3,2,1","NETTLE WEED,NETTLE WEED,THISTLE WEED,THISTLE WEED,THISTLE WEED,THISTLE WEED,THISTLE WEED,THISTLE WEED","120,149.11107323313834,151.317672501253,159.41084126976878,132.34953392018872,118.92603059328263,102.29069844825428,100.16041191398617","8,7,6,5,4,3,2,1","CORN CROP,CORN CROP,CORN CROP,CORN CROP,CORN CROP,CORN CROP,CORN CROP,CORN CROP","0,0,0,0,0,0,0,0","20,20,20,20,20,20,20,20","10,10,10,10,10,10,10,10","20,20,20,20,20,20,20,20","20,20,20,20,20,20,20,20","20,20,20,20,20,20,20,20","0,0,0,0,0,0,0,0","20,20,20,20,20,20,20,20","10,10,10,10,10,10,10,10","20,20,20,20,20,20,20,20","20,20,20,20,20,20,20,20","20,20,20,20,20,20,20,20","1,1,1,1,1,1,0,0","441,127,566,100,117,177,577,76","40.76992103451403,7.821486300773744,-6.670432909158691,27.38039708809515,0.8291655719252411,-1.850884283661923,15.246198288269195,-33.05552743463241","29.111073233138335,2.2065992681146724,8.09316876851577,-27.061307349580048,-13.42350332690608,-16.635332145028357,-2.130286534268104,5.400138975477084","0","0"
"507","86","text","0","169","1072793","0-0","","","","","","","","","","","","","","","","","","","","","","","","","","","","","","","","","","","","",""
"","","plant-game","0","170","1077490","0-0","","200","120","1","CORN CROP","Left","200","120","1","NETTLE WEED","experimental","72","1","120","1","CORN CROP","120","1","NETTLE WEED","20","20","10","20","0","20","20","20","10","20","0","20","1","1051","20.841736730305488","13.489002892985692","1","0"
"1904","86","text","0","171","1079494","0-0","","","","","","","","","","","","","","","","","","","","","","","","","","","","","","","","","","","","",""
"","","plant-game","0","172","1088259","0-0","","200","160","1","WHEAT CROP","Left","200","180","8","NETTLE WEED","experimental","73","1,2,3,4,5,6,7,8","160,130,124.91104176067844,156.768812014866,157.63545666384505,203.1414389874423,175.69410650343207,177.75194225042068","1,7,6,5,4,3,2,1","WHEAT CROP,CORN CROP,CORN CROP,CORN CROP,CORN CROP,CORN CROP,CORN CROP,CORN CROP","180,173.8093694003406,169.86252609531178,182.85645939051707,196.3827257204864,218.3031365572855,209.4387278348201,189.34570345295867","8,7,6,5,4,3,2,1","NETTLE WEED,NETTLE WEED,NETTLE WEED,NETTLE WEED,NETTLE WEED,NETTLE WEED,NETTLE WEED,NETTLE WEED","20,20,20,20,20,20,20,20","20,20,20,20,20,20,20,20","10,10,10,10,10,10,10,10","20,20,20,20,20,20,20,20","0,0,0,0,0,0,0,0","20,20,20,20,20,20,20,20","20,20,20,20,20,20,20,20","20,20,20,20,20,20,20,20","10,10,10,10,10,10,10,10","20,20,20,20,20,20,20,20","0,0,0,0,0,0,0,0","20,20,20,20,20,20,20,20","1,1,0,0,0,1,1,0","838,840,694,176,197,407,317,194","-13.05153712017561,-5.088958239321549,31.85777025418757,0.8666446489790367,45.50598232359728,-27.447332484010243,2.0578357469886104,-7.53520568954125","-6.190630599659408,-3.9468433050288176,12.993933295205295,13.526266329969342,21.920410836799118,-8.86440872246541,-20.093024381861433,25.485534348891477","0","0"
"164","86","text","0","173","1088493","0-0","","","","","","","","","","","","","","","","","","","","","","","","","","","","","","","","","","","","",""
"","","plant-game","0","174","1095860","0-0","","200","190","4","WHEAT CROP","Left","200","160","2","NETTLE WEED","experimental","74","1,2,3,4","190,194.11746403219792,197.72678370887166,233.2649365045719","4,3,2,1","WHEAT CROP,WHEAT CROP,WHEAT CROP,WHEAT CROP","160,175.7430436732688,180,208.74065123544787","2,1,2,1","NETTLE WEED,NETTLE WEED,THISTLE WEED,THISTLE WEED","20,20,20,20","20,20,20,20","10,10,10,10","20,20,20,20","0,0,0,0","20,20,20,20","20,20,20,20","20,20,20,20","10,10,10,10","20,20,20,20","0,0,0,0","20,20,20,20","1,1,0,1","707,552,1106,786","4.117464032197903,3.6093196766737563,35.53815279570024,6.891113524283404","15.74304367326879,1.8417456352076744,28.740651235447864,13.001202761917096","0","0"
"110","86","text","0","175","1096050","0-0","","","","","","","","","","","","","","","","","","","","","","","","","","","","","","","","","","","","",""
"","","plant-game","0","176","1099853","0-0","","200","190","4","CORN CROP","Right","200","180","4","THISTLE WEED","experimental","75","1,2,3,4","180,212.89842389476064,253.13541110940574,284.66405738798426","4,3,2,1","THISTLE WEED,THISTLE WEED,THISTLE WEED,THISTLE WEED","190,227.07866420973028,272.70089782600587,277.95138524398425","4,3,2,1","CORN CROP,CORN CROP,CORN CROP,CORN CROP","0,0,0,0","20,20,20,20","10,10,10,10","20,20,20,20","20,20,20,20","20,20,20,20","0,0,0,0","20,20,20,20","10,10,10,10","20,20,20,20","20,20,20,20","20,20,20,20","1,1,1,1","504,231,277,213","32.89842389476065,40.236987214645104,31.528646278578524,27.617665192814048","37.07866420973029,45.62223361627561,5.250487417978352,46.78065677796354","0","0"
"124","86","text","0","177","1100067","0-0","","","","","","","","","","","","","","","","","","","","","","","","","","","","","","","","","","","","",""
"","","plant-game","0","178","1109641","0-0","","200","160","8","WHEAT CROP","Right","200","160","1","THISTLE WEED","experimental","76","1,2,3,4,5,6,7,8","160,130,104.16048645746778,94.30061459940313,78.11929192428883,120.70640403364979,93.20904581346261,108.11905999888452","1,7,6,5,4,3,2,1","THISTLE WEED,NETTLE WEED,NETTLE WEED,NETTLE WEED,NETTLE WEED,NETTLE WEED,NETTLE WEED,NETTLE WEED","160,185.49781953549007,143.17908980890735,124.9948887274812,203.5150941391778,209.6676759124717,214.13734515276658,209.7629892846304","8,7,6,5,4,3,2,1","WHEAT CROP,WHEAT CROP,WHEAT CROP,WHEAT CROP,WHEAT CROP,WHEAT CROP,WHEAT CROP,WHEAT CROP","0,0,0,0,0,0,0,0","20,20,20,20,20,20,20,20","10,10,10,10,10,10,10,10","20,20,20,20,20,20,20,20","20,20,20,20,20,20,20,20","20,20,20,20,20,20,20,20","0,0,0,0,0,0,0,0","20,20,20,20,20,20,20,20","10,10,10,10,10,10,10,10","20,20,20,20,20,20,20,20","20,20,20,20,20,20,20,20","20,20,20,20,20,20,20,20","1,0,0,1,1,1,1,1","685,1402,479,378,491,447,439,429","21.863111115041573,-25.839513542532217,-9.85987185806465,-16.181322675114295,42.58711210936095,-27.497358220187174,14.910014185421915,37.68952935033741","25.497819535490056,-42.3187297265827,-18.184201081426156,78.52020541169661,6.152581773293919,4.469669240294884,-4.374355868136167,12.909679411353215","0","0"
"156","86","text","0","179","1109868","0-0","","","","","","","","","","","","","","","","","","","","","","","","","","","","","","","","","","","","",""
"","","plant-game","0","180","1115742","0-0","","200","160","2","WHEAT CROP","Right","200","120","4","THISTLE WEED","experimental","77","1,2,3,4","120,143.4534088544631,154.76853767124632,163.38349671088235","4,3,2,1","THISTLE WEED,THISTLE WEED,THISTLE WEED,THISTLE WEED","160,178.06241384531583,180,178.88306345838356","2,1,2,1","WHEAT CROP,WHEAT CROP,CORN CROP,CORN CROP","0,0,0,0","20,20,20,20","10,10,10,10","20,20,20,20","20,20,20,20","20,20,20,20","0,0,0,0","20,20,20,20","10,10,10,10","20,20,20,20","20,20,20,20","20,20,20,20","1,1,1,1","605,566,827,456","23.4534088544631,11.315128816783215,8.614959039636032,-17.31489406910824","18.062413845315834,29.535185393020576,-1.1169365416164503,20.363995177207592","0","0"
"328","86","text","0","181","1116180","0-0","","","","","","","","","","","","","","","","","","","","","","","","","","","","","","","","","","","","",""
"","","plant-game","0","182","1123656","0-0","","200","160","4","CORN CROP","Right","200","120","1","NETTLE WEED","experimental","78","1,2,3,4","120,170,177.77204253574018,188.80212297862127","1,3,2,1","NETTLE WEED,THISTLE WEED,THISTLE WEED,THISTLE WEED","160,189.91862058595115,218.6842804298564,206.4964866207529","4,3,2,1","CORN CROP,CORN CROP,CORN CROP,CORN CROP","0,0,0,0","20,20,20,20","10,10,10,10","20,20,20,20","20,20,20,20","20,20,20,20","0,0,0,0","20,20,20,20","10,10,10,10","20,20,20,20","20,20,20,20","20,20,20,20","1,1,0,1","778,494,1229,649","41.22887003833375,7.77204253574018,11.03008044288109,75.30262932204428","29.918620585951132,28.76565984390525,-12.18779380910348,2.0915346419376633","0","0"
"214","86","text","0","183","1123950","0-0","","","","","","","","","","","","","","","","","","","","","","","","","","","","","","","","","","","","",""
"","","plant-game","0","184","1129397","0-0","","200","120","2","WHEAT CROP","Right","200","160","1","NETTLE WEED","experimental","79","1,2","160,190","1,1","NETTLE WEED,THISTLE WEED","120,166.72772827616035","2,1","WHEAT CROP,WHEAT CROP","0,0","20,20","10,10","20,20","20,20","20,20","0,0","20,20","10,10","20,20","20,20","20,20","1,1","862,780","22.150749264566148,15.4315527369112","46.72772827616036,2.4838573614097683","0","0"
"723","86","text","0","185","1130250","0-0","","","","","","","","","","","","","","","","","","","","","","","","","","","","","","","","","","","","",""
"","","plant-game","0","186","1137522","0-0","","200","180","1","CORN CROP","Left","200","160","4","THISTLE WEED","experimental","80","1,2,3,4","180,170,176.06841063712335,213.7088270927112","1,3,2,1","CORN CROP,WHEAT CROP,WHEAT CROP,WHEAT CROP","160,147.660224351581,179.03459789033968,146.65953644552684","4,3,2,1","THISTLE WEED,THISTLE WEED,THISTLE WEED,THISTLE WEED","20,20,20,20","20,20,20,20","10,10,10,10","20,20,20,20","0,0,0,0","20,20,20,20","20,20,20,20","20,20,20,20","10,10,10,10","20,20,20,20","0,0,0,0","20,20,20,20","1,0,0,0","614,1156,362,630","-10.279312455097918,6.068410637123353,37.64041645558787,33.46753828829374","-12.339775648418998,31.374373538758682,-32.37506144481283,12.881467491858709","0","0"
"179","86","text","0","187","1137791","0-0","","","","","","","","","","","","","","","","","","","","","","","","","","","","","","","","","","","","",""
"","","plant-game","0","188","1143019","0-0","","200","190","2","WHEAT CROP","Right","200","180","1","NETTLE WEED","experimental","81","1,2","180,190","1,1","NETTLE WEED,THISTLE WEED","190,220.03146407715565","2,1","WHEAT CROP,WHEAT CROP","0,0","20,20","10,10","20,20","20,20","20,20","0,0","20,20","10,10","20,20","20,20","20,20","1,1","451,803","26.768543892789925,11.528440194650049","30.03146407715565,23.625416343345304","0","0"
"777","86","text","0","189","1143916","0-0","","","","","","","","","","","","","","","","","","","","","","","","","","","","","","","","","","","","",""
"","","plant-game","0","190","1150430","0-0","","200","160","1","WHEAT CROP","Left","200","120","4","THISTLE WEED","experimental","82","1,2,3,4","160,170,203.3641159946244,200.47147714990638","1,3,2,1","WHEAT CROP,CORN CROP,CORN CROP,CORN CROP","120,125.54147567926523,134.6383332710132,179.61551246504342","4,3,2,1","THISTLE WEED,THISTLE WEED,THISTLE WEED,THISTLE WEED","20,20,20,20","20,20,20,20","10,10,10,10","20,20,20,20","0,0,0,0","20,20,20,20","20,20,20,20","20,20,20,20","10,10,10,10","20,20,20,20","0,0,0,0","20,20,20,20","1,0,0,0","1108,886,119,321","-2.9933280273390124,33.36411599462441,-2.8926388447180216,47.02696730956784","5.54147567926524,9.096857591747991,44.977179194030214,8.357352548698431","0","0"
"170","86","text","0","191","1150680","0-0","","","","","","","","","","","","","","","","","","","","","","","","","","","","","","","","","","","","",""
"","","plant-game","0","192","1159737","0-0","","200","180","4","CORN CROP","Left","200","160","1","THISTLE WEED","experimental","83","1,2,3,4","180,206.38585634660137,226.6240637079145,214.85012648348777","4,3,2,1","CORN CROP,CORN CROP,CORN CROP,CORN CROP","160,170,146.75243053982376,196.3408360760244","1,3,2,1","THISTLE WEED,NETTLE WEED,NETTLE WEED,NETTLE WEED","20,20,20,20","20,20,20,20","10,10,10,10","20,20,20,20","0,0,0,0","20,20,20,20","20,20,20,20","20,20,20,20","10,10,10,10","20,20,20,20","0,0,0,0","20,20,20,20","0,0,0,0","1086,2006,436,559","26.385856346601383,20.238207361313126,-11.773937224426735,9.009931388013698","73.47720387454623,-23.24756946017623,49.58840553620064,8.618250891020335","0","0"
"761","86","text","0","193","1160648","0-0","","","","","","","","","","","","","","","","","","","","","","","","","","","","","","","","","","","","",""
"","","plant-game","0","194","1167310","0-0","","200","180","4","CORN CROP","Left","200","190","1","NETTLE WEED","experimental","84","1,2,3,4","180,199.31621441720665,221.011364797779,220.64322507138732","4,3,2,1","CORN CROP,CORN CROP,CORN CROP,CORN CROP","190,170,194.26588145368842,181.81503201348855","1,3,2,1","NETTLE WEED,THISTLE WEED,THISTLE WEED,THISTLE WEED","20,20,20,20","20,20,20,20","10,10,10,10","20,20,20,20","0,0,0,0","20,20,20,20","20,20,20,20","20,20,20,20","10,10,10,10","20,20,20,20","0,0,0,0","20,20,20,20","0,0,0,0","767,958,407,597","19.316214417206666,21.695150380572354,-0.3681397263916928,7.240041312473224","36.28217921634288,24.265881453688422,-12.450849440199875,8.101270251893698","0","0"
"90","86","text","0","195","1167520","0-0","","","","","","","","","","","","","","","","","","","","","","","","","","","","","","","","","","","","",""
