"rt","key_press","trial_type","trial_index","trial_index_global","time_elapsed","internal_chunk_id","responses","experimental_goal_height","experimental_start_height","experimental_weeks_total","experimental_crop_type","experimental_crop_side","fixed_goal_height","fixed_start_height","fixed_weeks_total","fixed_crop_type","trial_kind","trial_number","stage","left_current_height","left_weeks_remaining","left_crop_type","right_current_height","right_weeks_remaining","right_crop_type","mean_left_growth_given_left","sd_left_growth_given_left","mean_left_growth_given_middle","sd_left_growth_given_middle","mean_left_growth_given_right","sd_left_growth_given_right","mean_right_growth_given_left","sd_right_growth_given_left","mean_right_growth_given_middle","sd_right_growth_given_middle","mean_right_growth_given_right","sd_right_growth_given_right","response","response_time","left_growth","right_growth","other_key_pressed","mouse_clicked"
"2798038","77","text","0","0","2798149","0-0","","","","","","","","","","","","","","","","","","","","","","","","","","","","","","","","","","","","",""
"3879","","survey-text","0","1","2803054","0-0","{""Q0"":""20""}","","","","","","","","","","","","","","","","","","","","","","","","","","","","","","","","","","","",""
"4620","86","text","0","2","4776","0-0","","","","","","","","","","","","","","","","","","","","","","","","","","","","","","","","","","","","",""
"","","plant-game","0","3","73326","0-0","","200","120","8","WHEAT CROP","Right","200","120","8","NETTLE WEED","practice","1","1,2,3,4,5,6,7,8","120,107.39790675609206,134.41534424349857,138.38266640141208,123.48256266124021,114.6165852478326,159.13123943500335,185.60964621147463","8,7,6,5,4,3,2,1","NETTLE WEED,NETTLE WEED,NETTLE WEED,NETTLE WEED,NETTLE WEED,NETTLE WEED,NETTLE WEED,NETTLE WEED","120,161.26725485912536,179.44637496370606,187.88610376614523,167.86562851536544,183.41698453676256,171.85958493891454,204.5773760354672","8,7,6,5,4,3,2,1","WHEAT CROP,WHEAT CROP,WHEAT CROP,WHEAT CROP,WHEAT CROP,WHEAT CROP,WHEAT CROP,WHEAT CROP","0,0,0,0,0,0,0,0","20,20,20,20,20,20,20,20","10,10,10,10,10,10,10,10","20,20,20,20,20,20,20,20","20,20,20,20,20,20,20,20","20,20,20,20,20,20,20,20","0,0,0,0,0,0,0,0","20,20,20,20,20,20,20,20","10,10,10,10,10,10,10,10","20,20,20,20,20,20,20,20","20,20,20,20,20,20,20,20","20,20,20,20,20,20,20,20","1,0,0,0,1,1,1,0","5044,11656,5532,3653,1816,2353,1657,2655","-12.602093243907937,27.017437487406497,3.9673221579135234,-14.90010374017187,-8.86597741340761,44.51465418717075,26.478406776471264,-11.157131814118774","41.26725485912536,18.179120104580697,8.439728802439173,-20.020475250779782,15.551356021397124,-11.557399597848015,32.717791096552666,-4.366293921294352","0","0"
"1118","86","text","0","4","74634","0-0","","","","","","","","","","","","","","","","","","","","","","","","","","","","","","","","","","","","",""
"","","plant-game","0","5","102669","0-0","","200","160","4","CORN CROP","Left","200","160","4","THISTLE WEED","practice","2","1,2,3,4","160,131.52924818928378,118.28960474347035,167.0297011339753","4,3,2,1","CORN CROP,CORN CROP,CORN CROP,CORN CROP","160,146.63612650473866,130.29019831632695,128.18243879892117","4,3,2,1","THISTLE WEED,THISTLE WEED,THISTLE WEED,THISTLE WEED","20,20,20,20","20,20,20,20","10,10,10,10","20,20,20,20","0,0,0,0","20,20,20,20","20,20,20,20","20,20,20,20","10,10,10,10","20,20,20,20","0,0,0,0","20,20,20,20","1,1,0,0","1368,1193,1101,2423","-28.47075181071622,-13.239643445813433,48.74009639050495,0.05628918919728321","-13.363873495261354,-16.345928188411712,-2.1077595174057677,49.25352469868728","0","0"
"815","86","text","0","6","103640","0-0","","","","","","","","","","","","","","","","","","","","","","","","","","","","","","","","","","","","",""
"","","plant-game","0","7","137621","0-0","","200","180","2","WHEAT CROP","Left","200","180","2","NETTLE WEED","practice","3","1,2","180,195.7982810712462","2,1","WHEAT CROP,WHEAT CROP","180,208.0596557807999","2,1","NETTLE WEED,NETTLE WEED","20,20","20,20","10,10","20,20","0,0","20,20","20,20","20,20","10,10","20,20","0,0","20,20","0,1","3299,2846","15.798281071246208,-29.218914373153293","28.059655780799883,13.700779464595417","0","0"
"670","86","text","0","8","138471","0-0","","","","","","","","","","","","","","","","","","","","","","","","","","","","","","","","","","","","",""
"","","plant-game","0","9","181938","0-0","","200","190","1","CORN CROP","Left","200","190","1","THISTLE WEED","practice","4","1","190","1","CORN CROP","190","1","THISTLE WEED","20","20","10","20","0","20","20","20","10","20","0","20","0","7328","33.73636298515216","-4.961796621906686","0","0"
"1126","86","text","0","10","183173","0-0","","","","","","","","","","","","","","","","","","","","","","","","","","","","","","","","","","","","",""
"","","plant-game","0","11","215811","0-0","","200","120","8","CORN CROP","Right","200","160","8","NETTLE WEED","practice","5","1,2,3,4,5,6,7,8","160,217.3282494861249,222.9749020220014,263.9502040198954,270.30509545034187,295.2636894700218,321.93748726747265,339.6591891603844","8,7,6,5,4,3,2,1","NETTLE WEED,NETTLE WEED,NETTLE WEED,NETTLE WEED,NETTLE WEED,NETTLE WEED,NETTLE WEED,NETTLE WEED","120,130.90511740326153,157.96128603450217,186.25977093740585,148.43961618481686,130.11020325016318,152.47926338536593,188.71731286562778","8,7,6,5,4,3,2,1","CORN CROP,CORN CROP,CORN CROP,CORN CROP,CORN CROP,CORN CROP,CORN CROP,CORN CROP","0,0,0,0,0,0,0,0","20,20,20,20,20,20,20,20","10,10,10,10,10,10,10,10","20,20,20,20,20,20,20,20","20,20,20,20,20,20,20,20","20,20,20,20,20,20,20,20","0,0,0,0,0,0,0,0","20,20,20,20,20,20,20,20","10,10,10,10,10,10,10,10","20,20,20,20,20,20,20,20","20,20,20,20,20,20,20,20","20,20,20,20,20,20,20,20","1,1,1,0,0,0,1,1","2575,3033,2484,2518,1232,2122,2697,54","57.328249486124875,5.646652535876504,40.975301997894015,6.354891430446431,24.958594019679925,26.673797797450817,17.72170189291176,14.550108865244333","10.90511740326154,27.056168631240652,28.298484902903667,-37.82015475258899,-18.329412934653664,22.36906013520274,36.23804948026186,38.53036451440045","0","0"
"739","86","text","0","12","216690","0-0","","","","","","","","","","","","","","","","","","","","","","","","","","","","","","","","","","","","",""
"","","plant-game","0","13","244342","0-0","","200","180","4","WHEAT CROP","Left","200","160","4","THISTLE WEED","practice","6","1,2,3,4","180,170.89452969700088,162.8235958985107,199.69703802325932","4,3,2,1","WHEAT CROP,WHEAT CROP,WHEAT CROP,WHEAT CROP","160,163.04805894611664,161.40972457913062,165.68055969261445","4,3,2,1","THISTLE WEED,THISTLE WEED,THISTLE WEED,THISTLE WEED","20,20,20,20","20,20,20,20","10,10,10,10","20,20,20,20","0,0,0,0","20,20,20,20","20,20,20,20","20,20,20,20","10,10,10,10","20,20,20,20","0,0,0,0","20,20,20,20","1,1,0,0","6536,1555,2774,3780","-9.10547030299911,-8.070933798490188,36.873442124748635,16.69161589404597","3.0480589461166367,-1.6383343669860047,4.27083511348382,62.918936499842026","0","0"
"613","86","text","0","14","245115","0-0","","","","","","","","","","","","","","","","","","","","","","","","","","","","","","","","","","","","",""
"","","plant-game","0","15","258329","0-0","","200","180","2","CORN CROP","Left","200","190","2","NETTLE WEED","practice","7","1,2","180,170.26984493698438","2,1","CORN CROP,CORN CROP","190,163.19775792732284","2,1","NETTLE WEED,NETTLE WEED","20,20","20,20","10,10","20,20","0,0","20,20","20,20","20,20","10,10","20,20","0,0","20,20","1,0","4954,1060","-9.730155063015602,7.375801076459307","-26.802242072677167,-4.732623015414646","0","0"
"543","86","text","0","16","259028","0-0","","","","","","","","","","","","","","","","","","","","","","","","","","","","","","","","","","","","",""
"","","plant-game","0","17","294682","0-0","","200","120","4","CORN CROP","Right","200","120","8","THISTLE WEED","practice","8","1,2,3,4,5,6,7,8","120,143.2279368078986,176.97686250366638,205.00755515915964,185.210629416075,204.19262077147013,193.14934009662966,228.26978121403792","8,7,6,5,4,3,2,1","THISTLE WEED,THISTLE WEED,THISTLE WEED,THISTLE WEED,THISTLE WEED,THISTLE WEED,THISTLE WEED,THISTLE WEED","120,127.4171647440529,153.3925194549385,154.5211077266232,160,173.5738613009292,163.6472240883287,169.5381867062116","4,3,2,1,4,3,2,1","CORN CROP,CORN CROP,CORN CROP,CORN CROP,WHEAT CROP,WHEAT CROP,WHEAT CROP,WHEAT CROP","0,0,0,0,0,0,0,0","20,20,20,20,20,20,20,20","10,10,10,10,10,10,10,10","20,20,20,20,20,20,20,20","20,20,20,20,20,20,20,20","20,20,20,20,20,20,20,20","0,0,0,0,0,0,0,0","20,20,20,20,20,20,20,20","10,10,10,10,10,10,10,10","20,20,20,20,20,20,20,20","20,20,20,20,20,20,20,20","20,20,20,20,20,20,20,20","1,1,1,0,1,0,0,0","3843,426,568,1862,5393,1576,2636,1242","23.22793680789861,33.748925695767795,28.030692655493247,-19.796925743084646,18.98199135539514,-11.043280674840489,35.12044111740827,2.262077472289705","7.417164744052897,25.975354710885608,1.128588271684702,11.364574642784325,13.573861300929188,-9.926637212600491,5.890962617882897,-33.23842795735167","11","1"
"427","86","text","0","18","295329","0-0","","","","","","","","","","","","","","","","","","","","","","","","","","","","","","","","","","","","",""
"","","plant-game","0","19","331542","0-0","","200","160","4","WHEAT CROP","Left","200","160","2","NETTLE WEED","practice","9","1,2,3,4","160,150.61665474579897,173.29237840222737,184.12376026267034","4,3,2,1","WHEAT CROP,WHEAT CROP,WHEAT CROP,WHEAT CROP","160,127.18575219202656,180,188.81051163242805","2,1,2,1","NETTLE WEED,NETTLE WEED,THISTLE WEED,THISTLE WEED","20,20,20,20","20,20,20,20","10,10,10,10","20,20,20,20","0,0,0,0","20,20,20,20","20,20,20,20","20,20,20,20","10,10,10,10","20,20,20,20","0,0,0,0","20,20,20,20","1,0,0,1","1821,2771,2859,2314","-9.383345254201036,22.675723656428417,10.831381860442969,-23.111555327659378","-32.814247807973445,11.727216562879672,8.810511632428046,-16.552307499673354","0","0"
"543","86","text","0","20","332241","0-0","","","","","","","","","","","","","","","","","","","","","","","","","","","","","","","","","","","","",""
"","","plant-game","0","21","354304","0-0","","200","180","2","CORN CROP","Right","200","180","1","NETTLE WEED","practice","10","1,2","180,190","1,1","NETTLE WEED,THISTLE WEED","180,164.57335261145482","2,1","CORN CROP,CORN CROP","0,0","20,20","10,10","20,20","20,20","20,20","0,0","20,20","10,10","20,20","20,20","20,20","1,1","4601,1754","53.99962796003163,26.088867024642344","-15.426647388545177,18.995345621412312","0","0"
"485","86","text","0","22","354947","0-0","","","","","","","","","","","","","","","","","","","","","","","","","","","","","","","","","","","","",""
"","","plant-game","0","23","399674","0-0","","200","120","8","WHEAT CROP","Right","200","160","4","THISTLE WEED","practice","11","1,2,3,4,5,6,7,8","160,152.7063588307719,137.0917659186557,162.364305249305,160,154.21672319234315,160.26296462467778,178.0513174453724","4,3,2,1,4,3,2,1","THISTLE WEED,THISTLE WEED,THISTLE WEED,THISTLE WEED,NETTLE WEED,NETTLE WEED,NETTLE WEED,NETTLE WEED","120,125.73100653315392,169.07473965478968,152.68989067729026,174.48805384748792,154.76984779103077,186.04028647930636,235.2284824663711","8,7,6,5,4,3,2,1","WHEAT CROP,WHEAT CROP,WHEAT CROP,WHEAT CROP,WHEAT CROP,WHEAT CROP,WHEAT CROP,WHEAT CROP","0,0,0,0,0,0,0,0","20,20,20,20,20,20,20,20","10,10,10,10,10,10,10,10","20,20,20,20,20,20,20,20","20,20,20,20,20,20,20,20","20,20,20,20,20,20,20,20","0,0,0,0,0,0,0,0","20,20,20,20,20,20,20,20","10,10,10,10,10,10,10,10","20,20,20,20,20,20,20,20","20,20,20,20,20,20,20,20","20,20,20,20,20,20,20,20","0,0,0,0,0,1,1,0","6029,399,1940,2284,5706,1362,816,4187","-7.293641169228094,-15.614592912116198,25.272539330649284,26.847493624679927,-5.783276807656842,6.046241432334636,17.788352820694634,12.439095006115405","5.731006533153912,43.34373312163577,-16.384848977499427,21.798163170197643,-19.718206056457145,31.270438688275604,49.18819598706475,-2.1510172258425624","0","0"
"593","86","text","0","24","400467","0-0","","","","","","","","","","","","","","","","","","","","","","","","","","","","","","","","","","","","",""
"","","plant-game","0","25","427786","0-0","","200","180","2","CORN CROP","Right","200","160","4","NETTLE WEED","practice","12","1,2,3,4","160,186.48940375807325,209.9039843877905,230.46883751688105","4,3,2,1","NETTLE WEED,NETTLE WEED,NETTLE WEED,NETTLE WEED","180,161.72794959173552,180,134.54036973026032","2,1,2,1","CORN CROP,CORN CROP,WHEAT CROP,WHEAT CROP","0,0,0,0","20,20,20,20","10,10,10,10","20,20,20,20","20,20,20,20","20,20,20,20","0,0,0,0","20,20,20,20","10,10,10,10","20,20,20,20","20,20,20,20","20,20,20,20","1,1,0,0","4001,2059,4860,1812","26.489403758073248,23.414580629717264,20.56485312909055,-13.252164329764113","-18.27205040826447,-15.345561218976925,-45.459630269739684,16.122731170323533","0","0"
"2113","86","text","0","26","430019","0-0","","","","","","","","","","","","","","","","","","","","","","","","","","","","","","","","","","","","",""
"11539","86","text","0","27","442758","0-0","","","","","","","","","","","","","","","","","","","","","","","","","","","","","","","","","","","","",""
"","","plant-game","0","28","461874","0-0","","200","180","4","CORN CROP","Right","200","160","4","THISTLE WEED","experimental","1","1,2,3,4","160,147.21278152848313,97.82584429451862,109.8061380103798","4,3,2,1","THISTLE WEED,THISTLE WEED,THISTLE WEED,THISTLE WEED","180,187.28206711889047,187.57107167332876,211.41704190645783","4,3,2,1","CORN CROP,CORN CROP,CORN CROP,CORN CROP","0,0,0,0","20,20,20,20","10,10,10,10","20,20,20,20","20,20,20,20","20,20,20,20","0,0,0,0","20,20,20,20","10,10,10,10","20,20,20,20","20,20,20,20","20,20,20,20","0,0,1,1","5830,2720,2173,2034","-12.787218471516866,-49.38693723396452,11.980293715861182,29.019166228557147","7.2820671188904615,0.28900455443829254,23.84597023312907,15.708470836525544","0","0"
"1070","86","text","0","29","463044","0-0","","","","","","","","","","","","","","","","","","","","","","","","","","","","","","","","","","","","",""
"","","plant-game","0","30","483453","0-0","","200","180","2","WHEAT CROP","Left","200","160","2","THISTLE WEED","experimental","2","1,2","180,154.4858934154259","2,1","WHEAT CROP,WHEAT CROP","160,172.67076907878453","2,1","THISTLE WEED,THISTLE WEED","20,20","20,20","10,10","20,20","0,0","20,20","20,20","20,20","10,10","20,20","0,0","20,20","1,0","10725,4246","-25.514106584574105,34.869823510250015","12.670769078784543,10.851448785188214","0","0"
"563","86","text","0","31","484203","0-0","","","","","","","","","","","","","","","","","","","","","","","","","","","","","","","","","","","","",""
"","","plant-game","0","32","518273","0-0","","200","190","1","WHEAT CROP","Left","200","190","8","THISTLE WEED","experimental","3","1,2,3,4,5,6,7,8","190,130,148.93683050099241,166.97738674014124,191.96789291608644,195.22679649921878,178.24376446272072,210.0055508899415","1,7,6,5,4,3,2,1","WHEAT CROP,CORN CROP,CORN CROP,CORN CROP,CORN CROP,CORN CROP,CORN CROP,CORN CROP","190,179.96680387136968,228.83586830533534,201.05542945876675,213.5926807884128,193.2248765077275,161.67123452974033,181.12519385823157","8,7,6,5,4,3,2,1","THISTLE WEED,THISTLE WEED,THISTLE WEED,THISTLE WEED,THISTLE WEED,THISTLE WEED,THISTLE WEED,THISTLE WEED","20,20,20,20,20,20,20,20","20,20,20,20,20,20,20,20","10,10,10,10,10,10,10,10","20,20,20,20,20,20,20,20","0,0,0,0,0,0,0,0","20,20,20,20,20,20,20,20","20,20,20,20,20,20,20,20","20,20,20,20,20,20,20,20","10,10,10,10,10,10,10,10","20,20,20,20,20,20,20,20","0,0,0,0,0,0,0,0","20,20,20,20,20,20,20,20","1,0,1,1,1,1,0,0","6793,8119,2484,1585,1229,1939,1536,1873","-16.50307990078566,18.93683050099242,18.040556239148827,24.990506175945185,3.2589035831323248,-16.983032036498066,31.76178642722079,28.952880169491493","-10.033196128630328,48.86906443396565,-27.780438846568572,12.537251329646033,-20.367804280685306,-31.553641977987148,19.453959328491226,23.24323221372572","0","0"
"420","86","text","0","33","518960","0-0","","","","","","","","","","","","","","","","","","","","","","","","","","","","","","","","","","","","",""
"","","plant-game","0","34","538007","0-0","","200","160","1","WHEAT CROP","Right","200","180","4","NETTLE WEED","experimental","4","1,2,3,4","180,169.1081576644507,205.93967956935,208.82696142608734","4,3,2,1","NETTLE WEED,NETTLE WEED,NETTLE WEED,NETTLE WEED","160,170,136.96041482206786,145.8382932340097","1,3,2,1","WHEAT CROP,CORN CROP,CORN CROP,CORN CROP","0,0,0,0","20,20,20,20","10,10,10,10","20,20,20,20","20,20,20,20","20,20,20,20","0,0,0,0","20,20,20,20","10,10,10,10","20,20,20,20","20,20,20,20","20,20,20,20","0,1,0,0","1458,6199,1494,1563","-10.891842335549315,36.831521904899304,2.8872818567373177,-5.2519490053710545","3.1496371843902637,-33.03958517793214,8.877878411941854,15.32319496543765","0","0"
"510","86","text","0","35","538657","0-0","","","","","","","","","","","","","","","","","","","","","","","","","","","","","","","","","","","","",""
"","","plant-game","0","36","565711","0-0","","200","120","4","WHEAT CROP","Left","200","180","8","NETTLE WEED","experimental","5","1,2,3,4,5,6,7,8","120,158.88874669421182,156.76188217713357,132.3660508497248,160,176.15117593404216,218.0858709763345,278.077111821814","4,3,2,1,4,3,2,1","WHEAT CROP,WHEAT CROP,WHEAT CROP,WHEAT CROP,CORN CROP,CORN CROP,CORN CROP,CORN CROP","180,192.84379238976652,211.29682688387922,245.95063701367877,269.23065798659144,319.5903674195689,329.9607620240795,352.05238890723274","8,7,6,5,4,3,2,1","NETTLE WEED,NETTLE WEED,NETTLE WEED,NETTLE WEED,NETTLE WEED,NETTLE WEED,NETTLE WEED,NETTLE WEED","20,20,20,20,20,20,20,20","20,20,20,20,20,20,20,20","10,10,10,10,10,10,10,10","20,20,20,20,20,20,20,20","0,0,0,0,0,0,0,0","20,20,20,20,20,20,20,20","20,20,20,20,20,20,20,20","20,20,20,20,20,20,20,20","10,10,10,10,10,10,10,10","20,20,20,20,20,20,20,20","0,0,0,0,0,0,0,0","20,20,20,20,20,20,20,20","0,1,1,1,0,0,0,0","4917,3419,1617,1971,5179,203,324,162","38.888746694211804,-2.126864517078242,-24.39583132740877,-25.52913700134083,16.15117593404215,41.93469504229234,59.9912408454795,28.164051746245995","12.843792389766506,18.45303449411269,34.65381012979955,23.280020972912663,50.35970943297744,10.370394604510569,22.09162688315323,33.47896532724049","0","0"
"670","86","text","0","37","566551","0-0","","","","","","","","","","","","","","","","","","","","","","","","","","","","","","","","","","","","",""
"","","plant-game","0","38","584223","0-0","","200","180","1","WHEAT CROP","Left","200","120","2","THISTLE WEED","experimental","6","1,2","180,190","1,1","WHEAT CROP,CORN CROP","120,135.31921827260027","2,1","THISTLE WEED,THISTLE WEED","20,20","20,20","10,10","20,20","0,0","20,20","20,20","20,20","10,10","20,20","0,0","20,20","0,0","5289,3105","8.299568059143168,-3.531799333053609","15.319218272600258,11.33940197202476","0","0"
"688","86","text","0","39","585067","0-0","","","","","","","","","","","","","","","","","","","","","","","","","","","","","","","","","","","","",""
"","","plant-game","0","40","597641","0-0","","200","190","2","WHEAT CROP","Right","200","180","2","THISTLE WEED","experimental","7","1,2","180,212.03769762417622","2,1","THISTLE WEED,THISTLE WEED","190,202.34713262701834","2,1","WHEAT CROP,WHEAT CROP","0,0","20,20","10,10","20,20","20,20","20,20","0,0","20,20","10,10","20,20","20,20","20,20","1,0","6022,1980","32.037697624176225,9.327850562022943","12.347132627018343,22.17033738323506","0","0"
"557","86","text","0","41","598438","0-0","","","","","","","","","","","","","","","","","","","","","","","","","","","","","","","","","","","","",""
"","","plant-game","0","42","639855","0-0","","200","180","2","CORN CROP","Left","200","120","8","THISTLE WEED","experimental","8","1,2,3,4,5,6,7,8","180,225.3496382737182,140,141.1100833394882,144.2306150338207,159.73043017342508,202.61354461385855,241.04230873770263","2,1,6,5,4,3,2,1","CORN CROP,CORN CROP,WHEAT CROP,WHEAT CROP,WHEAT CROP,WHEAT CROP,WHEAT CROP,WHEAT CROP","120,156.01182640136656,146.8393550892587,130.217912526919,120.93561966874059,99.13970414791844,90.4777233281271,111.61482522699598","8,7,6,5,4,3,2,1","THISTLE WEED,THISTLE WEED,THISTLE WEED,THISTLE WEED,THISTLE WEED,THISTLE WEED,THISTLE WEED,THISTLE WEED","20,20,20,20,20,20,20,20","20,20,20,20,20,20,20,20","10,10,10,10,10,10,10,10","20,20,20,20,20,20,20,20","0,0,0,0,0,0,0,0","20,20,20,20,20,20,20,20","20,20,20,20,20,20,20,20","20,20,20,20,20,20,20,20","10,10,10,10,10,10,10,10","20,20,20,20,20,20,20,20","0,0,0,0,0,0,0,0","20,20,20,20,20,20,20,20","0,1,1,0,0,0,0,1","12764,3044,5065,1573,1730,1930,2817,1683","45.349638273718185,26.782099285652162,1.1100833394881957,3.120531694332513,15.499815139604365,42.88311444043346,38.428764123844076,42.64316066942371","36.01182640136656,-9.17247131210786,-16.621442562339695,-9.282292858178423,-21.79591552082215,-8.661980819791335,21.137101898868874,32.34176535394133","0","0"
"950","86","text","0","43","640895","0-0","","","","","","","","","","","","","","","","","","","","","","","","","","","","","","","","","","","","",""
"","","plant-game","0","44","650215","0-0","","200","190","1","CORN CROP","Right","200","120","1","NETTLE WEED","experimental","9","1","120","1","NETTLE WEED","190","1","CORN CROP","0","20","10","20","20","20","0","20","10","20","20","20","1","3743","53.018589150001844","45.19097697588123","0","0"
"576","86","text","0","45","650972","0-0","","","","","","","","","","","","","","","","","","","","","","","","","","","","","","","","","","","","",""
"","","plant-game","0","46","658378","0-0","","200","120","1","WHEAT CROP","Right","200","120","1","THISTLE WEED","experimental","10","1","120","1","THISTLE WEED","120","1","WHEAT CROP","0","20","10","20","20","20","0","20","10","20","20","20","1","2574","13.40573124447748","34.02298816471205","0","0"
"620","86","text","0","47","659158","0-0","","","","","","","","","","","","","","","","","","","","","","","","","","","","","","","","","","","","",""
"","","plant-game","0","48","684055","0-0","","200","180","4","WHEAT CROP","Right","200","160","8","NETTLE WEED","experimental","11","1,2,3,4,5,6,7,8","160,195.6448496072012,208.88449902080757,196.2797989457953,170.53984804016085,171.89221784127508,181.25428965667453,164.19040849711953","8,7,6,5,4,3,2,1","NETTLE WEED,NETTLE WEED,NETTLE WEED,NETTLE WEED,NETTLE WEED,NETTLE WEED,NETTLE WEED,NETTLE WEED","180,214.85470669656402,209.37728342733348,181.03479553557526,160,173.2986923534715,207.20069028625545,197.10231558332907","4,3,2,1,4,3,2,1","WHEAT CROP,WHEAT CROP,WHEAT CROP,WHEAT CROP,CORN CROP,CORN CROP,CORN CROP,CORN CROP","0,0,0,0,0,0,0,0","20,20,20,20,20,20,20,20","10,10,10,10,10,10,10,10","20,20,20,20,20,20,20,20","20,20,20,20,20,20,20,20","20,20,20,20,20,20,20,20","0,0,0,0,0,0,0,0","20,20,20,20,20,20,20,20","10,10,10,10,10,10,10,10","20,20,20,20,20,20,20,20","20,20,20,20,20,20,20,20","20,20,20,20,20,20,20,20","1,0,0,1,1,1,0,1","3765,1877,1697,1733,2696,1178,1289,1293","35.64484960720121,13.239649413606367,-12.604700075012254,-25.73995090563446,1.3523698011142393,9.362071815399457,-17.063881159555006,-21.42820748279705","34.854706696564016,-5.47742326923054,-28.342487891758218,48.33044376012641,13.298692353471502,33.90199793278395,-10.098374702926368,24.652341134993986","0","0"
"449","86","text","0","49","684648","0-0","","","","","","","","","","","","","","","","","","","","","","","","","","","","","","","","","","","","",""
"","","plant-game","0","50","699808","0-0","","200","120","2","WHEAT CROP","Left","200","120","4","THISTLE WEED","experimental","12","1,2,3,4","120,133.78804758649915,180,181.23402513128966","2,1,2,1","WHEAT CROP,WHEAT CROP,CORN CROP,CORN CROP","120,146.78522785520244,190.7107505590268,223.63025919572857","4,3,2,1","THISTLE WEED,THISTLE WEED,THISTLE WEED,THISTLE WEED","20,20,20,20","20,20,20,20","10,10,10,10","20,20,20,20","0,0,0,0","20,20,20,20","20,20,20,20","20,20,20,20","10,10,10,10","20,20,20,20","0,0,0,0","20,20,20,20","0,0,1,1","2159,2000,1631,1509","13.78804758649914,8.234805617872407,1.234025131289649,24.175765803496652","26.78522785520245,43.92552270382435,32.91950863670177,-17.64051662477521","0","0"
"496","86","text","0","51","700486","0-0","","","","","","","","","","","","","","","","","","","","","","","","","","","","","","","","","","","","",""
"","","plant-game","0","52","717887","0-0","","200","180","1","WHEAT CROP","Right","200","160","4","NETTLE WEED","experimental","13","1,2,3,4","160,159.74147329968164,251.7153279464659,309.7549762539877","4,3,2,1","NETTLE WEED,NETTLE WEED,NETTLE WEED,NETTLE WEED","180,170,210.18560169192736,203.19371560703033","1,3,2,1","WHEAT CROP,CORN CROP,CORN CROP,CORN CROP","0,0,0,0","20,20,20,20","10,10,10,10","20,20,20,20","20,20,20,20","20,20,20,20","0,0,0,0","20,20,20,20","10,10,10,10","20,20,20,20","20,20,20,20","20,20,20,20","1,1,0,0","3915,2402,2216,1202","-0.25852670031835245,91.97385464678426,58.03964830752183,17.130282503033143","-14.857173409552829,40.18560169192736,-6.9918860848970255,10.722439038501543","0","0"
"593","86","text","0","53","718620","0-0","","","","","","","","","","","","","","","","","","","","","","","","","","","","","","","","","","","","",""
"","","plant-game","0","54","726804","0-0","","200","180","2","WHEAT CROP","Right","200","190","2","THISTLE WEED","experimental","14","1,2","190,157.93140048365856","2,1","THISTLE WEED,THISTLE WEED","180,179.87677215552878","2,1","WHEAT CROP,WHEAT CROP","0,0","20,20","10,10","20,20","20,20","20,20","0,0","20,20","10,10","20,20","20,20","20,20","0,1","2313,1799","-32.068599516341436,9.362278129395282","-0.1232278444712305,3.5057030266774127","0","0"
"540","86","text","0","55","727534","0-0","","","","","","","","","","","","","","","","","","","","","","","","","","","","","","","","","","","","",""
"","","plant-game","0","56","745123","0-0","","200","120","2","CORN CROP","Right","200","160","4","NETTLE WEED","experimental","15","1,2,3,4","160,147.69385911787575,167.0873901054559,197.90674087633977","4,3,2,1","NETTLE WEED,NETTLE WEED,NETTLE WEED,NETTLE WEED","120,119.10677058923477,180,222.0844016935922","2,1,2,1","CORN CROP,CORN CROP,WHEAT CROP,WHEAT CROP","0,0,0,0","20,20,20,20","10,10,10,10","20,20,20,20","20,20,20,20","20,20,20,20","0,0,0,0","20,20,20,20","10,10,10,10","20,20,20,20","20,20,20,20","20,20,20,20","1,1,1,0","4279,856,3511,1652","-12.306140882124247,19.39353098758016,30.81935077088387,-29.871342189220154","-0.8932294107652261,19.4023608550424,42.08440169359223,30.498269166896776","0","0"
"457","86","text","0","57","745740","0-0","","","","","","","","","","","","","","","","","","","","","","","","","","","","","","","","","","","","",""
"","","plant-game","0","58","757637","0-0","","200","190","1","WHEAT CROP","Right","200","180","2","THISTLE WEED","experimental","16","1,2","180,199.39350818611274","2,1","THISTLE WEED,THISTLE WEED","190,190","1,1","WHEAT CROP,CORN CROP","0,0","20,20","10,10","20,20","20,20","20,20","0,0","20,20","10,10","20,20","20,20","20,20","0,0","2276,2560","19.393508186112744,-6.843721744958378","-10.507467765394393,3.7147757255330967","0","0"
"505","86","text","0","59","758313","0-0","","","","","","","","","","","","","","","","","","","","","","","","","","","","","","","","","","","","",""
"","","plant-game","0","60","767330","0-0","","200","120","2","CORN CROP","Right","200","180","2","NETTLE WEED","experimental","17","1,2","180,193.17043366613518","2,1","NETTLE WEED,NETTLE WEED","120,170.28873453387934","2,1","CORN CROP,CORN CROP","0,0","20,20","10,10","20,20","20,20","20,20","0,0","20,20","10,10","20,20","20,20","20,20","1,1","3671,365","13.17043366613518,-13.548210892942365","50.28873453387934,29.15814112111658","0","0"
"667","86","text","0","61","768168","0-0","","","","","","","","","","","","","","","","","","","","","","","","","","","","","","","","","","","","",""
"","","plant-game","0","62","774527","0-0","","200","160","1","WHEAT CROP","Left","200","120","1","NETTLE WEED","experimental","18","1","160","1","WHEAT CROP","120","1","NETTLE WEED","20","20","10","20","0","20","20","20","10","20","0","20","0","1472","24.62162848175146","22.43206302283333","0","0"
"465","86","text","0","63","775273","0-0","","","","","","","","","","","","","","","","","","","","","","","","","","","","","","","","","","","","",""
"","","plant-game","0","64","788404","0-0","","200","180","4","WHEAT CROP","Left","200","180","1","THISTLE WEED","experimental","19","1,2,3,4","180,195.68520636213142,162.93560391580303,150.69091422045648","4,3,2,1","WHEAT CROP,WHEAT CROP,WHEAT CROP,WHEAT CROP","180,170,169.76893988589617,203.23050948752652","1,3,2,1","THISTLE WEED,NETTLE WEED,NETTLE WEED,NETTLE WEED","20,20,20,20","20,20,20,20","10,10,10,10","20,20,20,20","0,0,0,0","20,20,20,20","20,20,20,20","20,20,20,20","10,10,10,10","20,20,20,20","0,0,0,0","20,20,20,20","0,1,1,1","2251,1590,663,1042","15.685206362131424,-32.74960244632841,-12.244689695346565,7.192561648969712","29.100145191247137,-0.2310601141038146,33.46156960163034,-26.646221166526477","0","0"
"527","86","text","0","65","789151","0-0","","","","","","","","","","","","","","","","","","","","","","","","","","","","","","","","","","","","",""
"","","plant-game","0","66","800394","0-0","","200","190","2","WHEAT CROP","Right","200","190","1","NETTLE WEED","experimental","20","1,2","190,190","1,1","NETTLE WEED,THISTLE WEED","190,214.73696949108057","2,1","WHEAT CROP,WHEAT CROP","0,0","20,20","10,10","20,20","20,20","20,20","0,0","20,20","10,10","20,20","20,20","20,20","0,0","3409,1588","-18.131352296287783,-25.690046310161332","24.736969491080565,-7.470246435460652","0","0"
"730","86","text","0","67","801324","0-0","","","","","","","","","","","","","","","","","","","","","","","","","","","","","","","","","","","","",""
"","","plant-game","0","68","817880","0-0","","200","160","8","WHEAT CROP","Right","200","120","4","THISTLE WEED","experimental","21","1,2,3,4,5,6,7,8","120,141.40252530076907,136.88596391277727,134.4665859273961,160,143.20670856744727,159.36212088177348,159.5439465782319","4,3,2,1,4,3,2,1","THISTLE WEED,THISTLE WEED,THISTLE WEED,THISTLE WEED,NETTLE WEED,NETTLE WEED,NETTLE WEED,NETTLE WEED","160,182.37226478093208,235.09518614488448,244.22794607750066,242.41698330921554,279.25928898763664,253.28916069555876,278.5305414160846","8,7,6,5,4,3,2,1","WHEAT CROP,WHEAT CROP,WHEAT CROP,WHEAT CROP,WHEAT CROP,WHEAT CROP,WHEAT CROP,WHEAT CROP","0,0,0,0,0,0,0,0","20,20,20,20,20,20,20,20","10,10,10,10,10,10,10,10","20,20,20,20,20,20,20,20","20,20,20,20,20,20,20,20","20,20,20,20,20,20,20,20","0,0,0,0,0,0,0,0","20,20,20,20,20,20,20,20","10,10,10,10,10,10,10,10","20,20,20,20,20,20,20,20","20,20,20,20,20,20,20,20","20,20,20,20,20,20,20,20","0,0,0,0,0,0,0,0","2945,971,638,2059,1173,808,392,452","21.402525300769064,-4.5165613879917945,-2.419377985381182,-48.08840177203015,-16.79329143255273,16.1554123143262,0.18182569645842403,7.500881172568768","22.3722647809321,52.7229213639524,9.13275993261617,-1.8109627682851328,36.84230567842108,-25.970128292077877,25.241380720525846,-9.992716821231681","0","0"
"567","86","text","0","69","818697","0-0","","","","","","","","","","","","","","","","","","","","","","","","","","","","","","","","","","","","",""
"","","plant-game","0","70","826604","0-0","","200","190","2","WHEAT CROP","Right","200","120","2","THISTLE WEED","experimental","22","1,2","120,114.03233154373629","2,1","THISTLE WEED,THISTLE WEED","190,174.21701987169274","2,1","WHEAT CROP,WHEAT CROP","0,0","20,20","10,10","20,20","20,20","20,20","0,0","20,20","10,10","20,20","20,20","20,20","0,1","1788,2055","-5.967668456263712,0.24083406500905724","-15.782980128307244,25.815753490697787","0","0"
"403","86","text","0","71","827207","0-0","","","","","","","","","","","","","","","","","","","","","","","","","","","","","","","","","","","","",""
"","","plant-game","0","72","852074","0-0","","200","190","8","CORN CROP","Left","200","160","4","THISTLE WEED","experimental","23","1,2,3,4,5,6,7,8","190,179.53392686595186,177.34096790750456,216.77873717051406,199.82627942487915,235.28165857178317,247.55912928348488,257.1307458324474","8,7,6,5,4,3,2,1","CORN CROP,CORN CROP,CORN CROP,CORN CROP,CORN CROP,CORN CROP,CORN CROP,CORN CROP","160,168.27994035334092,191.57955157908788,184.21536856308217,160,150.6464177378158,153.5823461882375,176.22709701215098","4,3,2,1,4,3,2,1","THISTLE WEED,THISTLE WEED,THISTLE WEED,THISTLE WEED,NETTLE WEED,NETTLE WEED,NETTLE WEED,NETTLE WEED","20,20,20,20,20,20,20,20","20,20,20,20,20,20,20,20","10,10,10,10,10,10,10,10","20,20,20,20,20,20,20,20","0,0,0,0,0,0,0,0","20,20,20,20,20,20,20,20","20,20,20,20,20,20,20,20","20,20,20,20,20,20,20,20","10,10,10,10,10,10,10,10","20,20,20,20,20,20,20,20","0,0,0,0,0,0,0,0","20,20,20,20,20,20,20,20","0,0,1,1,1,1,1,1","2653,567,2108,2544,4819,964,624,787","-10.46607313404813,-2.1929589584472886,39.4377692630095,-16.952457745634927,35.455379146904036,12.2774707117017,9.571616548962513,-6.905950475041914","8.279940353340923,23.299611225746958,-7.36418301600572,9.297495015253256,-9.353582262184196,2.9359284504217014,22.644750823913476,20.41116364280291","0","0"
"416","86","text","0","73","852640","0-0","","","","","","","","","","","","","","","","","","","","","","","","","","","","","","","","","","","","",""
"","","plant-game","0","74","869183","0-0","","200","120","1","CORN CROP","Right","200","120","4","NETTLE WEED","experimental","24","1,2,3,4","120,156.50946722515985,160.83702987254858,196.06819024240605","4,3,2,1","NETTLE WEED,NETTLE WEED,NETTLE WEED,NETTLE WEED","120,170,179.48876944816396,198.1848658148598","1,3,2,1","CORN CROP,WHEAT CROP,WHEAT CROP,WHEAT CROP","0,0,0,0","20,20,20,20","10,10,10,10","20,20,20,20","20,20,20,20","20,20,20,20","0,0,0,0","20,20,20,20","10,10,10,10","20,20,20,20","20,20,20,20","20,20,20,20","0,1,1,0","2199,4293,848,1424","36.50946722515985,4.327562647388735,35.23116036985747,-4.200464766761976","17.500013297202095,9.488769448163968,18.696096366695834,26.222070007714","0","0"
"440","86","text","0","75","869839","0-0","","","","","","","","","","","","","","","","","","","","","","","","","","","","","","","","","","","","",""
"","","plant-game","0","76","887401","0-0","","200","190","4","WHEAT CROP","Right","200","160","8","NETTLE WEED","experimental","25","1,2,3,4,5,6,7,8","160,172.6286607482232,149.97651255861848,143.56969311048798,174.1612417254479,142.00188473947964,195.90074919380606,195.35466733965865","8,7,6,5,4,3,2,1","NETTLE WEED,NETTLE WEED,NETTLE WEED,NETTLE WEED,NETTLE WEED,NETTLE WEED,NETTLE WEED,NETTLE WEED","190,144.02196842150468,129.18366500738873,137.66983278722554,160,126.95708673257097,148.05946312418484,131.18126227126996","4,3,2,1,4,3,2,1","WHEAT CROP,WHEAT CROP,WHEAT CROP,WHEAT CROP,CORN CROP,CORN CROP,CORN CROP,CORN CROP","0,0,0,0,0,0,0,0","20,20,20,20,20,20,20,20","10,10,10,10,10,10,10,10","20,20,20,20,20,20,20,20","20,20,20,20,20,20,20,20","20,20,20,20,20,20,20,20","0,0,0,0,0,0,0,0","20,20,20,20,20,20,20,20","10,10,10,10,10,10,10,10","20,20,20,20,20,20,20,20","20,20,20,20,20,20,20,20","20,20,20,20,20,20,20,20","0,0,0,1,0,0,0,0","2394,829,1116,779,1530,982,881,624","12.628660748223215,-22.652148189604716,-6.406819448130502,30.591548614959905,-32.15935698596825,53.89886445432644,-0.5460818541474121,-37.238229203390226","-45.97803157849532,-14.838303414115943,8.486167779836832,35.51913313709006,-33.04291326742903,21.10237639161387,-16.878200852914894,5.47312960989137","0","0"
"473","86","text","0","77","888077","0-0","","","","","","","","","","","","","","","","","","","","","","","","","","","","","","","","","","","","",""
"","","plant-game","0","78","903686","0-0","","200","160","4","WHEAT CROP","Right","200","160","8","THISTLE WEED","experimental","26","1,2,3,4,5,6,7,8","160,118.4006853773651,151.24694249643,148.45699863053764,151.98408134977453,169.71351487577988,209.00462346363483,192.18541054032258","8,7,6,5,4,3,2,1","THISTLE WEED,THISTLE WEED,THISTLE WEED,THISTLE WEED,THISTLE WEED,THISTLE WEED,THISTLE WEED,THISTLE WEED","160,156.3149061381354,126.37125402478098,172.31462811927727,160,179.8134157841995,194.2737222485498,184.70898003573345","4,3,2,1,4,3,2,1","WHEAT CROP,WHEAT CROP,WHEAT CROP,WHEAT CROP,CORN CROP,CORN CROP,CORN CROP,CORN CROP","0,0,0,0,0,0,0,0","20,20,20,20,20,20,20,20","10,10,10,10,10,10,10,10","20,20,20,20,20,20,20,20","20,20,20,20,20,20,20,20","20,20,20,20,20,20,20,20","0,0,0,0,0,0,0,0","20,20,20,20,20,20,20,20","10,10,10,10,10,10,10,10","20,20,20,20,20,20,20,20","20,20,20,20,20,20,20,20","20,20,20,20,20,20,20,20","0,0,0,0,0,1,0,1","3359,649,599,913,581,1089,642,500","-41.59931462263491,32.846257119064916,-2.7899438658923543,3.527082719236885,17.729433526005337,39.29110858785495,-16.819212923312246,52.51401377584798","-3.685093861864602,-29.94365211335442,45.943374094496285,-13.142098578776782,19.81341578419949,14.460306464350298,-9.564742212816368,24.41906191775487","1","0"
"359","86","text","0","79","904235","0-0","","","","","","","","","","","","","","","","","","","","","","","","","","","","","","","","","","","","",""
"","","plant-game","0","80","919198","0-0","","200","180","8","CORN CROP","Left","200","120","8","NETTLE WEED","experimental","27","1,2,3,4,5,6,7,8","180,189.27765265759263,226.56468332242497,230.0061134370425,215.08950089405351,205.74604012590558,183.4391692849028,170.61978081115814","8,7,6,5,4,3,2,1","CORN CROP,CORN CROP,CORN CROP,CORN CROP,CORN CROP,CORN CROP,CORN CROP,CORN CROP","120,149.8999418051674,197.12072848789307,239.73345569934804,280.6507421570736,306.7248219287443,324.3584119684006,352.303347114278","8,7,6,5,4,3,2,1","NETTLE WEED,NETTLE WEED,NETTLE WEED,NETTLE WEED,NETTLE WEED,NETTLE WEED,NETTLE WEED,NETTLE WEED","20,20,20,20,20,20,20,20","20,20,20,20,20,20,20,20","10,10,10,10,10,10,10,10","20,20,20,20,20,20,20,20","0,0,0,0,0,0,0,0","20,20,20,20,20,20,20,20","20,20,20,20,20,20,20,20","20,20,20,20,20,20,20,20","10,10,10,10,10,10,10,10","20,20,20,20,20,20,20,20","0,0,0,0,0,0,0,0","20,20,20,20,20,20,20,20","0,0,1,1,1,1,1,0","652,3416,983,1153,472,1061,594,477","9.277652657592636,37.28703066483234,3.441430114617541,-14.916612542988972,-9.343460768147928,-22.3068708410028,-12.819388473744649,10.980970129686423","29.899941805167412,47.22078668272569,42.61272721145495,40.91728645772554,26.074079771670718,17.633590039656323,27.94493514587739,21.32003464702888","0","0"
"414","86","text","0","81","919802","0-0","","","","","","","","","","","","","","","","","","","","","","","","","","","","","","","","","","","","",""
"","","plant-game","0","82","930814","0-0","","200","180","4","CORN CROP","Right","200","190","2","NETTLE WEED","experimental","28","1,2,3,4","190,174.79571456336168,180,196.6356404695385","2,1,2,1","NETTLE WEED,NETTLE WEED,THISTLE WEED,THISTLE WEED","180,170.20217912591667,172.12222275562053,153.06393554967346","4,3,2,1","CORN CROP,CORN CROP,CORN CROP,CORN CROP","0,0,0,0","20,20,20,20","10,10,10,10","20,20,20,20","20,20,20,20","20,20,20,20","0,0,0,0","20,20,20,20","10,10,10,10","20,20,20,20","20,20,20,20","20,20,20,20","0,0,0,0","2606,251,1150,604","-15.20428543663832,34.650690859917276,16.635640469538476,-13.46418733928555","-9.797820874083335,1.9200436297038435,-19.05828720594707,2.5956301851446644","0","0"
"446","86","text","0","83","931470","0-0","","","","","","","","","","","","","","","","","","","","","","","","","","","","","","","","","","","","",""
"","","plant-game","0","84","942962","0-0","","200","120","2","WHEAT CROP","Right","200","160","1","THISTLE WEED","experimental","29","1,2","160,190","1,1","THISTLE WEED,NETTLE WEED","120,178.95329064403236","2,1","WHEAT CROP,WHEAT CROP","0,0","20,20","10,10","20,20","20,20","20,20","0,0","20,20","10,10","20,20","20,20","20,20","1,1","3294,1923","2.3604263032351973,-8.993905945477469","58.95329064403237,-6.0288860765313075","0","0"
"526","86","text","0","85","943629","0-0","","","","","","","","","","","","","","","","","","","","","","","","","","","","","","","","","","","","",""
"","","plant-game","0","86","949327","0-0","","200","120","1","WHEAT CROP","Right","200","190","1","THISTLE WEED","experimental","30","1","190","1","THISTLE WEED","120","1","WHEAT CROP","0","20","10","20","20","20","0","20","10","20","20","20","0","1875","-11.805897038968386","-0.9057061976799266","0","0"
"465","86","text","0","87","949932","0-0","","","","","","","","","","","","","","","","","","","","","","","","","","","","","","","","","","","","",""
"","","plant-game","0","88","961383","0-0","","200","180","2","WHEAT CROP","Right","200","190","4","THISTLE WEED","experimental","31","1,2,3,4","190,204.08977096117943,203.6559298379164,171.61890419359614","4,3,2,1","THISTLE WEED,THISTLE WEED,THISTLE WEED,THISTLE WEED","180,180.99926497810964,180,182.59236102055746","2,1,2,1","WHEAT CROP,WHEAT CROP,CORN CROP,CORN CROP","0,0,0,0","20,20,20,20","10,10,10,10","20,20,20,20","20,20,20,20","20,20,20,20","0,0,0,0","20,20,20,20","10,10,10,10","20,20,20,20","20,20,20,20","20,20,20,20","0,0,0,1","1863,1290,450,1931","14.089770961179424,-0.4338411232630165,-32.037025644320266,40.640929785236374","0.9992649781096377,-22.992814043043598,2.592361020557465,-8.486922351253533","0","0"
"213","86","text","0","89","961776","0-0","","","","","","","","","","","","","","","","","","","","","","","","","","","","","","","","","","","","",""
"","","plant-game","0","90","970516","0-0","","200","180","2","CORN CROP","Left","200","120","1","NETTLE WEED","experimental","32","1,2","180,196.0588409030929","2,1","CORN CROP,CORN CROP","120,190","1,1","NETTLE WEED,THISTLE WEED","20,20","20,20","10,10","20,20","0,0","20,20","20,20","20,20","10,10","20,20","0,0","20,20","0,0","1670,779","16.058840903092893,90.15959152722439","28.110715606979003,-9.964503611885501","0","0"
"347","86","text","0","91","970992","0-0","","","","","","","","","","","","","","","","","","","","","","","","","","","","","","","","","","","","",""
"","","plant-game","0","92","981133","0-0","","200","190","2","WHEAT CROP","Left","200","180","1","NETTLE WEED","experimental","33","1,2","190,197.68428361869414","2,1","WHEAT CROP,WHEAT CROP","180,190","1,1","NETTLE WEED,THISTLE WEED","20,20","20,20","10,10","20,20","0,0","20,20","20,20","20,20","10,10","20,20","0,0","20,20","0,0","1852,1499","7.684283618694138,29.78508344359842","16.946205242432868,40.39669516764642","0","0"
"463","86","text","0","93","981736","0-0","","","","","","","","","","","","","","","","","","","","","","","","","","","","","","","","","","","","",""
"","","plant-game","0","94","992610","0-0","","200","160","2","WHEAT CROP","Left","200","120","1","THISTLE WEED","experimental","34","1,2","160,153.35628762208006","2,1","WHEAT CROP,WHEAT CROP","120,190","1,1","THISTLE WEED,NETTLE WEED","20,20","20,20","10,10","20,20","0,0","20,20","20,20","20,20","10,10","20,20","0,0","20,20","0,1","2866,2129","-6.64371237791994,0.4341276549992066","13.440603948488477,0.3662468439535404","0","0"
"620","86","text","0","95","993520","0-0","","","","","","","","","","","","","","","","","","","","","","","","","","","","","","","","","","","","",""
"","","plant-game","0","96","1001321","0-0","","200","180","4","WHEAT CROP","Left","200","180","2","THISTLE WEED","experimental","35","1,2,3,4","180,157.60253537582486,171.62554420649784,179.87638535992295","4,3,2,1","WHEAT CROP,WHEAT CROP,WHEAT CROP,WHEAT CROP","180,203.1771595907255,180,207.9268735084524","2,1,2,1","THISTLE WEED,THISTLE WEED,NETTLE WEED,NETTLE WEED","20,20,20,20","20,20,20,20","10,10,10,10","20,20,20,20","0,0,0,0","20,20,20,20","20,20,20,20","20,20,20,20","10,10,10,10","20,20,20,20","0,0,0,0","20,20,20,20","0,0,0,0","1565,41,60,599","-22.39746462417515,14.023008830672966,8.25084115342511,35.69504076209119","23.177159590725488,23.9130442300724,27.926873508452392,6.962778495189339","0","0"
"469","86","text","0","97","1002050","0-0","","","","","","","","","","","","","","","","","","","","","","","","","","","","","","","","","","","","",""
"","","plant-game","0","98","1020693","0-0","","200","190","8","CORN CROP","Right","200","120","1","NETTLE WEED","experimental","36","1,2,3,4,5,6,7,8","120,130,153.5465425697302,118.04793403777191,122.53550564389919,148.88787169669203,151.83515560621507,142.9326084188207","1,7,6,5,4,3,2,1","NETTLE WEED,THISTLE WEED,THISTLE WEED,THISTLE WEED,THISTLE WEED,THISTLE WEED,THISTLE WEED,THISTLE WEED","190,234.8619929868079,232.8767905502332,218.29543202146033,195.87228626702705,229.9962003855362,253.81335666131224,261.98374438175136","8,7,6,5,4,3,2,1","CORN CROP,CORN CROP,CORN CROP,CORN CROP,CORN CROP,CORN CROP,CORN CROP,CORN CROP","0,0,0,0,0,0,0,0","20,20,20,20,20,20,20,20","10,10,10,10,10,10,10,10","20,20,20,20,20,20,20,20","20,20,20,20,20,20,20,20","20,20,20,20,20,20,20,20","0,0,0,0,0,0,0,0","20,20,20,20,20,20,20,20","10,10,10,10,10,10,10,10","20,20,20,20,20,20,20,20","20,20,20,20,20,20,20,20","20,20,20,20,20,20,20,20","1,1,0,0,1,0,0,0","2843,1297,1612,948,1067,1398,1156,781","25.866480062770854,23.546542569730214,-35.498608531958304,4.487571606127282,26.352366052792853,2.947283909523045,-8.90254718739436,-22.798424817330343","44.8619929868079,-1.9852024365746956,-14.581358528772872,-22.42314575443328,34.12391411850918,23.81715627577604,8.170387720439109,-15.90868791807744","0","0"
"213","86","text","0","99","1021016","0-0","","","","","","","","","","","","","","","","","","","","","","","","","","","","","","","","","","","","",""
"","","plant-game","0","100","1038231","0-0","","200","180","8","WHEAT CROP","Left","200","120","4","THISTLE WEED","experimental","37","1,2,3,4,5,6,7,8","180,224.25575422669988,238.57005657438035,293.0903291166229,302.4738560785253,313.37974339353366,345.81429033772304,350.40512535184746","8,7,6,5,4,3,2,1","WHEAT CROP,WHEAT CROP,WHEAT CROP,WHEAT CROP,WHEAT CROP,WHEAT CROP,WHEAT CROP,WHEAT CROP","120,112.68549483079343,130.8944055607322,163.02020747738175,160,165.7325898869762,197.26468284477403,224.99555668000528","4,3,2,1,4,3,2,1","THISTLE WEED,THISTLE WEED,THISTLE WEED,THISTLE WEED,NETTLE WEED,NETTLE WEED,NETTLE WEED,NETTLE WEED","20,20,20,20,20,20,20,20","20,20,20,20,20,20,20,20","10,10,10,10,10,10,10,10","20,20,20,20,20,20,20,20","0,0,0,0,0,0,0,0","20,20,20,20,20,20,20,20","20,20,20,20,20,20,20,20","20,20,20,20,20,20,20,20","10,10,10,10,10,10,10,10","20,20,20,20,20,20,20,20","0,0,0,0,0,0,0,0","20,20,20,20,20,20,20,20","0,0,0,0,0,0,1,1","3027,526,538,823,686,1032,590,871","44.255754226699885,14.314302347680469,54.52027254224256,9.383526961902337,10.905887315008394,32.434546944189385,4.590835014124438,-12.384341344085874","-7.314505169206569,18.20891072993876,32.12580191664956,52.4908397959169,5.7325898869762035,31.532092957797843,27.73087383523126,-20.983184007766724","0","0"
"435","86","text","0","101","1038846","0-0","","","","","","","","","","","","","","","","","","","","","","","","","","","","","","","","","","","","",""
"","","plant-game","0","102","1048859","0-0","","200","160","1","CORN CROP","Right","200","120","4","NETTLE WEED","experimental","38","1,2,3,4","120,126.68455007541787,176.76249265829102,178.580798019928","4,3,2,1","NETTLE WEED,NETTLE WEED,NETTLE WEED,NETTLE WEED","160,170,199.0143468121454,180.52312752699072","1,3,2,1","CORN CROP,WHEAT CROP,WHEAT CROP,WHEAT CROP","0,0,0,0","20,20,20,20","10,10,10,10","20,20,20,20","20,20,20,20","20,20,20,20","0,0,0,0","20,20,20,20","10,10,10,10","20,20,20,20","20,20,20,20","20,20,20,20","0,1,0,0","503,1216,1889,1172","6.684550075417879,50.077942582873135,1.818305361636976,0.25792575946222096","2.6727530873570404,29.014346812145405,-18.49121928515467,0.841717605921017","0","0"
"473","86","text","0","103","1049492","0-0","","","","","","","","","","","","","","","","","","","","","","","","","","","","","","","","","","","","",""
"","","plant-game","0","104","1067245","0-0","","200","180","1","WHEAT CROP","Left","200","120","8","NETTLE WEED","experimental","39","1,2,3,4,5,6,7,8","180,130,146.52561884151143,157.5939516966182,175.91054022089745,156.6284098093788,143.87294102013112,149.85638754581987","1,7,6,5,4,3,2,1","WHEAT CROP,CORN CROP,CORN CROP,CORN CROP,CORN CROP,CORN CROP,CORN CROP,CORN CROP","120,154.1872276201658,168.92699504089376,171.48895468960663,195.40796515137862,196.47247341074748,212.15832301815124,227.0464434554841","8,7,6,5,4,3,2,1","NETTLE WEED,NETTLE WEED,NETTLE WEED,NETTLE WEED,NETTLE WEED,NETTLE WEED,NETTLE WEED,NETTLE WEED","20,20,20,20,20,20,20,20","20,20,20,20,20,20,20,20","10,10,10,10,10,10,10,10","20,20,20,20,20,20,20,20","0,0,0,0,0,0,0,0","20,20,20,20,20,20,20,20","20,20,20,20,20,20,20,20","20,20,20,20,20,20,20,20","10,10,10,10,10,10,10,10","20,20,20,20,20,20,20,20","0,0,0,0,0,0,0,0","20,20,20,20,20,20,20,20","0,0,0,0,1,0,1,0","5471,1648,741,538,933,488,773,409","7.53460213817835,16.52561884151143,11.068332855106789,18.31658852427924,-19.282130411518622,-12.755468789247672,5.98344652568875,40.77284076785065","34.187227620165785,14.739767420727949,2.5619596487128717,23.91901046177198,1.0645082593688622,15.685849607403751,14.888120437332876,38.5063185681267","0","0"
"63","86","text","0","105","1067388","0-0","","","","","","","","","","","","","","","","","","","","","","","","","","","","","","","","","","","","",""
"","","plant-game","0","106","1077451","0-0","","200","180","4","CORN CROP","Left","200","180","4","NETTLE WEED","experimental","40","1,2,3,4","180,234.07094238370308,231.76751193891585,227.38617243793112","4,3,2,1","CORN CROP,CORN CROP,CORN CROP,CORN CROP","180,199.69117131195966,204.69437702137097,225.07386951544484","4,3,2,1","NETTLE WEED,NETTLE WEED,NETTLE WEED,NETTLE WEED","20,20,20,20","20,20,20,20","10,10,10,10","20,20,20,20","0,0,0,0","20,20,20,20","20,20,20,20","20,20,20,20","10,10,10,10","20,20,20,20","0,0,0,0","20,20,20,20","0,1,1,1","1003,2751,867,714","54.07094238370309,-2.303430444787225,-4.381339500984714,-27.031916004071906","19.691171311959668,5.003205709411302,20.37949249407387,-1.8682435167612","0","0"
"748","86","text","0","107","1078429","0-0","","","","","","","","","","","","","","","","","","","","","","","","","","","","","","","","","","","","",""
"","","plant-game","0","108","1092059","0-0","","200","120","2","WHEAT CROP","Left","200","160","8","NETTLE WEED","experimental","41","1,2,3,4,5,6,7,8","120,108.48084226660029,140,140.11184176261233,131.37379718594175,128.55868148584472,154.19507861850653,126.14787968033781","2,1,6,5,4,3,2,1","WHEAT CROP,WHEAT CROP,CORN CROP,CORN CROP,CORN CROP,CORN CROP,CORN CROP,CORN CROP","160,138.16344987259396,135.2615784951883,124.46492347302245,148.32596426335226,162.85897705466425,195.07604115324511,228.56443543402554","8,7,6,5,4,3,2,1","NETTLE WEED,NETTLE WEED,NETTLE WEED,NETTLE WEED,NETTLE WEED,NETTLE WEED,NETTLE WEED,NETTLE WEED","20,20,20,20,20,20,20,20","20,20,20,20,20,20,20,20","10,10,10,10,10,10,10,10","20,20,20,20,20,20,20,20","0,0,0,0,0,0,0,0","20,20,20,20,20,20,20,20","20,20,20,20,20,20,20,20","20,20,20,20,20,20,20,20","10,10,10,10,10,10,10,10","20,20,20,20,20,20,20,20","0,0,0,0,0,0,0,0","20,20,20,20,20,20,20,20","1,1,1,1,1,1,1,1","4423,90,626,333,291,316,291,383","-11.519157733399705,-36.57005848745359,0.11184176261233385,-8.738044576670582,-2.8151157000970524,25.636397132661806,-28.047198938168716,-11.344543083904084","-21.836550127406042,-2.901871377405658,-10.796655022165858,23.861040790329795,14.533012791312,32.21706409858087,33.48839428078041,-32.32074332295165","0","0"
"443","86","text","0","109","1092700","0-0","","","","","","","","","","","","","","","","","","","","","","","","","","","","","","","","","","","","",""
"","","plant-game","0","110","1101381","0-0","","200","120","2","WHEAT CROP","Left","200","190","1","THISTLE WEED","experimental","42","1,2","120,110.13837713961847","2,1","WHEAT CROP,WHEAT CROP","190,190","1,1","THISTLE WEED,NETTLE WEED","20,20","20,20","10,10","20,20","0,0","20,20","20,20","20,20","10,10","20,20","0,0","20,20","1,1","3259,940","-9.861622860381532,1.1430987472615446","-5.725325914927703,11.507717697715325","0","0"
"481","86","text","0","111","1102022","0-0","","","","","","","","","","","","","","","","","","","","","","","","","","","","","","","","","","","","",""
"","","plant-game","0","112","1114292","0-0","","200","180","8","CORN CROP","Left","200","120","2","THISTLE WEED","experimental","43","1,2,3,4,5,6,7,8","180,231.5740859022272,267.1592950536551,295.33752757276005,354.4338779437115,380.9646522960971,413.47654972120586,407.42460297565736","8,7,6,5,4,3,2,1","CORN CROP,CORN CROP,CORN CROP,CORN CROP,CORN CROP,CORN CROP,CORN CROP,CORN CROP","120,110.34997586342021,140,129.71379977671404,142.67502539069554,218.61237503472506,236.72803426324967,216.92296555220258","2,1,6,5,4,3,2,1","THISTLE WEED,THISTLE WEED,NETTLE WEED,NETTLE WEED,NETTLE WEED,NETTLE WEED,NETTLE WEED,NETTLE WEED","20,20,20,20,20,20,20,20","20,20,20,20,20,20,20,20","10,10,10,10,10,10,10,10","20,20,20,20,20,20,20,20","0,0,0,0,0,0,0,0","20,20,20,20,20,20,20,20","20,20,20,20,20,20,20,20","20,20,20,20,20,20,20,20","10,10,10,10,10,10,10,10","20,20,20,20,20,20,20,20","0,0,0,0,0,0,0,0","20,20,20,20,20,20,20,20","0,0,0,0,0,0,1,1","1378,128,509,76,64,68,1664,390","51.57408590222721,35.585209151427904,28.178232519104927,59.09635037095142,26.53077435238558,32.51189742510874,-6.0519467455484985,-18.27887739861356","-9.650024136579795,14.612931353102818,-10.286200223285967,12.961225613981505,75.93734964402952,18.115659228524606,-19.805068711047078,-5.279787067064712","0","0"
"482","86","text","0","113","1114984","0-0","","","","","","","","","","","","","","","","","","","","","","","","","","","","","","","","","","","","",""
"","","plant-game","0","114","1120942","0-0","","200","160","2","WHEAT CROP","Right","200","190","2","THISTLE WEED","experimental","44","1,2","190,219.61341297187033","2,1","THISTLE WEED,THISTLE WEED","160,193.8416535104951","2,1","WHEAT CROP,WHEAT CROP","0,0","20,20","10,10","20,20","20,20","20,20","0,0","20,20","10,10","20,20","20,20","20,20","1,1","2589,106","29.613412971870318,23.958074677711785","33.84165351049509,26.639308934016615","0","0"
"612","86","text","0","115","1121759","0-0","","","","","","","","","","","","","","","","","","","","","","","","","","","","","","","","","","","","",""
"","","plant-game","0","116","1136225","0-0","","200","160","2","CORN CROP","Left","200","190","8","THISTLE WEED","experimental","45","1,2,3,4,5,6,7,8","160,183.729620974709,140,134.1718954727938,158.3058230954243,187.04917839502264,215.20799485466745,250.29436682877008","2,1,6,5,4,3,2,1","CORN CROP,CORN CROP,WHEAT CROP,WHEAT CROP,WHEAT CROP,WHEAT CROP,WHEAT CROP,WHEAT CROP","190,207.23101973250766,245.4205943527222,248.19072468868958,256.15917943686793,271.91718714516304,334.57085872107456,350.72419817110915","8,7,6,5,4,3,2,1","THISTLE WEED,THISTLE WEED,THISTLE WEED,THISTLE WEED,THISTLE WEED,THISTLE WEED,THISTLE WEED,THISTLE WEED","20,20,20,20,20,20,20,20","20,20,20,20,20,20,20,20","10,10,10,10,10,10,10,10","20,20,20,20,20,20,20,20","0,0,0,0,0,0,0,0","20,20,20,20,20,20,20,20","20,20,20,20,20,20,20,20","20,20,20,20,20,20,20,20","10,10,10,10,10,10,10,10","20,20,20,20,20,20,20,20","0,0,0,0,0,0,0,0","20,20,20,20,20,20,20,20","0,1,0,0,0,0,0,0","3843,1983,1188,76,45,38,63,495","23.729620974709007,0.7976086324219769,-5.828104527206186,24.133927622630495,28.743355299598335,28.158816459644807,35.08637197410263,-1.965428769961953","17.231019732507647,38.18957462021453,2.7701303359673943,7.968454748178338,15.758007708295091,62.65367157591152,16.153339450034604,8.675008937429489","0","0"
"615","86","text","0","117","1137030","0-0","","","","","","","","","","","","","","","","","","","","","","","","","","","","","","","","","","","","",""
"","","plant-game","0","118","1150133","0-0","","200","190","4","CORN CROP","Left","200","190","8","NETTLE WEED","experimental","46","1,2,3,4,5,6,7,8","190,218.0269281910166,221.06070144082574,229.58750473067005,160,157.65661907154308,123.65403592463201,133.26717763322912","4,3,2,1,4,3,2,1","CORN CROP,CORN CROP,CORN CROP,CORN CROP,WHEAT CROP,WHEAT CROP,WHEAT CROP,WHEAT CROP","190,210.65347483142594,242.52060858151347,216.13790289997272,214.73546607416134,211.8004887222338,202.95155837921686,175.70701046701475","8,7,6,5,4,3,2,1","NETTLE WEED,NETTLE WEED,NETTLE WEED,NETTLE WEED,NETTLE WEED,NETTLE WEED,NETTLE WEED,NETTLE WEED","20,20,20,20,20,20,20,20","20,20,20,20,20,20,20,20","10,10,10,10,10,10,10,10","20,20,20,20,20,20,20,20","0,0,0,0,0,0,0,0","20,20,20,20,20,20,20,20","20,20,20,20,20,20,20,20","20,20,20,20,20,20,20,20","10,10,10,10,10,10,10,10","20,20,20,20,20,20,20,20","0,0,0,0,0,0,0,0","20,20,20,20,20,20,20,20","0,0,0,0,1,1,1,1","1836,98,54,78,3450,395,546,766","28.0269281910166,3.0337732498091547,8.526803289844299,11.702085274641846,-2.343380928456937,-34.00258314691106,9.6131417085971,6.843708849307822","20.65347483142595,31.867133750087543,-26.382705681540756,-1.4024368258113782,-2.934977351927537,-8.848930343016935,-27.244547912202112,8.690931240591448","0","0"
"547","86","text","0","119","1150880","0-0","","","","","","","","","","","","","","","","","","","","","","","","","","","","","","","","","","","","",""
"","","plant-game","0","120","1154599","0-0","","200","160","2","WHEAT CROP","Left","200","120","2","THISTLE WEED","experimental","47","1,2","160,172.16595296955123","2,1","WHEAT CROP,WHEAT CROP","120,149.98465758138133","2,1","THISTLE WEED,THISTLE WEED","20,20","20,20","10,10","20,20","0,0","20,20","20,20","20,20","10,10","20,20","0,0","20,20","0,0","747,107","12.165952969551224,50.23650116894065","29.984657581381327,0.8247582694163498","0","0"
"249","86","text","0","121","1154998","0-0","","","","","","","","","","","","","","","","","","","","","","","","","","","","","","","","","","","","",""
"","","plant-game","0","122","1164273","0-0","","200","160","8","CORN CROP","Right","200","180","2","NETTLE WEED","experimental","48","1,2,3,4,5,6,7,8","180,136.6483441132832,140,132.0190357465169,160.4281611199915,163.2408991252392,153.634994872309,123.00520859143049","2,1,6,5,4,3,2,1","NETTLE WEED,NETTLE WEED,THISTLE WEED,THISTLE WEED,THISTLE WEED,THISTLE WEED,THISTLE WEED,THISTLE WEED","160,150.35953977836638,163.14713199638538,182.5487954258322,174.70051436548974,193.77182724153178,188.370574689238,173.42789104351073","8,7,6,5,4,3,2,1","CORN CROP,CORN CROP,CORN CROP,CORN CROP,CORN CROP,CORN CROP,CORN CROP,CORN CROP","0,0,0,0,0,0,0,0","20,20,20,20,20,20,20,20","10,10,10,10,10,10,10,10","20,20,20,20,20,20,20,20","20,20,20,20,20,20,20,20","20,20,20,20,20,20,20,20","0,0,0,0,0,0,0,0","20,20,20,20,20,20,20,20","10,10,10,10,10,10,10,10","20,20,20,20,20,20,20,20","20,20,20,20,20,20,20,20","20,20,20,20,20,20,20,20","0,0,0,0,0,0,0,0","929,93,2867,68,47,13,38,54","-43.35165588671679,-5.949937421191853,-7.9809642534831156,28.409125373474605,2.812738005247687,-9.605904252930213,-30.62978628087851,13.29694096330304","-9.640460221633614,12.787592218018986,19.401663429446803,-7.84828106034246,19.071312876042036,-5.401252552293773,-14.942683645727275,-24.356939722250942","0","0"
"3887","86","text","0","123","1168370","0-0","","","","","","","","","","","","","","","","","","","","","","","","","","","","","","","","","","","","",""
"","","plant-game","0","124","1184577","0-0","","200","120","8","CORN CROP","Right","200","120","2","NETTLE WEED","experimental","49","1,2,3,4,5,6,7,8","120,119.23849196107953,140,124.86769576332287,124.60518193053925,103.66026275634536,90.87005710484988,97.40441414491019","2,1,6,5,4,3,2,1","NETTLE WEED,NETTLE WEED,THISTLE WEED,THISTLE WEED,THISTLE WEED,THISTLE WEED,THISTLE WEED,THISTLE WEED","120,110.17853527944877,104.98625262084545,107.60511115345896,115.8762354442918,135.0741186454686,155.77614177522497,134.93114315140656","8,7,6,5,4,3,2,1","CORN CROP,CORN CROP,CORN CROP,CORN CROP,CORN CROP,CORN CROP,CORN CROP,CORN CROP","0,0,0,0,0,0,0,0","20,20,20,20,20,20,20,20","10,10,10,10,10,10,10,10","20,20,20,20,20,20,20,20","20,20,20,20,20,20,20,20","20,20,20,20,20,20,20,20","0,0,0,0,0,0,0,0","20,20,20,20,20,20,20,20","10,10,10,10,10,10,10,10","20,20,20,20,20,20,20,20","20,20,20,20,20,20,20,20","20,20,20,20,20,20,20,20","0,0,0,0,0,0,0,0","4501,90,600,118,86,45,26,17","-0.7615080389204705,0.3977055982993071,-15.132304236677124,-0.26251383278362506,-20.944919174193885,-12.79020565149548,6.5343570400603115,5.881725356878855","-9.821464720551239,-5.192282658603321,2.618858532613521,8.271124290832825,19.197883201176797,20.70202312975638,-20.8449986238184,-23.830634102880794","0","0"
"454","86","text","0","125","1185234","0-0","","","","","","","","","","","","","","","","","","","","","","","","","","","","","","","","","","","","",""
"","","plant-game","0","126","1193334","0-0","","200","120","1","CORN CROP","Right","200","190","4","NETTLE WEED","experimental","50","1,2,3,4","190,237.61242730596575,265.4019547888109,251.5260628295217","4,3,2,1","NETTLE WEED,NETTLE WEED,NETTLE WEED,NETTLE WEED","120,170,171.2938861907911,158.91741613208646","1,3,2,1","CORN CROP,WHEAT CROP,WHEAT CROP,WHEAT CROP","0,0,0,0","20,20,20,20","10,10,10,10","20,20,20,20","20,20,20,20","20,20,20,20","0,0,0,0","20,20,20,20","10,10,10,10","20,20,20,20","20,20,20,20","20,20,20,20","1,0,0,0","1561,528,122,63","47.61242730596574,27.78952748284512,-13.875891959289186,-5.157551980016439","3.439406843848822,1.2938861907911192,-12.37647005870465,4.265303378579464","0","0"
"743","86","text","0","127","1194237","0-0","","","","","","","","","","","","","","","","","","","","","","","","","","","","","","","","","","","","",""
"","","plant-game","0","128","1208322","0-0","","200","160","2","WHEAT CROP","Left","200","180","4","NETTLE WEED","experimental","51","1,2,3,4","160,135.10831043074435,180,172.38987212104132","2,1,2,1","WHEAT CROP,WHEAT CROP,CORN CROP,CORN CROP","180,203.2991081240697,205.52609525295688,212.43583846969344","4,3,2,1","NETTLE WEED,NETTLE WEED,NETTLE WEED,NETTLE WEED","20,20,20,20","20,20,20,20","10,10,10,10","20,20,20,20","0,0,0,0","20,20,20,20","20,20,20,20","20,20,20,20","10,10,10,10","20,20,20,20","0,0,0,0","20,20,20,20","1,1,1,1","6696,93,949,319","-24.891689569255657,-15.5636258158313,-7.610127878958679,4.54242687129513","23.299108124069704,2.2269871288871634,6.9097432167365715,43.23880783242315","0","0"
"664","86","text","0","129","1209166","0-0","","","","","","","","","","","","","","","","","","","","","","","","","","","","","","","","","","","","",""
"","","plant-game","0","130","1222685","0-0","","200","180","8","CORN CROP","Left","200","180","4","NETTLE WEED","experimental","52","1,2,3,4,5,6,7,8","180,189.35839623279332,188.82384692770356,210.9945165442841,251.240312749389,275.5093921716344,285.54258492846185,333.40400350428513","8,7,6,5,4,3,2,1","CORN CROP,CORN CROP,CORN CROP,CORN CROP,CORN CROP,CORN CROP,CORN CROP,CORN CROP","180,195.37608459644264,192.8105242858073,257.5205118869615,160,180.5312830372214,194.22081536363999,167.39580378848044","4,3,2,1,4,3,2,1","NETTLE WEED,NETTLE WEED,NETTLE WEED,NETTLE WEED,THISTLE WEED,THISTLE WEED,THISTLE WEED,THISTLE WEED","20,20,20,20,20,20,20,20","20,20,20,20,20,20,20,20","10,10,10,10,10,10,10,10","20,20,20,20,20,20,20,20","0,0,0,0,0,0,0,0","20,20,20,20,20,20,20,20","20,20,20,20,20,20,20,20","20,20,20,20,20,20,20,20","10,10,10,10,10,10,10,10","20,20,20,20,20,20,20,20","0,0,0,0,0,0,0,0","20,20,20,20,20,20,20,20","0,1,0,0,0,0,1,1","2266,514,253,2013,587,429,593,481","9.358396232793325,-0.5345493050897672,22.17066961658054,40.2457962051049,24.269079422245383,10.033192756827482,47.861418575823286,-5.845760177287093","15.376084596442645,-2.5655603106353304,64.70998760115421,13.162367645203934,20.531283037221414,13.689532326418558,-26.82501157515954,-6.887486858388257","0","0"
"575","86","text","0","131","1223430","0-0","","","","","","","","","","","","","","","","","","","","","","","","","","","","","","","","","","","","",""
"","","plant-game","0","132","1234889","0-0","","200","190","4","WHEAT CROP","Right","200","180","2","THISTLE WEED","experimental","53","1,2,3,4","180,131.5013685855482,180,186.00603802453136","2,1,2,1","THISTLE WEED,THISTLE WEED,NETTLE WEED,NETTLE WEED","190,207.2217284327605,168.11679203709446,206.25872919909773","4,3,2,1","WHEAT CROP,WHEAT CROP,WHEAT CROP,WHEAT CROP","0,0,0,0","20,20,20,20","10,10,10,10","20,20,20,20","20,20,20,20","20,20,20,20","0,0,0,0","20,20,20,20","10,10,10,10","20,20,20,20","20,20,20,20","20,20,20,20","0,0,1,1","3685,727,557,330","-48.4986314144518,-21.60014413059865,6.006038024531371,40.744999511608384","17.2217284327605,-39.10493639566606,38.14193716200327,18.109417756130657","0","0"
"491","86","text","0","133","1235580","0-0","","","","","","","","","","","","","","","","","","","","","","","","","","","","","","","","","","","","",""
"","","plant-game","0","134","1248820","0-0","","200","120","1","WHEAT CROP","Left","200","160","4","THISTLE WEED","experimental","54","1,2,3,4","120,170,169.271624919362,176.5122987216496","1,3,2,1","WHEAT CROP,CORN CROP,CORN CROP,CORN CROP","160,167.8136687331849,203.30680261983153,163.9746045411796","4,3,2,1","THISTLE WEED,THISTLE WEED,THISTLE WEED,THISTLE WEED","20,20,20,20","20,20,20,20","10,10,10,10","20,20,20,20","0,0,0,0","20,20,20,20","20,20,20,20","20,20,20,20","10,10,10,10","20,20,20,20","0,0,0,0","20,20,20,20","1,1,1,1","1831,598,2924,1024","-2.1019102446577644,-0.728375080637982,7.240673802287601,26.287997679380666","7.813668733184889,35.493133886646625,-39.33219807865193,-24.63283783033877","0","0"
"478","86","text","0","135","1249481","0-0","","","","","","","","","","","","","","","","","","","","","","","","","","","","","","","","","","","","",""
"","","plant-game","0","136","1257747","0-0","","200","160","1","CORN CROP","Right","200","190","4","NETTLE WEED","experimental","55","1,2,3,4","190,197.86436587325804,212.2792216859149,252.9238489259485","4,3,2,1","NETTLE WEED,NETTLE WEED,NETTLE WEED,NETTLE WEED","160,170,194.1904330535772,241.17136986776615","1,3,2,1","CORN CROP,WHEAT CROP,WHEAT CROP,WHEAT CROP","0,0,0,0","20,20,20,20","10,10,10,10","20,20,20,20","20,20,20,20","20,20,20,20","0,0,0,0","20,20,20,20","10,10,10,10","20,20,20,20","20,20,20,20","20,20,20,20","0,1,1,1","739,756,479,31","7.864365873258027,14.414855812656866,40.64462724003359,67.36498407007811","-31.13152331187112,24.190433053577216,46.98093681418894,-3.5840122062121864","0","0"
"947","86","text","0","137","1258902","0-0","","","","","","","","","","","","","","","","","","","","","","","","","","","","","","","","","","","","",""
"","","plant-game","0","138","1280729","0-0","","200","120","1","WHEAT CROP","Right","200","180","8","THISTLE WEED","experimental","56","1,2,3,4,5,6,7,8","180,149.35292546647787,114.74102211000412,129.29363017389275,82.76867471518169,87.49102486594371,116.71284706689201,127.95054500078601","8,7,6,5,4,3,2,1","THISTLE WEED,THISTLE WEED,THISTLE WEED,THISTLE WEED,THISTLE WEED,THISTLE WEED,THISTLE WEED,THISTLE WEED","120,130,152.08545086938412,124.10244447363647,132.43359687910845,112.00745595279366,167.20882332441954,212.35764191926492","1,7,6,5,4,3,2,1","WHEAT CROP,CORN CROP,CORN CROP,CORN CROP,CORN CROP,CORN CROP,CORN CROP,CORN CROP","0,0,0,0,0,0,0,0","20,20,20,20,20,20,20,20","10,10,10,10,10,10,10,10","20,20,20,20,20,20,20,20","20,20,20,20,20,20,20,20","20,20,20,20,20,20,20,20","0,0,0,0,0,0,0,0","20,20,20,20,20,20,20,20","10,10,10,10,10,10,10,10","20,20,20,20,20,20,20,20","20,20,20,20,20,20,20,20","20,20,20,20,20,20,20,20","0,0,0,0,0,1,1,1","5428,891,1011,756,832,405,296,1226","-30.647074533522122,-34.611903356473746,14.55260806388863,-46.52495545871106,4.722350150762026,29.22182220094829,11.23769793389399,41.01203898687669","-22.263558473801552,22.08545086938411,-27.983006395747655,8.33115240547199,-20.426140926314787,55.20136737162587,45.14881859484538,31.864402723137562","0","0"
"743","86","text","0","139","1281672","0-0","","","","","","","","","","","","","","","","","","","","","","","","","","","","","","","","","","","","",""
"","","plant-game","0","140","1293848","0-0","","200","160","2","CORN CROP","Left","200","160","4","NETTLE WEED","experimental","57","1,2,3,4","160,137.02520210383616,180,192.63746023340187","2,1,2,1","CORN CROP,CORN CROP,WHEAT CROP,WHEAT CROP","160,225.42219008553766,220.34397333582527,214.70394206193563","4,3,2,1","NETTLE WEED,NETTLE WEED,NETTLE WEED,NETTLE WEED","20,20,20,20","20,20,20,20","10,10,10,10","20,20,20,20","0,0,0,0","20,20,20,20","20,20,20,20","20,20,20,20","10,10,10,10","20,20,20,20","0,0,0,0","20,20,20,20","0,1,1,1","4314,682,207,317","-22.974797896163828,16.265714489236437,12.637460233401876,-16.999142524522224","65.42219008553766,-5.078216749712407,-5.640031273889626,17.521448942295162","0","0"
"505","86","text","0","141","1294543","0-0","","","","","","","","","","","","","","","","","","","","","","","","","","","","","","","","","","","","",""
"","","plant-game","0","142","1309913","0-0","","200","190","2","WHEAT CROP","Right","200","120","1","THISTLE WEED","experimental","58","1,2","120,190","1,1","THISTLE WEED,NETTLE WEED","190,205.14257519000802","2,1","WHEAT CROP,WHEAT CROP","0,0","20,20","10,10","20,20","20,20","20,20","0,0","20,20","10,10","20,20","20,20","20,20","0,0","5205,4569","38.763983962082506,13.794973149347907","15.142575190008017,14.523689707780889","0","0"
"472","86","text","0","143","1310555","0-0","","","","","","","","","","","","","","","","","","","","","","","","","","","","","","","","","","","","",""
"","","plant-game","0","144","1322038","0-0","","200","180","4","CORN CROP","Right","200","190","1","NETTLE WEED","experimental","59","1,2,3,4","190,170,158.148036207157,189.98829080981182","1,3,2,1","NETTLE WEED,THISTLE WEED,THISTLE WEED,THISTLE WEED","180,179.27427779182628,160.66566132184,180.87909775569224","4,3,2,1","CORN CROP,CORN CROP,CORN CROP,CORN CROP","0,0,0,0","20,20,20,20","10,10,10,10","20,20,20,20","20,20,20,20","20,20,20,20","0,0,0,0","20,20,20,20","10,10,10,10","20,20,20,20","20,20,20,20","20,20,20,20","0,0,1,0","2009,409,2813,616","11.75415421678165,-11.851963792843005,31.840254602654824,0.4173475551615372","-0.7257222081737323,-18.608616469986295,20.213436433852248,13.757555655015342","0","0"
"287","86","text","0","145","1322425","0-0","","","","","","","","","","","","","","","","","","","","","","","","","","","","","","","","","","","","",""
"","","plant-game","0","146","1327524","0-0","","200","160","2","WHEAT CROP","Right","200","180","2","THISTLE WEED","experimental","60","1,2","180,170.29033576203318","2,1","THISTLE WEED,THISTLE WEED","160,158.46548279577456","2,1","WHEAT CROP,WHEAT CROP","0,0","20,20","10,10","20,20","20,20","20,20","0,0","20,20","10,10","20,20","20,20","20,20","0,0","1624,198","-9.709664237966813,27.012726433726595","-1.5345172042254238,5.680803923767471","0","0"
"1920","86","text","0","147","1329624","0-0","","","","","","","","","","","","","","","","","","","","","","","","","","","","","","","","","","","","",""
"","","plant-game","0","148","1346832","0-0","","200","120","8","WHEAT CROP","Left","200","190","2","THISTLE WEED","experimental","61","1,2,3,4,5,6,7,8","120,150.55970289659086,137.9876370859898,186.72338719393693,219.51602616207236,216.79219688126392,198.9243267255707,222.25598070883342","8,7,6,5,4,3,2,1","WHEAT CROP,WHEAT CROP,WHEAT CROP,WHEAT CROP,WHEAT CROP,WHEAT CROP,WHEAT CROP,WHEAT CROP","190,217.10041055923105,140,159.27131224715097,174.2398192036272,141.7860580581608,125.72437304141694,167.0621127184664","2,1,6,5,4,3,2,1","THISTLE WEED,THISTLE WEED,NETTLE WEED,NETTLE WEED,NETTLE WEED,NETTLE WEED,NETTLE WEED,NETTLE WEED","20,20,20,20,20,20,20,20","20,20,20,20,20,20,20,20","10,10,10,10,10,10,10,10","20,20,20,20,20,20,20,20","0,0,0,0,0,0,0,0","20,20,20,20,20,20,20,20","20,20,20,20,20,20,20,20","20,20,20,20,20,20,20,20","10,10,10,10,10,10,10,10","20,20,20,20,20,20,20,20","0,0,0,0,0,0,0,0","20,20,20,20,20,20,20,20","0,1,0,0,1,1,0,1","4443,857,604,677,1761,890,574,607","30.559702896590863,-12.572065810601064,48.73575010794712,32.79263896813545,-2.7238292808084505,-17.867870155693236,23.331653983262726,-15.96952282428661","27.10041055923104,-26.442073134367554,19.271312247150973,14.968506956476237,-32.45376114546641,-16.06168501674385,41.33773967704947,23.70863925472419","0","0"
"53","86","text","0","149","1347098","0-0","","","","","","","","","","","","","","","","","","","","","","","","","","","","","","","","","","","","",""
"","","plant-game","0","150","1352907","0-0","","200","160","2","WHEAT CROP","Right","200","120","4","NETTLE WEED","experimental","62","1,2,3,4","120,131.49901176946028,108.81032673112982,115.39558976250996","4,3,2,1","NETTLE WEED,NETTLE WEED,NETTLE WEED,NETTLE WEED","160,182.83833987333534,180,147.76362988625152","2,1,2,1","WHEAT CROP,WHEAT CROP,CORN CROP,CORN CROP","0,0,0,0","20,20,20,20","10,10,10,10","20,20,20,20","20,20,20,20","20,20,20,20","0,0,0,0","20,20,20,20","10,10,10,10","20,20,20,20","20,20,20,20","20,20,20,20","0,0,0,0","682,111,528,208","11.499011769460294,-22.688685038330462,6.585263031380144,11.444942853582392","22.83833987333535,-1.2407946677588728,-32.23637011374847,13.435604546967244","0","0"
"542","86","text","0","151","1353669","0-0","","","","","","","","","","","","","","","","","","","","","","","","","","","","","","","","","","","","",""
"","","plant-game","0","152","1362215","0-0","","200","180","8","CORN CROP","Right","200","160","8","NETTLE WEED","experimental","63","1,2,3,4,5,6,7,8","160,170.27299444233321,222.5219365095714,249.76868891360735,248.42531756444006,234.06475008467748,252.39823917744116,247.66711634942584","8,7,6,5,4,3,2,1","NETTLE WEED,NETTLE WEED,NETTLE WEED,NETTLE WEED,NETTLE WEED,NETTLE WEED,NETTLE WEED,NETTLE WEED","180,145.53086610877716,147.909567972485,123.01950675161095,126.85139932263034,122.69278920474211,135.2290967419055,158.03152264598424","8,7,6,5,4,3,2,1","CORN CROP,CORN CROP,CORN CROP,CORN CROP,CORN CROP,CORN CROP,CORN CROP,CORN CROP","0,0,0,0,0,0,0,0","20,20,20,20,20,20,20,20","10,10,10,10,10,10,10,10","20,20,20,20,20,20,20,20","20,20,20,20,20,20,20,20","20,20,20,20,20,20,20,20","0,0,0,0,0,0,0,0","20,20,20,20,20,20,20,20","10,10,10,10,10,10,10,10","20,20,20,20,20,20,20,20","20,20,20,20,20,20,20,20","20,20,20,20,20,20,20,20","0,0,0,0,0,0,0,0","1544,137,720,434,430,441,500,459","10.272994442333218,52.248942067238175,27.246752404035956,-1.343371349167273,-14.360567479762572,18.333489092763656,-4.731122828015319,15.637896032597773","-34.46913389122285,2.378701863707835,-24.89006122087406,3.831892571019396,-4.158610117888233,12.536307537163394,22.802425904078753,-24.07499437684697","0","0"
"661","86","text","0","153","1363036","0-0","","","","","","","","","","","","","","","","","","","","","","","","","","","","","","","","","","","","",""
"","","plant-game","0","154","1374074","0-0","","200","190","4","CORN CROP","Right","200","120","8","THISTLE WEED","experimental","64","1,2,3,4,5,6,7,8","120,128.29013072600642,103.2869028633431,120.65779303436024,102.66091247540243,130.4185377913883,122.33307757110063,120.8301766659804","8,7,6,5,4,3,2,1","THISTLE WEED,THISTLE WEED,THISTLE WEED,THISTLE WEED,THISTLE WEED,THISTLE WEED,THISTLE WEED,THISTLE WEED","190,244.81055413392843,249.70227614754518,260.60109414179186,160,110.6684141613609,128.28046792296783,90.20150519866756","4,3,2,1,4,3,2,1","CORN CROP,CORN CROP,CORN CROP,CORN CROP,WHEAT CROP,WHEAT CROP,WHEAT CROP,WHEAT CROP","0,0,0,0,0,0,0,0","20,20,20,20,20,20,20,20","10,10,10,10,10,10,10,10","20,20,20,20,20,20,20,20","20,20,20,20,20,20,20,20","20,20,20,20,20,20,20,20","0,0,0,0,0,0,0,0","20,20,20,20,20,20,20,20","10,10,10,10,10,10,10,10","20,20,20,20,20,20,20,20","20,20,20,20,20,20,20,20","20,20,20,20,20,20,20,20","1,0,0,0,0,0,0,1","523,956,608,725,429,599,438,512","8.290130726006435,-25.003227862663316,17.370890171017138,-17.996880558957812,27.757625315985873,-8.085460220287665,-1.5029009051202322,49.2121150261564","54.810554133928434,4.8917220136167465,10.898817994246684,8.475509636081815,-49.3315858386391,17.612053761606916,-38.07896272430027,28.59394351774767","0","0"
"2532","86","text","0","155","1376756","0-0","","","","","","","","","","","","","","","","","","","","","","","","","","","","","","","","","","","","",""
"","","plant-game","0","156","1382780","0-0","","200","190","2","CORN CROP","Left","200","190","2","NETTLE WEED","experimental","65","1,2","190,243.9063374099711","2,1","CORN CROP,CORN CROP","190,176.81279952266937","2,1","NETTLE WEED,NETTLE WEED","20,20","20,20","10,10","20,20","0,0","20,20","20,20","20,20","10,10","20,20","0,0","20,20","0,0","901,650","53.90633740997108,1.1379949929632147","-13.187200477330627,27.226784055474344","0","0"
"643","86","text","0","157","1383642","0-0","","","","","","","","","","","","","","","","","","","","","","","","","","","","","","","","","","","","",""
"","","plant-game","0","158","1390410","0-0","","200","180","2","CORN CROP","Left","200","180","4","NETTLE WEED","experimental","66","1,2,3,4","180,237.09473892161765,180,205.72960771432741","2,1,2,1","CORN CROP,CORN CROP,WHEAT CROP,WHEAT CROP","180,173.8958885464902,185.79926647564685,177.17837868390018","4,3,2,1","NETTLE WEED,NETTLE WEED,NETTLE WEED,NETTLE WEED","20,20,20,20","20,20,20,20","10,10,10,10","20,20,20,20","0,0,0,0","20,20,20,20","20,20,20,20","20,20,20,20","10,10,10,10","20,20,20,20","0,0,0,0","20,20,20,20","0,1,1,1","657,187,647,116","57.09473892161765,-7.104564488367982,25.72960771432742,-5.453502980890201","-6.104111453509802,11.90337792915666,-8.62088779174668,-33.2204545262521","0","0"
"572","86","text","0","159","1391194","0-0","","","","","","","","","","","","","","","","","","","","","","","","","","","","","","","","","","","","",""
"","","plant-game","0","160","1402988","0-0","","200","160","1","WHEAT CROP","Right","200","160","8","NETTLE WEED","experimental","67","1,2,3,4,5,6,7,8","160,196.44956938978234,210.86827368749238,217.3190060587819,228.9915313679017,252.75166739832292,259.5664865038027,254.43128139355096","8,7,6,5,4,3,2,1","NETTLE WEED,NETTLE WEED,NETTLE WEED,NETTLE WEED,NETTLE WEED,NETTLE WEED,NETTLE WEED,NETTLE WEED","160,130,162.222097205887,168.01580012936887,156.96265476349765,157.19480888896413,153.19465384054834,158.3918165774571","1,7,6,5,4,3,2,1","WHEAT CROP,CORN CROP,CORN CROP,CORN CROP,CORN CROP,CORN CROP,CORN CROP,CORN CROP","0,0,0,0,0,0,0,0","20,20,20,20,20,20,20,20","10,10,10,10,10,10,10,10","20,20,20,20,20,20,20,20","20,20,20,20,20,20,20,20","20,20,20,20,20,20,20,20","0,0,0,0,0,0,0,0","20,20,20,20,20,20,20,20","10,10,10,10,10,10,10,10","20,20,20,20,20,20,20,20","20,20,20,20,20,20,20,20","20,20,20,20,20,20,20,20","0,1,0,0,0,0,0,0","1074,822,659,463,408,317,326,287","36.44956938978233,14.41870429771005,6.450732371289517,11.672525309119791,23.76013603042121,6.814819105479767,-5.135205110251745,10.63375771565884","-9.65604600774041,32.22209720588698,5.793702923481861,-11.053145365871217,0.23215412546646969,-4.000155048415796,5.1971627369087585,15.602887146911307","0","0"
"479","86","text","0","161","1403607","0-0","","","","","","","","","","","","","","","","","","","","","","","","","","","","","","","","","","","","",""
"","","plant-game","0","162","1410656","0-0","","200","180","4","CORN CROP","Right","200","120","4","NETTLE WEED","experimental","68","1,2,3,4","120,130.5020908713774,174.78223508858673,191.3784962756469","4,3,2,1","NETTLE WEED,NETTLE WEED,NETTLE WEED,NETTLE WEED","180,208.16502921941233,265.9559378751752,328.59702073747496","4,3,2,1","CORN CROP,CORN CROP,CORN CROP,CORN CROP","0,0,0,0","20,20,20,20","10,10,10,10","20,20,20,20","20,20,20,20","20,20,20,20","0,0,0,0","20,20,20,20","10,10,10,10","20,20,20,20","20,20,20,20","20,20,20,20","1,1,1,1","2107,994,74,100","10.502090871377384,44.28014421720934,16.59626118706018,19.140344675967114","28.165029219412332,57.79090865576287,62.64108286229973,58.87089476916829","0","0"
"506","86","text","0","163","1411322","0-0","","","","","","","","","","","","","","","","","","","","","","","","","","","","","","","","","","","","",""
"","","plant-game","0","164","1417302","0-0","","200","120","8","CORN CROP","Right","200","190","8","THISTLE WEED","experimental","69","1,2,3,4,5,6,7,8","190,136.2302744777055,135.68088423805727,142.47263608979867,170.18830072308901,172.57749208278335,202.41298491810795,218.10292770493885","8,7,6,5,4,3,2,1","THISTLE WEED,THISTLE WEED,THISTLE WEED,THISTLE WEED,THISTLE WEED,THISTLE WEED,THISTLE WEED,THISTLE WEED","120,170.9225894816296,170.12704317031555,168.30889971055495,183.19099820493054,220.56531657120473,241.95634529738834,203.9413352330619","8,7,6,5,4,3,2,1","CORN CROP,CORN CROP,CORN CROP,CORN CROP,CORN CROP,CORN CROP,CORN CROP,CORN CROP","0,0,0,0,0,0,0,0","20,20,20,20,20,20,20,20","10,10,10,10,10,10,10,10","20,20,20,20,20,20,20,20","20,20,20,20,20,20,20,20","20,20,20,20,20,20,20,20","0,0,0,0,0,0,0,0","20,20,20,20,20,20,20,20","10,10,10,10,10,10,10,10","20,20,20,20,20,20,20,20","20,20,20,20,20,20,20,20","20,20,20,20,20,20,20,20","1,0,0,0,1,1,0,0","769,21,113,116,10,138,581,296","-53.76972552229448,-0.5493902396482323,6.791751851741398,27.715664633290356,2.389191359694351,29.8354928353246,15.68994278683091,0.5678665355073188","50.9225894816296,-0.7955463113140488,-1.8181434597605906,14.882098494375594,37.37431836627418,21.391028726183595,-38.01501006432644,-9.71803030621021","0","0"
"1076","86","text","0","165","1418526","0-0","","","","","","","","","","","","","","","","","","","","","","","","","","","","","","","","","","","","",""
"","","plant-game","0","166","1423346","0-0","","200","180","1","CORN CROP","Right","200","160","1","NETTLE WEED","experimental","70","1","160","1","NETTLE WEED","180","1","CORN CROP","0","20","10","20","20","20","0","20","10","20","20","20","1","1494","12.107699705196888","15.138724081765943","0","0"
"429","86","text","0","167","1423975","0-0","","","","","","","","","","","","","","","","","","","","","","","","","","","","","","","","","","","","",""
"","","plant-game","0","168","1432940","0-0","","200","120","2","WHEAT CROP","Left","200","180","1","THISTLE WEED","experimental","71","1,2","120,123.34786770857214","2,1","WHEAT CROP,WHEAT CROP","180,190","1,1","THISTLE WEED,NETTLE WEED","20,20","20,20","10,10","20,20","0,0","20,20","20,20","20,20","10,10","20,20","0,0","20,20","0,1","244,2471","3.347867708572142,-2.970897882334595","18.599749545231777,12.71413448256812","0","0"
"816","86","text","0","169","1433946","0-0","","","","","","","","","","","","","","","","","","","","","","","","","","","","","","","","","","","","",""
"","","plant-game","0","170","1443182","0-0","","200","120","8","WHEAT CROP","Left","200","120","8","THISTLE WEED","experimental","72","1,2,3,4,5,6,7,8","120,154.22330784146698,144.85109484920946,139.5719568796128,147.71782354132318,143.9158112556516,191.63421186286376,197.16101901248","8,7,6,5,4,3,2,1","WHEAT CROP,WHEAT CROP,WHEAT CROP,WHEAT CROP,WHEAT CROP,WHEAT CROP,WHEAT CROP,WHEAT CROP","120,88.95185163312044,104.60202230153232,108.37410325816177,127.16892370622755,147.45749146022695,166.6311846085794,179.5376536400186","8,7,6,5,4,3,2,1","THISTLE WEED,THISTLE WEED,THISTLE WEED,THISTLE WEED,THISTLE WEED,THISTLE WEED,THISTLE WEED,THISTLE WEED","20,20,20,20,20,20,20,20","20,20,20,20,20,20,20,20","10,10,10,10,10,10,10,10","20,20,20,20,20,20,20,20","0,0,0,0,0,0,0,0","20,20,20,20,20,20,20,20","20,20,20,20,20,20,20,20","20,20,20,20,20,20,20,20","10,10,10,10,10,10,10,10","20,20,20,20,20,20,20,20","0,0,0,0,0,0,0,0","20,20,20,20,20,20,20,20","0,0,0,0,0,0,0,0","1135,592,501,458,481,392,837,434","34.22330784146699,-9.372212992257527,-5.279137969596654,8.145866661710382,-3.80201228567158,47.71840060721219,5.526807149616236,31.348949942597482","-31.048148366879566,15.650170668411876,3.772080956629445,18.794820448065778,20.288567753999402,19.17369314835243,12.90646903143921,10.775053730518295","0","0"
"478","86","text","0","171","1443810","0-0","","","","","","","","","","","","","","","","","","","","","","","","","","","","","","","","","","","","",""
"","","plant-game","0","172","1449731","0-0","","200","160","4","CORN CROP","Right","200","180","4","NETTLE WEED","experimental","73","1,2,3,4","180,184.37441254368946,183.91621602644437,215.55171440106096","4,3,2,1","NETTLE WEED,NETTLE WEED,NETTLE WEED,NETTLE WEED","160,127.24752271273657,128.34306101512863,144.67182251861587","4,3,2,1","CORN CROP,CORN CROP,CORN CROP,CORN CROP","0,0,0,0","20,20,20,20","10,10,10,10","20,20,20,20","20,20,20,20","20,20,20,20","0,0,0,0","20,20,20,20","10,10,10,10","20,20,20,20","20,20,20,20","20,20,20,20","0,0,0,0","910,468,567,610","4.374412543689447,-0.45819651724507526,31.635498374616592,-6.050247423376729","-32.75247728726343,1.0955383023920446,16.328761503487232,-13.680018426547399","0","0"
"441","86","text","0","173","1450432","0-0","","","","","","","","","","","","","","","","","","","","","","","","","","","","","","","","","","","","",""
"","","plant-game","0","174","1462454","0-0","","200","190","2","WHEAT CROP","Right","200","160","1","NETTLE WEED","experimental","74","1,2","160,190","1,1","NETTLE WEED,THISTLE WEED","190,213.33317870367227","2,1","WHEAT CROP,WHEAT CROP","0,0","20,20","10,10","20,20","20,20","20,20","0,0","20,20","10,10","20,20","20,20","20,20","1,0","3432,2377","19.258539639607317,-21.5231623200216","23.33317870367227,27.15112968978608","0","0"
"452","86","text","0","175","1463094","0-0","","","","","","","","","","","","","","","","","","","","","","","","","","","","","","","","","","","","",""
"","","plant-game","0","176","1479192","0-0","","200","180","4","CORN CROP","Right","200","120","8","THISTLE WEED","experimental","75","1,2,3,4,5,6,7,8","120,127.7590735279846,176.55248682530237,199.0158421852371,226.6554044134549,232.8526971096021,250.37788879666834,223.78823786846039","8,7,6,5,4,3,2,1","THISTLE WEED,THISTLE WEED,THISTLE WEED,THISTLE WEED,THISTLE WEED,THISTLE WEED,THISTLE WEED,THISTLE WEED","180,202.30655391778777,201.6635052670529,163.13614182684412,160,172.924374663272,172.76394707729406,198.64802987906458","4,3,2,1,4,3,2,1","CORN CROP,CORN CROP,CORN CROP,CORN CROP,WHEAT CROP,WHEAT CROP,WHEAT CROP,WHEAT CROP","0,0,0,0,0,0,0,0","20,20,20,20,20,20,20,20","10,10,10,10,10,10,10,10","20,20,20,20,20,20,20,20","20,20,20,20,20,20,20,20","20,20,20,20,20,20,20,20","0,0,0,0,0,0,0,0","20,20,20,20,20,20,20,20","10,10,10,10,10,10,10,10","20,20,20,20,20,20,20,20","20,20,20,20,20,20,20,20","20,20,20,20,20,20,20,20","1,1,0,0,1,1,1,1","5018,265,1105,387,1379,320,377,335","7.759073527984597,48.793413297317784,22.46335535993473,27.63956222821781,6.197292696147198,17.525191687066254,-26.58965092820796,2.2261456044014096","22.306553917787774,-0.6430486507348654,-38.527363440208774,-1.183356145034126,12.924374663271994,-0.16042758597794915,25.88408280177053,15.498239105718248","0","0"
"513","86","text","0","177","1479865","0-0","","","","","","","","","","","","","","","","","","","","","","","","","","","","","","","","","","","","",""
"","","plant-game","0","178","1490019","0-0","","200","160","8","WHEAT CROP","Right","200","180","1","THISTLE WEED","experimental","76","1,2,3,4,5,6,7,8","180,130,124.58128996048598,139.4316729109932,123.31600383810476,130.58356418499355,116.82568579467433,103.3942127146468","1,7,6,5,4,3,2,1","THISTLE WEED,NETTLE WEED,NETTLE WEED,NETTLE WEED,NETTLE WEED,NETTLE WEED,NETTLE WEED,NETTLE WEED","160,207.28018693415737,205.5061860921038,198.2562912603876,246.19202120311624,232.27508609869395,259.10879465664425,233.09752056085733","8,7,6,5,4,3,2,1","WHEAT CROP,WHEAT CROP,WHEAT CROP,WHEAT CROP,WHEAT CROP,WHEAT CROP,WHEAT CROP,WHEAT CROP","0,0,0,0,0,0,0,0","20,20,20,20,20,20,20,20","10,10,10,10,10,10,10,10","20,20,20,20,20,20,20,20","20,20,20,20,20,20,20,20","20,20,20,20,20,20,20,20","0,0,0,0,0,0,0,0","20,20,20,20,20,20,20,20","10,10,10,10,10,10,10,10","20,20,20,20,20,20,20,20","20,20,20,20,20,20,20,20","20,20,20,20,20,20,20,20","1,0,0,0,0,0,0,0","582,955,464,396,484,460,305,344","33.21190237219872,-5.418710039514025,14.850382950507239,-16.115669072888434,7.267560346888793,-13.75787839031922,-13.431473080027533,0.6716611957124407","47.28018693415738,-1.77400084205357,-7.249894831716216,47.935729942728635,-13.916935104422306,26.833708557950295,-26.01127409578691,4.731589408385447","0","0"
"468","86","text","0","179","1490677","0-0","","","","","","","","","","","","","","","","","","","","","","","","","","","","","","","","","","","","",""
"","","plant-game","0","180","1502277","0-0","","200","180","8","CORN CROP","Right","200","180","2","NETTLE WEED","experimental","77","1,2,3,4,5,6,7,8","180,228.057142323892,140,152.43595968520586,181.2949626607059,208.45621906059105,193.98751569504972,186.13132028034707","2,1,6,5,4,3,2,1","NETTLE WEED,NETTLE WEED,THISTLE WEED,THISTLE WEED,THISTLE WEED,THISTLE WEED,THISTLE WEED,THISTLE WEED","180,212.57312981451597,240.3594751625975,255.20758833101138,267.2997963797432,270.0306419930083,267.0572333931039,267.0279737683577","8,7,6,5,4,3,2,1","CORN CROP,CORN CROP,CORN CROP,CORN CROP,CORN CROP,CORN CROP,CORN CROP,CORN CROP","0,0,0,0,0,0,0,0","20,20,20,20,20,20,20,20","10,10,10,10,10,10,10,10","20,20,20,20,20,20,20,20","20,20,20,20,20,20,20,20","20,20,20,20,20,20,20,20","0,0,0,0,0,0,0,0","20,20,20,20,20,20,20,20","10,10,10,10,10,10,10,10","20,20,20,20,20,20,20,20","20,20,20,20,20,20,20,20","20,20,20,20,20,20,20,20","1,1,1,1,1,0,0,0","2102,969,445,70,306,181,277,340","48.057142323892,33.57884774940966,12.43595968520587,28.859002975500047,27.16125639988515,-14.468703365541325,-7.856195414702647,-6.464351157601641","32.573129814515966,27.786345348081554,14.848113168413876,12.092208048731855,2.7308456132651244,-2.9734085999044075,-0.02925962474620785,-28.91977945282768","0","0"
"433","86","text","0","181","1502866","0-0","","","","","","","","","","","","","","","","","","","","","","","","","","","","","","","","","","","","",""
"","","plant-game","0","182","1508938","0-0","","200","160","1","CORN CROP","Right","200","160","2","NETTLE WEED","experimental","78","1,2","160,146.78627519781017","2,1","NETTLE WEED,NETTLE WEED","160,190","1,1","CORN CROP,WHEAT CROP","0,0","20,20","10,10","20,20","20,20","20,20","0,0","20,20","10,10","20,20","20,20","20,20","0,0","678,101","-13.213724802189839,-14.34241253337224","12.691536839629975,-2.2812335684153537","0","0"
"129","86","text","0","183","1509257","0-0","","","","","","","","","","","","","","","","","","","","","","","","","","","","","","","","","","","","",""
"","","plant-game","0","184","1515117","0-0","","200","180","1","CORN CROP","Left","200","190","1","THISTLE WEED","experimental","79","1","180","1","CORN CROP","190","1","THISTLE WEED","20","20","10","20","0","20","20","20","10","20","0","20","0","2374","6.166045545590693","30.61625106382536","0","0"
"254","86","text","0","185","1515541","0-0","","","","","","","","","","","","","","","","","","","","","","","","","","","","","","","","","","","","",""
"","","plant-game","0","186","1521010","0-0","","200","180","2","CORN CROP","Right","200","120","2","THISTLE WEED","experimental","80","1,2","120,111.84193196167381","2,1","THISTLE WEED,THISTLE WEED","180,195.79458102160768","2,1","CORN CROP,CORN CROP","0,0","20,20","10,10","20,20","20,20","20,20","0,0","20,20","10,10","20,20","20,20","20,20","1,1","2275,151","-8.158068038326189,16.05698914734599","15.794581021607671,17.26249819005146","0","0"
"1774","86","text","0","187","1522921","0-0","","","","","","","","","","","","","","","","","","","","","","","","","","","","","","","","","","","","",""
"","","plant-game","0","188","1530715","0-0","","200","120","2","CORN CROP","Left","200","120","1","NETTLE WEED","experimental","81","1,2","120,99.38774555506032","2,1","CORN CROP,CORN CROP","120,190","1,1","NETTLE WEED,THISTLE WEED","20,20","20,20","10,10","20,20","0,0","20,20","20,20","20,20","10,10","20,20","0,0","20,20","1,1","905,1967","-20.612254444939687,-8.306718245489463","-3.3996523635099414,-37.98518313425443","0","0"
"55","86","text","0","189","1530890","0-0","","","","","","","","","","","","","","","","","","","","","","","","","","","","","","","","","","","","",""
"","","plant-game","0","190","1542424","0-0","","200","160","4","CORN CROP","Right","200","180","8","NETTLE WEED","experimental","82","1,2,3,4,5,6,7,8","180,212.52121144483885,205.40370692395015,230.40184911721235,188.34737376266395,211.87630742632723,212.53597296203267,226.9291421516037","8,7,6,5,4,3,2,1","NETTLE WEED,NETTLE WEED,NETTLE WEED,NETTLE WEED,NETTLE WEED,NETTLE WEED,NETTLE WEED,NETTLE WEED","160,171.41650945362514,188.75175330983316,194.64481591475018,160,166.09337049759387,172.22538115289538,186.74775436207264","4,3,2,1,4,3,2,1","CORN CROP,CORN CROP,CORN CROP,CORN CROP,WHEAT CROP,WHEAT CROP,WHEAT CROP,WHEAT CROP","0,0,0,0,0,0,0,0","20,20,20,20,20,20,20,20","10,10,10,10,10,10,10,10","20,20,20,20,20,20,20,20","20,20,20,20,20,20,20,20","20,20,20,20,20,20,20,20","0,0,0,0,0,0,0,0","20,20,20,20,20,20,20,20","10,10,10,10,10,10,10,10","20,20,20,20,20,20,20,20","20,20,20,20,20,20,20,20","20,20,20,20,20,20,20,20","0,0,0,0,1,1,1,1","3262,1607,489,362,795,51,46,49","32.52121144483886,-7.117504520888694,24.99814219326219,-42.054475354548416,23.52893366366329,0.6596655357054431,14.39316918957104,30.584913958510715","11.41650945362515,17.335243856208034,5.893062604917027,38.184690125786894,6.093370497593861,6.13201065530151,14.522373209177267,-20.63590466447131","0","0"
"79","86","text","0","191","1542623","0-0","","","","","","","","","","","","","","","","","","","","","","","","","","","","","","","","","","","","",""
"","","plant-game","0","192","1556894","0-0","","200","120","8","CORN CROP","Left","200","190","1","THISTLE WEED","experimental","83","1,2,3,4,5,6,7,8","120,90.38591770950265,101.51222686645545,110.57010894745046,105.76489443357737,87.88769923961951,110.15036541084572,118.23422279555429","8,7,6,5,4,3,2,1","CORN CROP,CORN CROP,CORN CROP,CORN CROP,CORN CROP,CORN CROP,CORN CROP,CORN CROP","190,130,160.81505873623433,166.70602962439847,183.79690868619224,204.9786794966065,199.59045980931404,201.26549942754954","1,7,6,5,4,3,2,1","THISTLE WEED,NETTLE WEED,NETTLE WEED,NETTLE WEED,NETTLE WEED,NETTLE WEED,NETTLE WEED,NETTLE WEED","20,20,20,20,20,20,20,20","20,20,20,20,20,20,20,20","10,10,10,10,10,10,10,10","20,20,20,20,20,20,20,20","0,0,0,0,0,0,0,0","20,20,20,20,20,20,20,20","20,20,20,20,20,20,20,20","20,20,20,20,20,20,20,20","10,10,10,10,10,10,10,10","20,20,20,20,20,20,20,20","0,0,0,0,0,0,0,0","20,20,20,20,20,20,20,20","1,0,0,0,1,1,1,1","2683,1673,419,548,442,509,425,446","-29.614082290497358,11.1263091569528,9.057882080995011,-4.805214513873096,-17.87719519395786,22.262666171226215,8.083857384708567,-3.5085611181286835","-15.453970737339844,30.815058736234338,5.890970888164135,17.090879061793785,21.181770810414253,-5.388219687292476,1.6750396182355116,-23.151151320652687","0","0"
"1836","86","text","0","193","1558850","0-0","","","","","","","","","","","","","","","","","","","","","","","","","","","","","","","","","","","","",""
"","","plant-game","0","194","1567210","0-0","","200","190","4","CORN CROP","Right","200","160","1","NETTLE WEED","experimental","84","1,2,3,4","160,170,212.4443265347118,212.2044458670273","1,3,2,1","NETTLE WEED,THISTLE WEED,THISTLE WEED,THISTLE WEED","190,189.208976246737,188.51288947068832,208.79823340563587","4,3,2,1","CORN CROP,CORN CROP,CORN CROP,CORN CROP","0,0,0,0","20,20,20,20","10,10,10,10","20,20,20,20","20,20,20,20","20,20,20,20","0,0,0,0","20,20,20,20","10,10,10,10","20,20,20,20","20,20,20,20","20,20,20,20","0,1,0,0","707,1659,500,599","18.6386268221229,42.44432653471179,-0.23988066768450803,-3.1103691338271817","-0.7910237532629972,-0.6960867760486664,20.285343934947548,3.401577781975103","0","0"
"80","86","text","0","195","1567450","0-0","","","","","","","","","","","","","","","","","","","","","","","","","","","","","","","","","","","","",""
"","","plant-game","0","196","1574400","0-0","","200","190","2","CORN CROP","Right","200","180","4","THISTLE WEED","experimental","85","1,2,3,4","180,182.00145753956298,199.81756856546883,202.6641941841682","4,3,2,1","THISTLE WEED,THISTLE WEED,THISTLE WEED,THISTLE WEED","190,229.57578188966312,180,197.49610473086778","2,1,2,1","CORN CROP,CORN CROP,WHEAT CROP,WHEAT CROP","0,0,0,0","20,20,20,20","10,10,10,10","20,20,20,20","20,20,20,20","20,20,20,20","0,0,0,0","20,20,20,20","10,10,10,10","20,20,20,20","20,20,20,20","20,20,20,20","0,0,1,1","759,103,336,105","2.0014575395629692,17.81611102590585,2.8466256186993597,-7.47901059327074","39.575781889663126,41.303162329683005,17.496104730867785,26.000218409565754","0","0"
"631","86","text","0","197","1575271","0-0","","","","","","","","","","","","","","","","","","","","","","","","","","","","","","","","","","","","",""
"","","plant-game","0","198","1584777","0-0","","200","180","4","CORN CROP","Right","200","120","1","THISTLE WEED","experimental","86","1,2,3,4","120,170,153.44254595844043,207.49313131702988","1,3,2,1","THISTLE WEED,NETTLE WEED,NETTLE WEED,NETTLE WEED","180,182.28536132595002,171.59231650758304,163.50877325880546","4,3,2,1","CORN CROP,CORN CROP,CORN CROP,CORN CROP","0,0,0,0","20,20,20,20","10,10,10,10","20,20,20,20","20,20,20,20","20,20,20,20","0,0,0,0","20,20,20,20","10,10,10,10","20,20,20,20","20,20,20,20","20,20,20,20","0,0,1,1","2101,1439,845,173","-7.872575859179931,-16.557454041559563,54.050585358589444,9.529747573761579","2.2853613259500145,-10.693044818366984,-8.083543248777573,0.38759466883910676","0","0"
"519","86","text","0","199","1585466","0-0","","","","","","","","","","","","","","","","","","","","","","","","","","","","","","","","","","","","",""
"","","plant-game","0","200","1591042","0-0","","200","190","2","CORN CROP","Right","200","160","2","THISTLE WEED","experimental","87","1,2","160,174.0469267261397","2,1","THISTLE WEED,THISTLE WEED","190,179.48917998057715","2,1","CORN CROP,CORN CROP","0,0","20,20","10,10","20,20","20,20","20,20","0,0","20,20","10,10","20,20","20,20","20,20","0,0","2165,163","14.046926726139715,14.538882978298576","-10.510820019422837,-18.704229729008297","0","0"
"474","86","text","0","201","1591686","0-0","","","","","","","","","","","","","","","","","","","","","","","","","","","","","","","","","","","","",""
"","","plant-game","0","202","1602801","0-0","","200","180","1","CORN CROP","Left","200","160","2","THISTLE WEED","experimental","88","1,2","180,190","1,1","CORN CROP,WHEAT CROP","160,152.63266465606395","2,1","THISTLE WEED,THISTLE WEED","20,20","20,20","10,10","20,20","0,0","20,20","20,20","20,20","10,10","20,20","0,0","20,20","1,0","2510,1987","-14.742454339297153,52.80967252812446","-7.36733534393604,38.953803771143065","0","0"
"4089","86","text","0","203","1607030","0-0","","","","","","","","","","","","","","","","","","","","","","","","","","","","","","","","","","","","",""
