"rt","key_press","trial_type","trial_index","trial_index_global","time_elapsed","internal_chunk_id","responses","experimental_goal_height","experimental_start_height","experimental_weeks_total","experimental_crop_type","experimental_crop_side","fixed_goal_height","fixed_start_height","fixed_weeks_total","fixed_crop_type","trial_kind","trial_number","stage","left_current_height","left_weeks_remaining","left_crop_type","right_current_height","right_weeks_remaining","right_crop_type","mean_left_growth_given_left","sd_left_growth_given_left","mean_left_growth_given_middle","sd_left_growth_given_middle","mean_left_growth_given_right","sd_left_growth_given_right","mean_right_growth_given_left","sd_right_growth_given_left","mean_right_growth_given_middle","sd_right_growth_given_middle","mean_right_growth_given_right","sd_right_growth_given_right","response","response_time","left_growth","right_growth","other_key_pressed","mouse_clicked"
"7659072","87","text","0","0","7659216","0-0","","","","","","","","","","","","","","","","","","","","","","","","","","","","","","","","","","","","",""
"4432","","survey-text","0","1","7664690","0-0","{""Q0"":""18""}","","","","","","","","","","","","","","","","","","","","","","","","","","","","","","","","","","","",""
"6906","86","text","0","2","7062","0-0","","","","","","","","","","","","","","","","","","","","","","","","","","","","","","","","","","","","",""
"","","plant-game","0","3","112030","0-0","","200","120","8","WHEAT CROP","Left","200","120","8","THISTLE WEED","practice","1","1,2,3,4,5,6,7,8","120,119.04362359642516,149.6888585323334,160.988678366848,177.63233767133323,199.03439601913115,209.9788758560717,209.23190513058282","8,7,6,5,4,3,2,1","WHEAT CROP,WHEAT CROP,WHEAT CROP,WHEAT CROP,WHEAT CROP,WHEAT CROP,WHEAT CROP,WHEAT CROP","120,131.39187950385679,173.92473421415184,165.4035513391972,155.1579613805819,171.11620391469503,151.17718772892377,130.09833500827324","8,7,6,5,4,3,2,1","THISTLE WEED,THISTLE WEED,THISTLE WEED,THISTLE WEED,THISTLE WEED,THISTLE WEED,THISTLE WEED,THISTLE WEED","20,20,20,20,20,20,20,20","20,20,20,20,20,20,20,20","10,10,10,10,10,10,10,10","20,20,20,20,20,20,20,20","0,0,0,0,0,0,0,0","20,20,20,20,20,20,20,20","20,20,20,20,20,20,20,20","20,20,20,20,20,20,20,20","10,10,10,10,10,10,10,10","20,20,20,20,20,20,20,20","0,0,0,0,0,0,0,0","20,20,20,20,20,20,20,20","1,0,1,1,1,1,1,0","25176,22136,3252,3429,1309,1283,5348,4091","-0.9563764035748313,30.64523493590824,11.299819834514611,16.643659304485237,21.40205834779791,10.944479836940559,-0.7469707254888879,45.9212448203315","11.391879503856776,42.53285471029504,-8.521182874954631,-10.245589958615309,15.958242534113145,-19.939016185771266,-21.078852720650545,36.650134623018296","0","0"
"2327","86","text","0","4","114529","0-0","","","","","","","","","","","","","","","","","","","","","","","","","","","","","","","","","","","","",""
"","","plant-game","0","5","167886","0-0","","200","160","4","CORN CROP","Left","200","160","4","THISTLE WEED","practice","2","1,2,3,4","160,187.86582333917238,215.2787336783071,238.12760541516545","4,3,2,1","CORN CROP,CORN CROP,CORN CROP,CORN CROP","160,181.18616552687328,195.33195908425338,186.98164282610395","4,3,2,1","THISTLE WEED,THISTLE WEED,THISTLE WEED,THISTLE WEED","20,20,20,20","20,20,20,20","10,10,10,10","20,20,20,20","0,0,0,0","20,20,20,20","20,20,20,20","20,20,20,20","10,10,10,10","20,20,20,20","0,0,0,0","20,20,20,20","1,0,1,1","25260,2814,3783,1194","27.865823339172373,27.41291033913471,22.84887173685835,26.038823020411435","21.18616552687328,14.145793557380106,-8.350316258149428,16.687311684508398","0","0"
"1385","86","text","0","6","169401","0-0","","","","","","","","","","","","","","","","","","","","","","","","","","","","","","","","","","","","",""
"","","plant-game","0","7","198749","0-0","","200","180","2","WHEAT CROP","Left","200","180","2","NETTLE WEED","practice","3","1,2","180,213.0590752742001","2,1","WHEAT CROP,WHEAT CROP","180,218.37513116233188","2,1","NETTLE WEED,NETTLE WEED","20,20","20,20","10,10","20,20","0,0","20,20","20,20","20,20","10,10","20,20","0,0","20,20","1,0","12219,4092","33.059075274200104,19.550211968474574","38.37513116233189,3.6241093968993674","0","0"
"1072","86","text","0","8","199951","0-0","","","","","","","","","","","","","","","","","","","","","","","","","","","","","","","","","","","","",""
"","","plant-game","0","9","226536","0-0","","200","190","1","CORN CROP","Right","200","190","1","NETTLE WEED","practice","4","1","190","1","NETTLE WEED","190","1","CORN CROP","0","20","10","20","20","20","0","20","10","20","20","20","0","14373","15.339803718614851","4.643922516723809","0","0"
"572","86","text","0","10","227288","0-0","","","","","","","","","","","","","","","","","","","","","","","","","","","","","","","","","","","","",""
"","","plant-game","0","11","262796","0-0","","200","120","8","WHEAT CROP","Left","200","160","8","NETTLE WEED","practice","5","1,2,3,4,5,6,7,8","120,103.72983356291509,116.86424006509806,146.27832789505283,184.13948508017745,190.8047394217428,209.29379330750658,268.4741939651384","8,7,6,5,4,3,2,1","WHEAT CROP,WHEAT CROP,WHEAT CROP,WHEAT CROP,WHEAT CROP,WHEAT CROP,WHEAT CROP,WHEAT CROP","160,183.97213790727994,204.56158920445026,222.17529374826861,228.34758074169338,272.35146271422013,299.13328369837996,319.93635969277045","8,7,6,5,4,3,2,1","NETTLE WEED,NETTLE WEED,NETTLE WEED,NETTLE WEED,NETTLE WEED,NETTLE WEED,NETTLE WEED,NETTLE WEED","20,20,20,20,20,20,20,20","20,20,20,20,20,20,20,20","10,10,10,10,10,10,10,10","20,20,20,20,20,20,20,20","0,0,0,0,0,0,0,0","20,20,20,20,20,20,20,20","20,20,20,20,20,20,20,20","20,20,20,20,20,20,20,20","10,10,10,10,10,10,10,10","20,20,20,20,20,20,20,20","0,0,0,0,0,0,0,0","20,20,20,20,20,20,20,20","1,0,0,0,0,0,0,1","14757,1813,3131,1013,422,473,2740,1334","-16.270166437084907,13.13440650218297,29.41408782995478,37.86115718512464,6.665254341565346,18.489053885763767,59.180400657631814,2.714323787565614","23.972137907279958,20.589451297170314,17.613704543818365,6.172286993424764,44.00388197252676,26.781820984159815,20.803075994390525,11.94423530146683","0","0"
"1499","86","text","0","12","264425","0-0","","","","","","","","","","","","","","","","","","","","","","","","","","","","","","","","","","","","",""
"","","plant-game","0","13","319517","0-0","","200","180","4","WHEAT CROP","Right","200","160","4","THISTLE WEED","practice","6","1,2,3,4","160,174.3144591673776,191.48563599203885,196.22011637780977","4,3,2,1","THISTLE WEED,THISTLE WEED,THISTLE WEED,THISTLE WEED","180,188.2163493597061,226.50063629270164,233.9150703168202","4,3,2,1","WHEAT CROP,WHEAT CROP,WHEAT CROP,WHEAT CROP","0,0,0,0","20,20,20,20","10,10,10,10","20,20,20,20","20,20,20,20","20,20,20,20","0,0,0,0","20,20,20,20","10,10,10,10","20,20,20,20","20,20,20,20","20,20,20,20","1,0,1,0","40864,2980,2302,1443","14.314459167377596,17.17117682466124,4.734480385770921,4.093555936468012","8.2163493597061,38.28428693299554,7.414434024118545,-11.58419959764265","0","0"
"904","86","text","0","14","320567","0-0","","","","","","","","","","","","","","","","","","","","","","","","","","","","","","","","","","","","",""
"","","plant-game","0","15","348951","0-0","","200","180","2","CORN CROP","Left","200","190","2","NETTLE WEED","practice","7","1,2","180,179.74446646764005","2,1","CORN CROP,CORN CROP","190,193.93380018173315","2,1","NETTLE WEED,NETTLE WEED","20,20","20,20","10,10","20,20","0,0","20,20","20,20","20,20","10,10","20,20","0,0","20,20","1,1","15397,1524","-0.2555335323599358,2.724256318314486","3.933800181733154,12.80511995023222","0","0"
"557","86","text","0","16","349668","0-0","","","","","","","","","","","","","","","","","","","","","","","","","","","","","","","","","","","","",""
"","","plant-game","0","17","423985","0-0","","200","120","4","WHEAT CROP","Left","200","120","8","NETTLE WEED","practice","8","1,2,3,4,5,6,7,8","120,126.18320516132971,187.56423716102293,222.30729016796658,160,154.90536565229593,176.41610239688077,185.34082737613667","4,3,2,1,4,3,2,1","WHEAT CROP,WHEAT CROP,WHEAT CROP,WHEAT CROP,CORN CROP,CORN CROP,CORN CROP,CORN CROP","120,110.96124395184137,153.5399221782883,140.84259329180398,156.14928160620747,169.4832327204598,183.48371330297502,167.0753824033687","8,7,6,5,4,3,2,1","NETTLE WEED,NETTLE WEED,NETTLE WEED,NETTLE WEED,NETTLE WEED,NETTLE WEED,NETTLE WEED,NETTLE WEED","20,20,20,20,20,20,20,20","20,20,20,20,20,20,20,20","10,10,10,10,10,10,10,10","20,20,20,20,20,20,20,20","0,0,0,0,0,0,0,0","20,20,20,20,20,20,20,20","20,20,20,20,20,20,20,20","20,20,20,20,20,20,20,20","10,10,10,10,10,10,10,10","20,20,20,20,20,20,20,20","0,0,0,0,0,0,0,0","20,20,20,20,20,20,20,20","0,0,0,0,1,0,0,0","10925,2441,2036,640,21676,1710,3626,1981","6.183205161329715,61.381031999693214,34.74305300694366,32.344198443205784,-5.0946343477040585,21.51073674458486,8.924724979255888,17.369156049688588","-9.038756048158628,42.57867822644691,-12.697328886484307,15.306688314403484,13.333951114252315,14.00048058251523,-16.40833089960632,12.846749796665465","0","0"
"894","86","text","0","18","425029","0-0","","","","","","","","","","","","","","","","","","","","","","","","","","","","","","","","","","","","",""
"","","plant-game","0","19","488808","0-0","","200","160","4","WHEAT CROP","Right","200","160","2","THISTLE WEED","practice","9","1,2,3,4","160,134.37725979150014,180,176.00499101852142","2,1,2,1","THISTLE WEED,THISTLE WEED,NETTLE WEED,NETTLE WEED","160,149.91039408853305,149.7264240660859,125.58437146865668","4,3,2,1","WHEAT CROP,WHEAT CROP,WHEAT CROP,WHEAT CROP","0,0,0,0","20,20,20,20","10,10,10,10","20,20,20,20","20,20,20,20","20,20,20,20","0,0,0,0","20,20,20,20","10,10,10,10","20,20,20,20","20,20,20,20","20,20,20,20","1,0,0,0","16971,2093,7579,8256","-25.62274020849987,43.97052021548728,-3.9950089814785694,-28.16211758615769","-10.089605911466961,-0.1839700224471412,-24.142052597429227,13.661057145537887","0","0"
"645","86","text","0","20","489656","0-0","","","","","","","","","","","","","","","","","","","","","","","","","","","","","","","","","","","","",""
"","","plant-game","0","21","526527","0-0","","200","180","2","CORN CROP","Left","200","180","1","NETTLE WEED","practice","10","1,2","180,180.88870534936555","2,1","CORN CROP,CORN CROP","180,190","1,1","NETTLE WEED,THISTLE WEED","20,20","20,20","10,10","20,20","0,0","20,20","20,20","20,20","10,10","20,20","0,0","20,20","1,1","8384,13844","0.8887053493655462,-32.72760435044636","20.45117519675465,4.6177539961905945","0","0"
"604","86","text","0","22","527350","0-0","","","","","","","","","","","","","","","","","","","","","","","","","","","","","","","","","","","","",""
"","","plant-game","0","23","581067","0-0","","200","120","8","WHEAT CROP","Left","200","160","4","THISTLE WEED","practice","11","1,2,3,4,5,6,7,8","120,147.3112659361738,160.62330881195084,181.28923548635316,232.37500820622967,246.4412458143837,256.1322612948894,276.5749015891788","8,7,6,5,4,3,2,1","WHEAT CROP,WHEAT CROP,WHEAT CROP,WHEAT CROP,WHEAT CROP,WHEAT CROP,WHEAT CROP,WHEAT CROP","160,189.8786219731458,191.4969124326801,218.05255850651525,160,241.69465067310392,266.7500731172942,245.9622424953682","4,3,2,1,4,3,2,1","THISTLE WEED,THISTLE WEED,THISTLE WEED,THISTLE WEED,NETTLE WEED,NETTLE WEED,NETTLE WEED,NETTLE WEED","20,20,20,20,20,20,20,20","20,20,20,20,20,20,20,20","10,10,10,10,10,10,10,10","20,20,20,20,20,20,20,20","0,0,0,0,0,0,0,0","20,20,20,20,20,20,20,20","20,20,20,20,20,20,20,20","20,20,20,20,20,20,20,20","10,10,10,10,10,10,10,10","20,20,20,20,20,20,20,20","0,0,0,0,0,0,0,0","20,20,20,20,20,20,20,20","1,0,0,0,0,0,1,1","11261,1579,1143,5558,4251,6256,2879,1311","27.311265936173804,13.312042875777035,20.665926674402332,51.085772719876516,14.066237608154053,9.691015480505701,20.442640294289408,7.254814305044316","29.878621973145822,1.6182904595342755,26.555646073835177,15.953869583895624,81.69465067310394,25.055422444190274,-20.78783062192601,19.81583596285542","0","0"
"573","86","text","0","24","581831","0-0","","","","","","","","","","","","","","","","","","","","","","","","","","","","","","","","","","","","",""
"","","plant-game","0","25","613462","0-0","","200","180","2","WHEAT CROP","Right","200","160","4","NETTLE WEED","practice","12","1,2,3,4","160,183.60383190556655,215.13499423112265,240.9353139124475","4,3,2,1","NETTLE WEED,NETTLE WEED,NETTLE WEED,NETTLE WEED","180,224.62682739827994,180,183.38628534404359","2,1,2,1","WHEAT CROP,WHEAT CROP,CORN CROP,CORN CROP","0,0,0,0","20,20,20,20","10,10,10,10","20,20,20,20","20,20,20,20","20,20,20,20","0,0,0,0","20,20,20,20","10,10,10,10","20,20,20,20","20,20,20,20","20,20,20,20","1,0,0,1","7451,3217,5336,1282","23.603831905566558,31.531162325556103,25.80031968132486,-6.826655301965047","44.62682739827993,6.751605129893717,3.386285344043583,52.8770464070559","0","0"
"2559","86","text","0","26","616171","0-0","","","","","","","","","","","","","","","","","","","","","","","","","","","","","","","","","","","","",""
"12517","86","text","0","27","629904","0-0","","","","","","","","","","","","","","","","","","","","","","","","","","","","","","","","","","","","",""
"","","plant-game","0","28","650647","0-0","","200","180","4","WHEAT CROP","Right","200","160","4","NETTLE WEED","experimental","1","1,2,3,4","160,165.2625473875395,174.59518142823757,160.71437927693216","4,3,2,1","NETTLE WEED,NETTLE WEED,NETTLE WEED,NETTLE WEED","180,197.50393573512804,208.2912616432608,212.9311087611128","4,3,2,1","WHEAT CROP,WHEAT CROP,WHEAT CROP,WHEAT CROP","0,0,0,0","20,20,20,20","10,10,10,10","20,20,20,20","20,20,20,20","20,20,20,20","0,0,0,0","20,20,20,20","10,10,10,10","20,20,20,20","20,20,20,20","20,20,20,20","0,0,0,0","6933,3666,2715,1584","5.262547387539503,9.332634040698052,-13.88080215130541,6.234814854636415","17.50393573512803,10.787325908132777,4.639847117851976,11.808979812794052","0","0"
"888","86","text","0","29","651685","0-0","","","","","","","","","","","","","","","","","","","","","","","","","","","","","","","","","","","","",""
"","","plant-game","0","30","681607","0-0","","200","180","2","WHEAT CROP","Left","200","190","1","NETTLE WEED","experimental","2","1,2","180,196.32366033544247","2,1","WHEAT CROP,WHEAT CROP","190,190","1,1","NETTLE WEED,THISTLE WEED","20,20","20,20","10,10","20,20","0,0","20,20","20,20","20,20","10,10","20,20","0,0","20,20","1,1","9713,9357","16.32366033544247,26.612500811018037","-43.05881154022312,11.22612271227618","0","0"
"689","86","text","0","31","682518","0-0","","","","","","","","","","","","","","","","","","","","","","","","","","","","","","","","","","","","",""
"","","plant-game","0","32","736067","0-0","","200","120","1","WHEAT CROP","Left","200","120","8","THISTLE WEED","experimental","3","1,2,3,4,5,6,7,8","120,130,165.5505250895808,157.9366711321871,155.8441024854674,177.66220805612764,189.84433938221613,242.77561812493897","1,7,6,5,4,3,2,1","WHEAT CROP,CORN CROP,CORN CROP,CORN CROP,CORN CROP,CORN CROP,CORN CROP,CORN CROP","120,113.01298625654466,165.64131822015395,173.24128470204656,187.76671572156934,212.75536649129938,236.24291363132548,248.5560186300893","8,7,6,5,4,3,2,1","THISTLE WEED,THISTLE WEED,THISTLE WEED,THISTLE WEED,THISTLE WEED,THISTLE WEED,THISTLE WEED,THISTLE WEED","20,20,20,20,20,20,20,20","20,20,20,20,20,20,20,20","10,10,10,10,10,10,10,10","20,20,20,20,20,20,20,20","0,0,0,0,0,0,0,0","20,20,20,20,20,20,20,20","20,20,20,20,20,20,20,20","20,20,20,20,20,20,20,20","10,10,10,10,10,10,10,10","20,20,20,20,20,20,20,20","0,0,0,0,0,0,0,0","20,20,20,20,20,20,20,20","1,0,0,1,0,0,0,0","16960,10179,3161,2261,1100,819,723,7657","-5.844992169591999,35.55052508958079,-7.613853957393712,-2.0925686467196822,21.818105570660233,12.1821313260885,52.931278742722846,-12.34526453477563","-6.98701374345534,52.628331963609284,7.599966481892608,14.525431019522781,24.98865076973004,23.487547140026088,12.31310499876384,33.99856886562635","0","0"
"636","86","text","0","33","736863","0-0","","","","","","","","","","","","","","","","","","","","","","","","","","","","","","","","","","","","",""
"","","plant-game","0","34","767177","0-0","","200","160","4","WHEAT CROP","Right","200","120","1","THISTLE WEED","experimental","4","1,2,3,4","120,170,178.12782368341485,197.41167930415403","1,3,2,1","THISTLE WEED,NETTLE WEED,NETTLE WEED,NETTLE WEED","160,185.05738343142264,194.852208353976,167.92283214227953","4,3,2,1","WHEAT CROP,WHEAT CROP,WHEAT CROP,WHEAT CROP","0,0,0,0","20,20,20,20","10,10,10,10","20,20,20,20","20,20,20,20","20,20,20,20","0,0,0,0","20,20,20,20","10,10,10,10","20,20,20,20","20,20,20,20","20,20,20,20","0,1,1,0","7246,6634,2922,2479","10.406587223432737,8.127823683414839,19.283855620739196,12.315417436412508","25.057383431422622,9.794824922553385,-26.929376211696486,-33.22170452498497","0","0"
"826","86","text","0","35","768179","0-0","","","","","","","","","","","","","","","","","","","","","","","","","","","","","","","","","","","","",""
"","","plant-game","0","36","809542","0-0","","200","160","1","WHEAT CROP","Left","200","190","8","NETTLE WEED","experimental","5","1,2,3,4,5,6,7,8","160,130,107.81938941061192,177.63280804542507,214.27405032302093,195.8867660853553,165.4927022180446,167.50049246878916","1,7,6,5,4,3,2,1","WHEAT CROP,CORN CROP,CORN CROP,CORN CROP,CORN CROP,CORN CROP,CORN CROP,CORN CROP","190,198.56519768885096,234.30290350180786,277.1789541643778,290.5983385852022,321.2675769198303,298.55520327938825,352.59707823033284","8,7,6,5,4,3,2,1","NETTLE WEED,NETTLE WEED,NETTLE WEED,NETTLE WEED,NETTLE WEED,NETTLE WEED,NETTLE WEED,NETTLE WEED","20,20,20,20,20,20,20,20","20,20,20,20,20,20,20,20","10,10,10,10,10,10,10,10","20,20,20,20,20,20,20,20","0,0,0,0,0,0,0,0","20,20,20,20,20,20,20,20","20,20,20,20,20,20,20,20","20,20,20,20,20,20,20,20","10,10,10,10,10,10,10,10","20,20,20,20,20,20,20,20","0,0,0,0,0,0,0,0","20,20,20,20,20,20,20,20","1,1,0,0,0,1,0,0","21035,3951,1828,848,1251,1242,1326,790","-3.690606431139703,-22.180610589388078,69.81341863481313,36.64124227759586,-18.387284237665618,-30.39406386731072,2.007790250744552,24.7592902303158","8.565197688850951,35.73770581295692,42.87605066256992,13.419384420824407,30.669238334628037,-22.712373640442003,54.04187495094459,18.887600905708563","0","0"
"548","86","text","0","37","810250","0-0","","","","","","","","","","","","","","","","","","","","","","","","","","","","","","","","","","","","",""
"","","plant-game","0","38","856984","0-0","","200","120","4","WHEAT CROP","Right","200","190","2","THISTLE WEED","experimental","6","1,2,3,4","190,199.41544067250572,180,159.03615033745882","2,1,2,1","THISTLE WEED,THISTLE WEED,NETTLE WEED,NETTLE WEED","120,152.03576054508113,180.486330398621,178.80253489638736","4,3,2,1","WHEAT CROP,WHEAT CROP,WHEAT CROP,WHEAT CROP","0,0,0,0","20,20,20,20","10,10,10,10","20,20,20,20","20,20,20,20","20,20,20,20","0,0,0,0","20,20,20,20","10,10,10,10","20,20,20,20","20,20,20,20","20,20,20,20","0,1,0,0","7388,1411,22445,1661","9.415440672505733,35.3864048885317,-20.96384966254118,14.356577210141994","32.035760545081146,28.450569853539854,-1.6837955022336266,18.32826933138975","0","0"
"565","86","text","0","39","857674","0-0","","","","","","","","","","","","","","","","","","","","","","","","","","","","","","","","","","","","",""
"","","plant-game","0","40","899021","0-0","","200","190","8","WHEAT CROP","Left","200","120","2","NETTLE WEED","experimental","7","1,2,3,4,5,6,7,8","190,206.00184928465603,214.35251887687798,217.63075070126604,227.53556846838092,233.59000940753688,234.26693748338093,255.51162941538712","8,7,6,5,4,3,2,1","WHEAT CROP,WHEAT CROP,WHEAT CROP,WHEAT CROP,WHEAT CROP,WHEAT CROP,WHEAT CROP,WHEAT CROP","120,152.44918688566392,140,178.512769265018,189.82581361579926,177.89364671196938,171.94543818208334,160.73921963086045","2,1,6,5,4,3,2,1","NETTLE WEED,NETTLE WEED,THISTLE WEED,THISTLE WEED,THISTLE WEED,THISTLE WEED,THISTLE WEED,THISTLE WEED","20,20,20,20,20,20,20,20","20,20,20,20,20,20,20,20","10,10,10,10,10,10,10,10","20,20,20,20,20,20,20,20","0,0,0,0,0,0,0,0","20,20,20,20,20,20,20,20","20,20,20,20,20,20,20,20","20,20,20,20,20,20,20,20","10,10,10,10,10,10,10,10","20,20,20,20,20,20,20,20","0,0,0,0,0,0,0,0","20,20,20,20,20,20,20,20","0,0,0,1,0,1,0,0","8101,3001,8267,1823,2341,1541,1476,1491","16.001849284656043,8.350669592221937,3.2782318243880475,9.904817767114867,6.054440939155965,0.6769280758440542,21.244691932006194,26.154261584127273","32.44918688566392,33.43363674688977,38.51276926501801,11.313044350781274,-11.93216690382988,-5.948208529886056,-11.206218551222879,38.570168693353494","0","0"
"1015","86","text","0","41","900192","0-0","","","","","","","","","","","","","","","","","","","","","","","","","","","","","","","","","","","","",""
"","","plant-game","0","42","930419","0-0","","200","180","8","WHEAT CROP","Left","200","190","8","THISTLE WEED","experimental","8","1,2,3,4,5,6,7,8","180,150.60865018859707,164.2745492114431,199.48109859588726,226.63670398450202,224.57843258856653,239.53418580904082,236.384207352958","8,7,6,5,4,3,2,1","WHEAT CROP,WHEAT CROP,WHEAT CROP,WHEAT CROP,WHEAT CROP,WHEAT CROP,WHEAT CROP,WHEAT CROP","190,174.24072300752974,176.70618289720838,201.43571913360137,234.23904325064512,252.12527622456585,310.4249037460313,313.4033277265511","8,7,6,5,4,3,2,1","THISTLE WEED,THISTLE WEED,THISTLE WEED,THISTLE WEED,THISTLE WEED,THISTLE WEED,THISTLE WEED,THISTLE WEED","20,20,20,20,20,20,20,20","20,20,20,20,20,20,20,20","10,10,10,10,10,10,10,10","20,20,20,20,20,20,20,20","0,0,0,0,0,0,0,0","20,20,20,20,20,20,20,20","20,20,20,20,20,20,20,20","20,20,20,20,20,20,20,20","10,10,10,10,10,10,10,10","20,20,20,20,20,20,20,20","0,0,0,0,0,0,0,0","20,20,20,20,20,20,20,20","1,1,0,0,1,0,0,1","12817,2110,1512,1060,2111,1520,1584,1149","-29.391349811402932,13.66589902284602,35.20654938444417,27.155605388614767,-2.058271395935495,14.955753220474293,-3.149978456082824,6.163665243303149","-15.759276992470275,2.4654598896786486,24.72953623639298,32.80332411704375,17.886232973920727,58.29962752146543,2.9784239805197856,-4.8473499260532815","0","0"
"526","86","text","0","43","931065","0-0","","","","","","","","","","","","","","","","","","","","","","","","","","","","","","","","","","","","",""
"","","plant-game","0","44","956340","0-0","","200","120","2","CORN CROP","Right","200","190","4","NETTLE WEED","experimental","9","1,2,3,4","190,203.4139343896742,209.22264078064262,255.9401476856832","4,3,2,1","NETTLE WEED,NETTLE WEED,NETTLE WEED,NETTLE WEED","120,108.37796692793557,180,205.00882107533715","2,1,2,1","CORN CROP,CORN CROP,WHEAT CROP,WHEAT CROP","0,0,0,0","20,20,20,20","10,10,10,10","20,20,20,20","20,20,20,20","20,20,20,20","0,0,0,0","20,20,20,20","10,10,10,10","20,20,20,20","20,20,20,20","20,20,20,20","0,1,1,0","8475,1589,5612,1495","13.41393438967421,5.8087063909684105,46.717506905040565,-5.548804683925097","-11.622033072064418,41.44587823064302,25.008821075337146,7.176942993602619","0","0"
"527","86","text","0","45","957059","0-0","","","","","","","","","","","","","","","","","","","","","","","","","","","","","","","","","","","","",""
"","","plant-game","0","46","996276","0-0","","200","160","2","WHEAT CROP","Right","200","190","4","THISTLE WEED","experimental","10","1,2,3,4","190,187.6046198862313,194.16218833781784,200.09664384586253","4,3,2,1","THISTLE WEED,THISTLE WEED,THISTLE WEED,THISTLE WEED","160,177.3420543914251,180,217.64270365323168","2,1,2,1","WHEAT CROP,WHEAT CROP,CORN CROP,CORN CROP","0,0,0,0","20,20,20,20","10,10,10,10","20,20,20,20","20,20,20,20","20,20,20,20","0,0,0,0","20,20,20,20","10,10,10,10","20,20,20,20","20,20,20,20","20,20,20,20","1,0,1,0","9854,3532,14432,2384","-2.3953801137687165,6.557568451586548,5.934455508044689,-30.013029678716514","17.342054391425098,16.698275200826753,37.64270365323167,-1.0041282016659463","0","0"
"750","86","text","0","47","997176","0-0","","","","","","","","","","","","","","","","","","","","","","","","","","","","","","","","","","","","",""
"","","plant-game","0","48","1024356","0-0","","200","180","2","WHEAT CROP","Right","200","160","4","THISTLE WEED","experimental","11","1,2,3,4","160,197.42304853285242,209.64687198221014,198.35401005876193","4,3,2,1","THISTLE WEED,THISTLE WEED,THISTLE WEED,THISTLE WEED","180,188.34865718484315,180,172.4050913311534","2,1,2,1","WHEAT CROP,WHEAT CROP,CORN CROP,CORN CROP","0,0,0,0","20,20,20,20","10,10,10,10","20,20,20,20","20,20,20,20","20,20,20,20","0,0,0,0","20,20,20,20","10,10,10,10","20,20,20,20","20,20,20,20","20,20,20,20","1,1,0,0","5431,3389,5547,2010","37.423048532852434,12.223823449357727,-11.292861923448223,-17.53338291025195","8.348657184843162,49.1959073436239,-7.594908668846619,5.639575714859076","0","0"
"3278","86","text","0","49","1027774","0-0","","","","","","","","","","","","","","","","","","","","","","","","","","","","","","","","","","","","",""
"","","plant-game","0","50","1058019","0-0","","200","190","8","CORN CROP","Right","200","190","4","THISTLE WEED","experimental","12","1,2,3,4,5,6,7,8","190,169.76182999969635,168.5959750446969,169.63004521243312,160,186.45649400960775,192.8835326397315,192.2264816178396","4,3,2,1,4,3,2,1","THISTLE WEED,THISTLE WEED,THISTLE WEED,THISTLE WEED,NETTLE WEED,NETTLE WEED,NETTLE WEED,NETTLE WEED","190,172.50698112567048,182.75510827477038,155.92492375403646,169.0400035670054,207.61327262568653,203.19123384136608,235.7385961816883","8,7,6,5,4,3,2,1","CORN CROP,CORN CROP,CORN CROP,CORN CROP,CORN CROP,CORN CROP,CORN CROP,CORN CROP","0,0,0,0,0,0,0,0","20,20,20,20,20,20,20,20","10,10,10,10,10,10,10,10","20,20,20,20,20,20,20,20","20,20,20,20,20,20,20,20","20,20,20,20,20,20,20,20","0,0,0,0,0,0,0,0","20,20,20,20,20,20,20,20","10,10,10,10,10,10,10,10","20,20,20,20,20,20,20,20","20,20,20,20,20,20,20,20","20,20,20,20,20,20,20,20","0,0,0,0,1,0,1,1","9798,1525,1044,1156,2088,1724,1398,2381","-20.238170000303658,-1.165854954999458,1.034070167736219,2.1358740035913777,26.456494009607766,6.4270386301237545,-0.6570510218918955,4.722486749134633","-17.493018874329522,10.248127149099897,-26.830184520733937,13.11507981296895,38.57326905868111,-4.422038784320458,32.54736234032221,6.206793139606592","0","0"
"984","86","text","0","51","1059183","0-0","","","","","","","","","","","","","","","","","","","","","","","","","","","","","","","","","","","","",""
"","","plant-game","0","52","1080148","0-0","","200","190","1","WHEAT CROP","Left","200","160","4","NETTLE WEED","experimental","13","1,2,3,4","190,170,158.0636188044333,156.02005161415897","1,3,2,1","WHEAT CROP,CORN CROP,CORN CROP,CORN CROP","160,175.21587752096644,202.65344633819942,211.06580221851112","4,3,2,1","NETTLE WEED,NETTLE WEED,NETTLE WEED,NETTLE WEED","20,20,20,20","20,20,20,20","10,10,10,10","20,20,20,20","0,0,0,0","20,20,20,20","20,20,20,20","20,20,20,20","10,10,10,10","20,20,20,20","0,0,0,0","20,20,20,20","0,1,0,1","5178,5089,1244,997","28.354976304351517,-11.936381195566707,-2.043567190274331,-33.7722272190782","15.215877520966455,27.43756881723297,8.412355880311697,-19.166919415020825","0","0"
"3957","86","text","0","53","1084265","0-0","","","","","","","","","","","","","","","","","","","","","","","","","","","","","","","","","","","","",""
"","","plant-game","0","54","1104475","0-0","","200","190","4","WHEAT CROP","Left","200","180","2","THISTLE WEED","experimental","14","1,2,3,4","190,180.21492131598987,166.86045082284843,175.01174120237198","4,3,2,1","WHEAT CROP,WHEAT CROP,WHEAT CROP,WHEAT CROP","180,235.76960664455706,180,179.73810100806259","2,1,2,1","THISTLE WEED,THISTLE WEED,NETTLE WEED,NETTLE WEED","20,20,20,20","20,20,20,20","10,10,10,10","20,20,20,20","0,0,0,0","20,20,20,20","20,20,20,20","20,20,20,20","10,10,10,10","20,20,20,20","0,0,0,0","20,20,20,20","0,1,1,1","5007,1256,2996,1039","-9.78507868401012,-13.354470493141445,8.151290379523559,9.006608380195896","55.769606644557065,3.6487441808350134,-0.2618989919374163,3.9874592599520553","0","0"
"887","86","text","0","55","1105542","0-0","","","","","","","","","","","","","","","","","","","","","","","","","","","","","","","","","","","","",""
"","","plant-game","0","56","1123628","0-0","","200","160","4","CORN CROP","Left","200","180","4","THISTLE WEED","experimental","15","1,2,3,4","160,167.79886256960592,195.88988331007147,194.3957498212311","4,3,2,1","CORN CROP,CORN CROP,CORN CROP,CORN CROP","180,175.65752580566877,190.5354718341718,205.29048345555879","4,3,2,1","THISTLE WEED,THISTLE WEED,THISTLE WEED,THISTLE WEED","20,20,20,20","20,20,20,20","10,10,10,10","20,20,20,20","0,0,0,0","20,20,20,20","20,20,20,20","20,20,20,20","10,10,10,10","20,20,20,20","0,0,0,0","20,20,20,20","1,0,1,0","5753,2158,2546,938","7.798862569605922,28.09102074046556,-1.4941334888403566,10.473246995500547","-4.3424741943312295,14.877946028503022,14.755011621386991,1.7981928892829906","0","0"
"1586","86","text","0","57","1125384","0-0","","","","","","","","","","","","","","","","","","","","","","","","","","","","","","","","","","","","",""
"","","plant-game","0","58","1146552","0-0","","200","180","1","WHEAT CROP","Left","200","120","4","NETTLE WEED","experimental","16","1,2,3,4","180,170,210.5802977265228,231.40936841884826","1,3,2,1","WHEAT CROP,CORN CROP,CORN CROP,CORN CROP","120,107.16509196760524,98.8881944507675,93.14142919201532","4,3,2,1","NETTLE WEED,NETTLE WEED,NETTLE WEED,NETTLE WEED","20,20,20,20","20,20,20,20","10,10,10,10","20,20,20,20","0,0,0,0","20,20,20,20","20,20,20,20","20,20,20,20","10,10,10,10","20,20,20,20","0,0,0,0","20,20,20,20","1,0,0,0","6073,5011,1196,507","-2.6555195256820046,40.580297726522794,20.829070692325466,47.73992115992715","-12.834908032394763,-8.276897516837735,-5.74676525875217,32.739923451432446","0","0"
"7809","86","text","0","59","1154541","0-0","","","","","","","","","","","","","","","","","","","","","","","","","","","","","","","","","","","","",""
"","","plant-game","0","60","1170575","0-0","","200","120","2","CORN CROP","Right","200","180","2","NETTLE WEED","experimental","17","1,2","180,224.45580160127963","2,1","NETTLE WEED,NETTLE WEED","120,160.40378497584342","2,1","CORN CROP,CORN CROP","0,0","20,20","10,10","20,20","20,20","20,20","0,0","20,20","10,10","20,20","20,20","20,20","1,1","10401,1275","44.45580160127963,-1.298243414638776","40.40378497584342,11.187910428508442","0","0"
"730","86","text","0","61","1171515","0-0","","","","","","","","","","","","","","","","","","","","","","","","","","","","","","","","","","","","",""
"","","plant-game","0","62","1197818","0-0","","200","120","1","CORN CROP","Left","200","190","8","NETTLE WEED","experimental","18","1,2,3,4,5,6,7,8","120,130,120.80054776088537,114.38692023203451,118.34542157783014,105.88503360189205,129.8732168542634,159.58586197891728","1,7,6,5,4,3,2,1","CORN CROP,WHEAT CROP,WHEAT CROP,WHEAT CROP,WHEAT CROP,WHEAT CROP,WHEAT CROP,WHEAT CROP","190,212.35997442877775,201.0195742454536,191.86111037135652,167.56215172978025,186.23198831609508,243.34910860735184,226.0590252962857","8,7,6,5,4,3,2,1","NETTLE WEED,NETTLE WEED,NETTLE WEED,NETTLE WEED,NETTLE WEED,NETTLE WEED,NETTLE WEED,NETTLE WEED","20,20,20,20,20,20,20,20","20,20,20,20,20,20,20,20","10,10,10,10,10,10,10,10","20,20,20,20,20,20,20,20","0,0,0,0,0,0,0,0","20,20,20,20,20,20,20,20","20,20,20,20,20,20,20,20","20,20,20,20,20,20,20,20","10,10,10,10,10,10,10,10","20,20,20,20,20,20,20,20","0,0,0,0,0,0,0,0","20,20,20,20,20,20,20,20","0,1,1,1,1,0,1,0","5675,4050,1159,2298,781,1128,806,1493","14.965354027110674,-9.199452239114642,-6.413627528850856,3.958501345795624,-12.460387975938092,23.988183252371357,29.712645124653882,1.3392600544899622","22.359974428777747,-11.340400183324135,-9.158463874097082,-24.298958641576256,18.669836586314823,57.11712029125675,-17.290083311066137,22.223187203198076","0","0"
"590","86","text","0","63","1198568","0-0","","","","","","","","","","","","","","","","","","","","","","","","","","","","","","","","","","","","",""
"","","plant-game","0","64","1217254","0-0","","200","120","8","CORN CROP","Left","200","190","8","THISTLE WEED","experimental","19","1,2,3,4,5,6,7,8","120,123.17562761324042,136.91588617380225,146.03289169304873,178.06774017879326,138.07474927418394,170.24836397552707,200.1963639175894","8,7,6,5,4,3,2,1","CORN CROP,CORN CROP,CORN CROP,CORN CROP,CORN CROP,CORN CROP,CORN CROP,CORN CROP","190,164.02361327709644,163.71868432176697,197.12475569694928,172.25200413021872,138.64369721597717,144.76930528414863,167.2498743978091","8,7,6,5,4,3,2,1","THISTLE WEED,THISTLE WEED,THISTLE WEED,THISTLE WEED,THISTLE WEED,THISTLE WEED,THISTLE WEED,THISTLE WEED","20,20,20,20,20,20,20,20","20,20,20,20,20,20,20,20","10,10,10,10,10,10,10,10","20,20,20,20,20,20,20,20","0,0,0,0,0,0,0,0","20,20,20,20,20,20,20,20","20,20,20,20,20,20,20,20","20,20,20,20,20,20,20,20","10,10,10,10,10,10,10,10","20,20,20,20,20,20,20,20","0,0,0,0,0,0,0,0","20,20,20,20,20,20,20,20","1,1,0,1,1,0,0,0","3704,1536,1526,926,1081,1095,2111,681","3.1756276132404193,13.740258560561827,9.117005519246465,32.03484848574453,-39.99299090460933,32.173614701343126,29.947999942062314,2.71306387748054","-25.976386722903545,-0.30492895532946196,33.40607137518231,-24.872751566730567,-33.60830691424156,6.125608068171459,22.48056911366045,43.27413723032531","0","0"
"760","86","text","0","65","1218207","0-0","","","","","","","","","","","","","","","","","","","","","","","","","","","","","","","","","","","","",""
"","","plant-game","0","66","1242445","0-0","","200","180","4","WHEAT CROP","Right","200","190","2","THISTLE WEED","experimental","20","1,2,3,4","190,214.41437533574256,180,184.01152079907132","2,1,2,1","THISTLE WEED,THISTLE WEED,NETTLE WEED,NETTLE WEED","180,188.16241220484258,167.06421967463527,171.29187496618843","4,3,2,1","WHEAT CROP,WHEAT CROP,WHEAT CROP,WHEAT CROP","0,0,0,0","20,20,20,20","10,10,10,10","20,20,20,20","20,20,20,20","20,20,20,20","0,0,0,0","20,20,20,20","10,10,10,10","20,20,20,20","20,20,20,20","20,20,20,20","1,0,1,0","1895,1307,5037,5805","24.41437533574257,18.90280023020926,4.011520799071329,-16.08311358331378","8.162412204842571,-21.09819253020732,4.22765529155315,-4.984536707595046","0","0"
"717","86","text","0","67","1243334","0-0","","","","","","","","","","","","","","","","","","","","","","","","","","","","","","","","","","","","",""
"","","plant-game","0","68","1263486","0-0","","200","180","8","CORN CROP","Left","200","180","8","NETTLE WEED","experimental","21","1,2,3,4,5,6,7,8","180,209.52988505450685,215.8033530001418,205.45976895990123,249.78886079291107,265.5499108975514,293.5139315184109,278.59436806552526","8,7,6,5,4,3,2,1","CORN CROP,CORN CROP,CORN CROP,CORN CROP,CORN CROP,CORN CROP,CORN CROP,CORN CROP","180,155.0918408905901,153.62166813270082,147.0066215454562,127.21293287965769,159.07883507887897,181.74094127802886,168.8268143567195","8,7,6,5,4,3,2,1","NETTLE WEED,NETTLE WEED,NETTLE WEED,NETTLE WEED,NETTLE WEED,NETTLE WEED,NETTLE WEED,NETTLE WEED","20,20,20,20,20,20,20,20","20,20,20,20,20,20,20,20","10,10,10,10,10,10,10,10","20,20,20,20,20,20,20,20","0,0,0,0,0,0,0,0","20,20,20,20,20,20,20,20","20,20,20,20,20,20,20,20","20,20,20,20,20,20,20,20","10,10,10,10,10,10,10,10","20,20,20,20,20,20,20,20","0,0,0,0,0,0,0,0","20,20,20,20,20,20,20,20","1,1,1,1,1,0,1,1","5847,1162,610,1074,1469,1036,977,2044","29.529885054506842,6.273467945634957,-10.343584040240597,44.32909183300983,15.761050104640333,27.964020620859543,-14.919563452885658,15.664574864685736","-24.908159109409894,-1.4701727578892752,-6.615046587244615,-19.793688665798513,31.865902199221267,22.66210619914988,-12.914126921309348,30.84127475089424","0","0"
"752","86","text","0","69","1264448","0-0","","","","","","","","","","","","","","","","","","","","","","","","","","","","","","","","","","","","",""
"","","plant-game","0","70","1277029","0-0","","200","160","1","CORN CROP","Right","200","120","1","NETTLE WEED","experimental","22","1","120","1","NETTLE WEED","160","1","CORN CROP","0","20","10","20","20","20","0","20","10","20","20","20","1","7973","27.82135158947642","10.13826431316386","0","0"
"623","86","text","0","71","1277808","0-0","","","","","","","","","","","","","","","","","","","","","","","","","","","","","","","","","","","","",""
"","","plant-game","0","72","1306343","0-0","","200","190","1","WHEAT CROP","Left","200","120","4","NETTLE WEED","experimental","23","1,2,3,4","190,170,164.8000169467436,167.20177670258104","1,3,2,1","WHEAT CROP,CORN CROP,CORN CROP,CORN CROP","120,157.05573754060788,174.06383829595498,162.11920324873986","4,3,2,1","NETTLE WEED,NETTLE WEED,NETTLE WEED,NETTLE WEED","20,20,20,20","20,20,20,20","10,10,10,10","20,20,20,20","0,0,0,0","20,20,20,20","20,20,20,20","20,20,20,20","10,10,10,10","20,20,20,20","0,0,0,0","20,20,20,20","0,1,1,0","3382,13756,1857,2273","26.298867494008615,-5.199983053256404,2.4017597558374564,26.990269621014622","37.05573754060788,17.0081007553471,-11.944635047215108,48.280241958505684","0","0"
"543","86","text","0","73","1307018","0-0","","","","","","","","","","","","","","","","","","","","","","","","","","","","","","","","","","","","",""
"","","plant-game","0","74","1320906","0-0","","200","160","2","CORN CROP","Right","200","180","2","NETTLE WEED","experimental","24","1,2","180,137.63074633738842","2,1","NETTLE WEED,NETTLE WEED","160,167.27586147653835","2,1","CORN CROP,CORN CROP","0,0","20,20","10,10","20,20","20,20","20,20","0,0","20,20","10,10","20,20","20,20","20,20","0,1","4043,5285","-42.36925366261158,16.412291666910875","7.275861476538353,28.47998086775049","0","0"
"638","86","text","0","75","1321715","0-0","","","","","","","","","","","","","","","","","","","","","","","","","","","","","","","","","","","","",""
"","","plant-game","0","76","1347896","0-0","","200","180","1","WHEAT CROP","Right","200","120","8","THISTLE WEED","experimental","25","1,2,3,4,5,6,7,8","120,132.1052705321531,142.99299065573692,129.63096647680547,153.51318511193966,176.48644372110172,180.35994656819273,213.51932642839603","8,7,6,5,4,3,2,1","THISTLE WEED,THISTLE WEED,THISTLE WEED,THISTLE WEED,THISTLE WEED,THISTLE WEED,THISTLE WEED,THISTLE WEED","180,130,136.27113525659567,156.95907145082052,147.23472180634062,151.91653000884187,164.55253194318055,125.0038130105089","1,7,6,5,4,3,2,1","WHEAT CROP,CORN CROP,CORN CROP,CORN CROP,CORN CROP,CORN CROP,CORN CROP,CORN CROP","0,0,0,0,0,0,0,0","20,20,20,20,20,20,20,20","10,10,10,10,10,10,10,10","20,20,20,20,20,20,20,20","20,20,20,20,20,20,20,20","20,20,20,20,20,20,20,20","0,0,0,0,0,0,0,0","20,20,20,20,20,20,20,20","10,10,10,10,10,10,10,10","20,20,20,20,20,20,20,20","20,20,20,20,20,20,20,20","20,20,20,20,20,20,20,20","1,0,0,0,0,1,1,1","3289,4859,1626,1382,842,1581,2068,689","12.105270532153092,10.88772012358383,-13.362024178931446,23.882218635134194,22.973258609162052,3.873502847091004,33.15937986020329,-1.6953128914414783","19.165943648652995,6.271135256595683,20.687936194224847,-9.724349644479892,4.681808202501253,12.63600193433868,-39.54871893267165,25.990154964817037","0","0"
"597","86","text","0","77","1348653","0-0","","","","","","","","","","","","","","","","","","","","","","","","","","","","","","","","","","","","",""
"","","plant-game","0","78","1359136","0-0","","200","180","2","WHEAT CROP","Left","200","180","2","THISTLE WEED","experimental","26","1,2","180,175.5029385908247","2,1","WHEAT CROP,WHEAT CROP","180,185.04299740735794","2,1","THISTLE WEED,THISTLE WEED","20,20","20,20","10,10","20,20","0,0","20,20","20,20","20,20","10,10","20,20","0,0","20,20","1,1","4625,2095","-4.497061409175306,12.214552748879086","5.042997407357948,16.973426146010507","0","0"
"509","86","text","0","79","1359805","0-0","","","","","","","","","","","","","","","","","","","","","","","","","","","","","","","","","","","","",""
"","","plant-game","0","80","1378894","0-0","","200","190","1","WHEAT CROP","Left","200","190","4","THISTLE WEED","experimental","27","1,2,3,4","190,170,143.89709190061026,129.5870259234573","1,3,2,1","WHEAT CROP,CORN CROP,CORN CROP,CORN CROP","190,217.2661801395212,192.5215500412199,195.90434235000404","4,3,2,1","THISTLE WEED,THISTLE WEED,THISTLE WEED,THISTLE WEED","20,20,20,20","20,20,20,20","10,10,10,10","20,20,20,20","0,0,0,0","20,20,20,20","20,20,20,20","20,20,20,20","10,10,10,10","20,20,20,20","0,0,0,0","20,20,20,20","0,1,1,0","3199,3237,3305,1006","12.077643661747675,-26.102908099389737,-14.310065977152961,10.681484479597115","27.2661801395212,-24.744630098301275,3.3827923087841425,24.535049903531046","0","0"
"580","86","text","0","81","1379678","0-0","","","","","","","","","","","","","","","","","","","","","","","","","","","","","","","","","","","","",""
"","","plant-game","0","82","1395156","0-0","","200","160","4","CORN CROP","Left","200","120","4","NETTLE WEED","experimental","28","1,2,3,4","160,171.01759673325898,171.8173551808635,155.71875132293715","4,3,2,1","CORN CROP,CORN CROP,CORN CROP,CORN CROP","120,131.8127000240441,154.80604700229236,147.18507283881408","4,3,2,1","NETTLE WEED,NETTLE WEED,NETTLE WEED,NETTLE WEED","20,20,20,20","20,20,20,20","10,10,10,10","20,20,20,20","0,0,0,0","20,20,20,20","20,20,20,20","20,20,20,20","10,10,10,10","20,20,20,20","0,0,0,0","20,20,20,20","0,0,1,0","6888,818,1132,1951","11.017596733258985,0.7997584476045034,-16.09860385792635,12.527149826211978","11.812700024044094,22.99334697824826,-7.620974163478279,43.45564425474562","0","0"
"830","86","text","0","83","1396142","0-0","","","","","","","","","","","","","","","","","","","","","","","","","","","","","","","","","","","","",""
"","","plant-game","0","84","1408620","0-0","","200","180","2","CORN CROP","Right","200","160","2","THISTLE WEED","experimental","29","1,2","160,153.60210815074123","2,1","THISTLE WEED,THISTLE WEED","180,218.98327240984418","2,1","CORN CROP,CORN CROP","0,0","20,20","10,10","20,20","20,20","20,20","0,0","20,20","10,10","20,20","20,20","20,20","1,1","6040,1730","-6.397891849258773,7.294927962671876","38.98327240984416,-17.095578480340798","0","0"
"537","86","text","0","85","1409337","0-0","","","","","","","","","","","","","","","","","","","","","","","","","","","","","","","","","","","","",""
"","","plant-game","0","86","1430147","0-0","","200","190","4","WHEAT CROP","Left","200","190","1","THISTLE WEED","experimental","30","1,2,3,4","190,222.5402981374608,222.89966436334126,228.16707063909922","4,3,2,1","WHEAT CROP,WHEAT CROP,WHEAT CROP,WHEAT CROP","190,170,156.34548715515737,128.80783733323327","1,3,2,1","THISTLE WEED,NETTLE WEED,NETTLE WEED,NETTLE WEED","20,20,20,20","20,20,20,20","10,10,10,10","20,20,20,20","0,0,0,0","20,20,20,20","20,20,20,20","20,20,20,20","10,10,10,10","20,20,20,20","0,0,0,0","20,20,20,20","0,1,1,1","5291,5957,1015,743","32.54029813746082,0.3593662258804442,5.267406275757969,7.281828591954026","33.799128228196004,-13.65451284484262,-27.53764982192411,-13.70834711322045","0","0"
"659","86","text","0","87","1430986","0-0","","","","","","","","","","","","","","","","","","","","","","","","","","","","","","","","","","","","",""
"","","plant-game","0","88","1465451","0-0","","200","160","8","CORN CROP","Left","200","160","4","NETTLE WEED","experimental","31","1,2,3,4,5,6,7,8","160,125.04929868018701,111.99730740975076,117.40956315034515,113.91259825282012,109.98402139442103,154.57420955092934,161.7127047505441","8,7,6,5,4,3,2,1","CORN CROP,CORN CROP,CORN CROP,CORN CROP,CORN CROP,CORN CROP,CORN CROP,CORN CROP","160,147.75247609448107,159.35122986627894,177.59208385478254,160,165.81463048055764,166.49385280870857,181.76437576290212","4,3,2,1,4,3,2,1","NETTLE WEED,NETTLE WEED,NETTLE WEED,NETTLE WEED,THISTLE WEED,THISTLE WEED,THISTLE WEED,THISTLE WEED","20,20,20,20,20,20,20,20","20,20,20,20,20,20,20,20","10,10,10,10,10,10,10,10","20,20,20,20,20,20,20,20","0,0,0,0,0,0,0,0","20,20,20,20,20,20,20,20","20,20,20,20,20,20,20,20","20,20,20,20,20,20,20,20","10,10,10,10,10,10,10,10","20,20,20,20,20,20,20,20","0,0,0,0,0,0,0,0","20,20,20,20,20,20,20,20","1,1,0,1,1,0,1,0","13933,1540,1635,898,4803,1052,1006,691","-34.950701319813,-13.05199127043625,5.412255740594386,-3.4969648975250394,-3.9285768583990825,44.59018815650831,7.138495199614771,28.659841366408983","-12.247523905518939,11.598753771797872,18.240853988503595,-16.011440513150312,5.8146304805576445,0.679222328150928,15.270522954193552,13.878969563353259","0","0"
"541","86","text","0","89","1466117","0-0","","","","","","","","","","","","","","","","","","","","","","","","","","","","","","","","","","","","",""
"","","plant-game","0","90","1491257","0-0","","200","160","1","WHEAT CROP","Right","200","190","4","NETTLE WEED","experimental","32","1,2,3,4","190,200.53438880456915,211.12250147759238,204.03364315801818","4,3,2,1","NETTLE WEED,NETTLE WEED,NETTLE WEED,NETTLE WEED","160,170,164.02088695719203,158.15664918937628","1,3,2,1","WHEAT CROP,CORN CROP,CORN CROP,CORN CROP","0,0,0,0","20,20,20,20","10,10,10,10","20,20,20,20","20,20,20,20","20,20,20,20","0,0,0,0","20,20,20,20","10,10,10,10","20,20,20,20","20,20,20,20","20,20,20,20","0,0,1,1","8985,6688,970,657","10.534388804569135,10.588112673023247,-7.088858319574211,5.158187972950563","-1.0150925514548128,-5.979113042807976,-5.864237767815755,28.814728681167644","1","0"
"4161","86","text","0","91","1495574","0-0","","","","","","","","","","","","","","","","","","","","","","","","","","","","","","","","","","","","",""
"","","plant-game","0","92","1515698","0-0","","200","160","2","WHEAT CROP","Right","200","180","1","THISTLE WEED","experimental","33","1,2","180,190","1,1","THISTLE WEED,NETTLE WEED","160,207.54375724474892","2,1","WHEAT CROP,WHEAT CROP","0,0","20,20","10,10","20,20","20,20","20,20","0,0","20,20","10,10","20,20","20,20","20,20","1,0","9172,4507","-2.2415306245222126,16.579531078331055","47.54375724474891,20.234457770376288","0","0"
"534","86","text","0","93","1516372","0-0","","","","","","","","","","","","","","","","","","","","","","","","","","","","","","","","","","","","",""
"","","plant-game","0","94","1524832","0-0","","200","180","1","CORN CROP","Left","200","120","1","NETTLE WEED","experimental","34","1","180","1","CORN CROP","120","1","NETTLE WEED","20","20","10","20","0","20","20","20","10","20","0","20","1","4046","-19.0844870353641","-49.172851935925195","0","0"
"473","86","text","0","95","1525475","0-0","","","","","","","","","","","","","","","","","","","","","","","","","","","","","","","","","","","","",""
"","","plant-game","0","96","1563007","0-0","","200","190","1","WHEAT CROP","Right","200","120","8","THISTLE WEED","experimental","35","1,2,3,4,5,6,7,8","120,156.94530041325118,172.11980308453465,213.40649965627523,222.20498984528956,229.46429900333743,249.87365394816416,287.08682603059907","8,7,6,5,4,3,2,1","THISTLE WEED,THISTLE WEED,THISTLE WEED,THISTLE WEED,THISTLE WEED,THISTLE WEED,THISTLE WEED,THISTLE WEED","190,130,98.27007360361763,92.51102281358754,139.41372326414518,148.6028864621289,139.23583989475134,140.11591339108352","1,7,6,5,4,3,2,1","WHEAT CROP,CORN CROP,CORN CROP,CORN CROP,CORN CROP,CORN CROP,CORN CROP,CORN CROP","0,0,0,0,0,0,0,0","20,20,20,20,20,20,20,20","10,10,10,10,10,10,10,10","20,20,20,20,20,20,20,20","20,20,20,20,20,20,20,20","20,20,20,20,20,20,20,20","0,0,0,0,0,0,0,0","20,20,20,20,20,20,20,20","10,10,10,10,10,10,10,10","20,20,20,20,20,20,20,20","20,20,20,20,20,20,20,20","20,20,20,20,20,20,20,20","1,0,1,1,0,0,1,1","4363,6240,5045,10186,2002,787,1084,448","36.94530041325116,15.174502671283474,41.28669657174057,8.798490189014318,7.259309158047884,20.40935494482674,37.21317208243489,7.893383898700391","20.015413944725577,-31.729926396382364,-5.759050790030095,46.90270045055762,9.189163197983733,-9.367046567377576,0.8800734963321872,13.949624968995229","0","0"
"476","86","text","0","97","1563639","0-0","","","","","","","","","","","","","","","","","","","","","","","","","","","","","","","","","","","","",""
"","","plant-game","0","98","1604838","0-0","","200","190","4","CORN CROP","Left","200","160","1","THISTLE WEED","experimental","36","1,2,3,4","190,220.18994796626853,209.6569431665443,189.24275824885245","4,3,2,1","CORN CROP,CORN CROP,CORN CROP,CORN CROP","160,170,196.1518964023819,197.59070159255091","1,3,2,1","THISTLE WEED,NETTLE WEED,NETTLE WEED,NETTLE WEED","20,20,20,20","20,20,20,20","10,10,10,10","20,20,20,20","0,0,0,0","20,20,20,20","20,20,20,20","20,20,20,20","10,10,10,10","20,20,20,20","0,0,0,0","20,20,20,20","1,1,1,0","22154,4932,2487,1885","30.189947966268527,-10.533004799724242,-20.414184917691852,37.70762622468115","-1.3392456303814235,26.151896402381894,1.4388051901690107,21.435590926623576","0","0"
"698","86","text","0","99","1605725","0-0","","","","","","","","","","","","","","","","","","","","","","","","","","","","","","","","","","","","",""
"","","plant-game","0","100","1642375","0-0","","200","180","2","WHEAT CROP","Left","200","120","8","NETTLE WEED","experimental","37","1,2,3,4,5,6,7,8","180,188.94167989605393,140,158.12522329000038,160.9006810061626,155.43353874600814,160.2026682010954,153.03631899069774","2,1,6,5,4,3,2,1","WHEAT CROP,WHEAT CROP,CORN CROP,CORN CROP,CORN CROP,CORN CROP,CORN CROP,CORN CROP","120,150.65282381847342,127.45340142294035,203.32565140020296,188.0571899744681,172.35524880131908,180.79402617020594,211.11293424999795","8,7,6,5,4,3,2,1","NETTLE WEED,NETTLE WEED,NETTLE WEED,NETTLE WEED,NETTLE WEED,NETTLE WEED,NETTLE WEED,NETTLE WEED","20,20,20,20,20,20,20,20","20,20,20,20,20,20,20,20","10,10,10,10,10,10,10,10","20,20,20,20,20,20,20,20","0,0,0,0,0,0,0,0","20,20,20,20,20,20,20,20","20,20,20,20,20,20,20,20","20,20,20,20,20,20,20,20","10,10,10,10,10,10,10,10","20,20,20,20,20,20,20,20","0,0,0,0,0,0,0,0","20,20,20,20,20,20,20,20","1,1,0,1,1,1,1,1","10309,902,6141,8598,719,718,1782,665","8.941679896053913,28.77788593936108,18.12522329000037,2.7754577161622502,-5.467142260154478,4.76912945508727,-7.166349210397666,25.33875049413776","30.652823818473433,-23.199422395533084,75.8722499772626,-15.268461425734856,-15.701941173149013,8.43877736888686,30.318908079792006,-1.2234117928329193","0","0"
"413","86","text","0","101","1642937","0-0","","","","","","","","","","","","","","","","","","","","","","","","","","","","","","","","","","","","",""
"","","plant-game","0","102","1653640","0-0","","200","120","2","CORN CROP","Left","200","190","2","NETTLE WEED","experimental","38","1,2","120,163.3210621591162","2,1","CORN CROP,CORN CROP","190,152.51957918074558","2,1","NETTLE WEED,NETTLE WEED","20,20","20,20","10,10","20,20","0,0","20,20","20,20","20,20","10,10","20,20","0,0","20,20","1,0","4766,1443","43.321062159116195,31.60180420592701","-37.48042081925442,-9.87876104537505","1","0"
"607","86","text","0","103","1654407","0-0","","","","","","","","","","","","","","","","","","","","","","","","","","","","","","","","","","","","",""
"","","plant-game","0","104","1667879","0-0","","200","120","1","CORN CROP","Left","200","190","2","THISTLE WEED","experimental","39","1,2","120,190","1,1","CORN CROP,WHEAT CROP","190,196.7554344378152","2,1","THISTLE WEED,THISTLE WEED","20,20","20,20","10,10","20,20","0,0","20,20","20,20","20,20","10,10","20,20","0,0","20,20","1,0","1833,4602","4.92932473530087,61.41626173977561","6.755434437815216,40.0943493645065","0","0"
"838","86","text","0","105","1668879","0-0","","","","","","","","","","","","","","","","","","","","","","","","","","","","","","","","","","","","",""
"","","plant-game","0","106","1693343","0-0","","200","190","8","WHEAT CROP","Left","200","180","4","THISTLE WEED","experimental","40","1,2,3,4,5,6,7,8","190,221.44766014855136,223.15816128893212,215.70142971011262,229.90246135136272,252.4842510897539,257.39983072565053,299.67293023375396","8,7,6,5,4,3,2,1","WHEAT CROP,WHEAT CROP,WHEAT CROP,WHEAT CROP,WHEAT CROP,WHEAT CROP,WHEAT CROP,WHEAT CROP","180,193.98762789859495,223.82865205150048,221.09037730517403,160,158.51495465624407,218.65185389528546,240.39043751630612","4,3,2,1,4,3,2,1","THISTLE WEED,THISTLE WEED,THISTLE WEED,THISTLE WEED,NETTLE WEED,NETTLE WEED,NETTLE WEED,NETTLE WEED","20,20,20,20,20,20,20,20","20,20,20,20,20,20,20,20","10,10,10,10,10,10,10,10","20,20,20,20,20,20,20,20","0,0,0,0,0,0,0,0","20,20,20,20,20,20,20,20","20,20,20,20,20,20,20,20","20,20,20,20,20,20,20,20","10,10,10,10,10,10,10,10","20,20,20,20,20,20,20,20","0,0,0,0,0,0,0,0","20,20,20,20,20,20,20,20","1,0,1,1,1,1,0,1","2166,2170,1343,595,5681,1015,1253,1016","31.447660148551357,1.7105011403807566,-7.456731578819512,14.201031641250095,22.581789738391187,4.915579635896604,42.2730995081034,19.855817659585384","13.987627898594964,29.841024152905526,-2.7382747463264407,-32.23479873097322,-1.485045343755935,60.136899239041384,21.73858362102066,0.8475566394357024","0","0"
"750","86","text","0","107","1694263","0-0","","","","","","","","","","","","","","","","","","","","","","","","","","","","","","","","","","","","",""
"","","plant-game","0","108","1709119","0-0","","200","120","2","WHEAT CROP","Left","200","190","1","NETTLE WEED","experimental","41","1,2","120,139.5720329620183","2,1","WHEAT CROP,WHEAT CROP","190,190","1,1","NETTLE WEED,THISTLE WEED","20,20","20,20","10,10","20,20","0,0","20,20","20,20","20,20","10,10","20,20","0,0","20,20","1,1","2965,4968","19.5720329620183,-36.38158417755343","9.021785935408992,-11.503093084829432","0","0"
"500","86","text","0","109","1709775","0-0","","","","","","","","","","","","","","","","","","","","","","","","","","","","","","","","","","","","",""
"","","plant-game","0","110","1724990","0-0","","200","190","4","CORN CROP","Right","200","160","4","THISTLE WEED","experimental","42","1,2,3,4","160,201.68576669587827,205.13090658561208,204.46356295254438","4,3,2,1","THISTLE WEED,THISTLE WEED,THISTLE WEED,THISTLE WEED","190,253.7896636550806,324.21732477842914,317.7230932575087","4,3,2,1","CORN CROP,CORN CROP,CORN CROP,CORN CROP","0,0,0,0","20,20,20,20","10,10,10,10","20,20,20,20","20,20,20,20","20,20,20,20","0,0,0,0","20,20,20,20","10,10,10,10","20,20,20,20","20,20,20,20","20,20,20,20","1,1,1,1","4245,2005,1548,1186","41.685766695878286,3.4451398897338166,-0.6673436330676985,38.60147545943548","63.789663655080595,70.42766112334854,-6.494231520920444,27.847280189061333","0","0"
"597","86","text","0","111","1725767","0-0","","","","","","","","","","","","","","","","","","","","","","","","","","","","","","","","","","","","",""
"","","plant-game","0","112","1742685","0-0","","200","160","1","WHEAT CROP","Left","200","190","2","THISTLE WEED","experimental","43","1,2","160,190","1,1","WHEAT CROP,CORN CROP","190,194.60596531536277","2,1","THISTLE WEED,THISTLE WEED","20,20","20,20","10,10","20,20","0,0","20,20","20,20","20,20","10,10","20,20","0,0","20,20","1,0","5248,3191","-26.255101642031185,-12.850096180651825","4.605965315362754,51.83188707816196","0","0"
"1055","86","text","0","113","1743893","0-0","","","","","","","","","","","","","","","","","","","","","","","","","","","","","","","","","","","","",""
"","","plant-game","0","114","1766975","0-0","","200","160","2","WHEAT CROP","Left","200","180","8","THISTLE WEED","experimental","44","1,2,3,4,5,6,7,8","160,167.52447492309585,140,167.4797252216871,186.90057779902097,193.62032437346585,157.84775501000814,169.260707150668","2,1,6,5,4,3,2,1","WHEAT CROP,WHEAT CROP,CORN CROP,CORN CROP,CORN CROP,CORN CROP,CORN CROP,CORN CROP","180,208.61851972867987,236.01323197832116,218.86219333900146,207.46846245567883,204.44972368294904,200.3953724173815,231.73414970678147","8,7,6,5,4,3,2,1","THISTLE WEED,THISTLE WEED,THISTLE WEED,THISTLE WEED,THISTLE WEED,THISTLE WEED,THISTLE WEED,THISTLE WEED","20,20,20,20,20,20,20,20","20,20,20,20,20,20,20,20","10,10,10,10,10,10,10,10","20,20,20,20,20,20,20,20","0,0,0,0,0,0,0,0","20,20,20,20,20,20,20,20","20,20,20,20,20,20,20,20","20,20,20,20,20,20,20,20","10,10,10,10,10,10,10,10","20,20,20,20,20,20,20,20","0,0,0,0,0,0,0,0","20,20,20,20,20,20,20,20","0,0,1,1,1,1,0,0","3276,3703,2496,2087,989,870,1265,1042","7.524474923095845,28.83384225522061,27.479725221687087,19.420852577333882,6.719746574444874,-35.77256936345772,11.412952140659861,20.440827049376416","28.618519728679864,27.394712249641298,-17.151038639319683,-11.39373088332264,-3.018738772729785,-4.054351265567531,31.338777289399964,4.202476333158264","0","0"
"1094","86","text","0","115","1768225","0-0","","","","","","","","","","","","","","","","","","","","","","","","","","","","","","","","","","","","",""
"","","plant-game","0","116","1780946","0-0","","200","190","1","WHEAT CROP","Left","200","160","2","NETTLE WEED","experimental","45","1,2","190,190","1,1","WHEAT CROP,CORN CROP","160,162.9591252214591","2,1","NETTLE WEED,NETTLE WEED","20,20","20,20","10,10","20,20","0,0","20,20","20,20","20,20","10,10","20,20","0,0","20,20","1,0","1968,3676","-15.58863172002306,14.828114296643001","2.9591252214590993,30.344192667810198","0","0"
"933","86","text","0","117","1782095","0-0","","","","","","","","","","","","","","","","","","","","","","","","","","","","","","","","","","","","",""
"","","plant-game","0","118","1794001","0-0","","200","180","4","CORN CROP","Right","200","120","4","NETTLE WEED","experimental","46","1,2,3,4","120,134.32259024048798,125.4707431799838,133.61652083632706","4,3,2,1","NETTLE WEED,NETTLE WEED,NETTLE WEED,NETTLE WEED","180,180.63255754740936,189.47757452347787,212.43603318294424","4,3,2,1","CORN CROP,CORN CROP,CORN CROP,CORN CROP","0,0,0,0","20,20,20,20","10,10,10,10","20,20,20,20","20,20,20,20","20,20,20,20","0,0,0,0","20,20,20,20","10,10,10,10","20,20,20,20","20,20,20,20","20,20,20,20","1,0,1,1","3893,1308,1401,1217","14.32259024048798,-8.851847060504179,8.145777656343258,40.75692228524986","0.632557547409359,8.845016976068512,22.958458659466373,13.24226124538794","0","0"
"563","86","text","0","119","1794704","0-0","","","","","","","","","","","","","","","","","","","","","","","","","","","","","","","","","","","","",""
"","","plant-game","0","120","1812035","0-0","","200","180","4","CORN CROP","Right","200","120","1","THISTLE WEED","experimental","47","1,2,3,4","120,170,206.87069690218797,208.85625049282515","1,3,2,1","THISTLE WEED,NETTLE WEED,NETTLE WEED,NETTLE WEED","180,199.27810704474356,245.2166488417032,212.9135262792248","4,3,2,1","CORN CROP,CORN CROP,CORN CROP,CORN CROP","0,0,0,0","20,20,20,20","10,10,10,10","20,20,20,20","20,20,20,20","20,20,20,20","0,0,0,0","20,20,20,20","10,10,10,10","20,20,20,20","20,20,20,20","20,20,20,20","1,1,0,1","3164,2543,1485,1176","20.564712799626136,36.87069690218798,1.9855535906371746,-7.229711618327631","19.278107044743564,45.93854179695965,-32.30312256247838,53.878764652027066","0","0"
"671","86","text","0","121","1812876","0-0","","","","","","","","","","","","","","","","","","","","","","","","","","","","","","","","","","","","",""
"","","plant-game","0","122","1833114","0-0","","200","180","1","CORN CROP","Right","200","190","8","NETTLE WEED","experimental","48","1,2,3,4,5,6,7,8","190,165.70176455428225,188.84973865377668,224.21814784400112,224.40740906909647,231.0633202947449,203.88184856357037,215.614499877104","8,7,6,5,4,3,2,1","NETTLE WEED,NETTLE WEED,NETTLE WEED,NETTLE WEED,NETTLE WEED,NETTLE WEED,NETTLE WEED,NETTLE WEED","180,130,146.8296198840216,177.28139321580306,156.66048651480014,114.06264344904862,99.18183282400997,140.45238099123287","1,7,6,5,4,3,2,1","CORN CROP,WHEAT CROP,WHEAT CROP,WHEAT CROP,WHEAT CROP,WHEAT CROP,WHEAT CROP,WHEAT CROP","0,0,0,0,0,0,0,0","20,20,20,20,20,20,20,20","10,10,10,10,10,10,10,10","20,20,20,20,20,20,20,20","20,20,20,20,20,20,20,20","20,20,20,20,20,20,20,20","0,0,0,0,0,0,0,0","20,20,20,20,20,20,20,20","10,10,10,10,10,10,10,10","20,20,20,20,20,20,20,20","20,20,20,20,20,20,20,20","20,20,20,20,20,20,20,20","1,0,1,1,0,0,0,0","781,3491,1846,1088,1048,223,344,1107","-24.298235445717737,23.147974099494437,35.36840919022445,0.18926122509535404,6.655911225648437,-27.18147173117453,11.732651313533637,14.32316576171804","15.605658706939913,16.829619884021604,30.451773331781464,-20.620906701002923,-42.59784306575152,-14.880810625038642,41.27054816722291,-25.760381605934974","0","0"
"1887","86","text","0","123","1835221","0-0","","","","","","","","","","","","","","","","","","","","","","","","","","","","","","","","","","","","",""
"","","plant-game","0","124","1853930","0-0","","200","160","4","CORN CROP","Left","200","180","8","NETTLE WEED","experimental","49","1,2,3,4,5,6,7,8","160,159.59213965015132,180.7905797804211,177.81628234685311,160,160.86166066649636,163.477957887557,160.35065481593938","4,3,2,1,4,3,2,1","CORN CROP,CORN CROP,CORN CROP,CORN CROP,WHEAT CROP,WHEAT CROP,WHEAT CROP,WHEAT CROP","180,206.77805805142626,254.41704304197594,266.3847750731428,252.57475947807285,275.04166826746734,252.8985949929709,236.28569131648584","8,7,6,5,4,3,2,1","NETTLE WEED,NETTLE WEED,NETTLE WEED,NETTLE WEED,NETTLE WEED,NETTLE WEED,NETTLE WEED,NETTLE WEED","20,20,20,20,20,20,20,20","20,20,20,20,20,20,20,20","10,10,10,10,10,10,10,10","20,20,20,20,20,20,20,20","0,0,0,0,0,0,0,0","20,20,20,20,20,20,20,20","20,20,20,20,20,20,20,20","20,20,20,20,20,20,20,20","10,10,10,10,10,10,10,10","20,20,20,20,20,20,20,20","0,0,0,0,0,0,0,0","20,20,20,20,20,20,20,20","1,0,0,0,1,0,0,0","1571,1264,545,915,1811,1259,1398,2174","-0.407860349848678,21.198440130269784,-2.974297433567976,34.17591478545109,0.8616606664963694,2.616297221060641,-3.1273030716176393,17.37561348019775","26.778058051426264,47.6389849905497,11.96773203116686,-13.810015595069949,22.46690878939448,-22.143073274496423,-16.61290367648509,19.137164506709084","0","0"
"1614","86","text","0","125","1855674","0-0","","","","","","","","","","","","","","","","","","","","","","","","","","","","","","","","","","","","",""
"","","plant-game","0","126","1872620","0-0","","200","190","8","WHEAT CROP","Left","200","190","1","THISTLE WEED","experimental","50","1,2,3,4,5,6,7,8","190,175.53722690871555,203.01723167129862,253.07046468164566,257.9404581758157,224.28793160800132,218.71335175494562,232.9709653580696","8,7,6,5,4,3,2,1","WHEAT CROP,WHEAT CROP,WHEAT CROP,WHEAT CROP,WHEAT CROP,WHEAT CROP,WHEAT CROP,WHEAT CROP","190,130,139.64228695424535,161.37455739512268,199.02209669570766,215.8141780672251,212.97823552986387,249.86785747281056","1,7,6,5,4,3,2,1","THISTLE WEED,NETTLE WEED,NETTLE WEED,NETTLE WEED,NETTLE WEED,NETTLE WEED,NETTLE WEED,NETTLE WEED","20,20,20,20,20,20,20,20","20,20,20,20,20,20,20,20","10,10,10,10,10,10,10,10","20,20,20,20,20,20,20,20","0,0,0,0,0,0,0,0","20,20,20,20,20,20,20,20","20,20,20,20,20,20,20,20","20,20,20,20,20,20,20,20","10,10,10,10,10,10,10,10","20,20,20,20,20,20,20,20","0,0,0,0,0,0,0,0","20,20,20,20,20,20,20,20","1,0,0,0,1,1,1,1","1079,1022,1237,1202,1087,931,640,710","-14.46277309128444,27.480004762583064,50.05323301034704,4.869993494170021,-33.652526567814405,-5.574579853055706,14.257613603123993,-9.689255223339488","15.538872173394562,9.642286954245357,21.732270440877333,37.64753930058499,16.792081371517437,-2.8359425373612384,36.889621942946704,16.786253805970848","0","0"
"649","86","text","0","127","1873429","0-0","","","","","","","","","","","","","","","","","","","","","","","","","","","","","","","","","","","","",""
"","","plant-game","0","128","1891405","0-0","","200","160","4","CORN CROP","Right","200","160","1","NETTLE WEED","experimental","51","1,2,3,4","160,170,168.79957370889767,199.3264412327844","1,3,2,1","NETTLE WEED,THISTLE WEED,THISTLE WEED,THISTLE WEED","160,190.34799391966465,184.88113757099188,187.4796341466889","4,3,2,1","CORN CROP,CORN CROP,CORN CROP,CORN CROP","0,0,0,0","20,20,20,20","10,10,10,10","20,20,20,20","20,20,20,20","20,20,20,20","0,0,0,0","20,20,20,20","10,10,10,10","20,20,20,20","20,20,20,20","20,20,20,20","1,0,1,0","2263,4758,1893,935","39.47342032522756,-1.2004262911023214,30.526867523886715,-11.446913333714324","30.34799391966466,-5.466856348672765,2.5984965756970233,-6.726680997932357","0","0"
"1106","86","text","0","129","1892604","0-0","","","","","","","","","","","","","","","","","","","","","","","","","","","","","","","","","","","","",""
"","","plant-game","0","130","1901409","0-0","","200","190","2","WHEAT CROP","Right","200","180","2","NETTLE WEED","experimental","52","1,2","180,228.8163183836791","2,1","NETTLE WEED,NETTLE WEED","190,221.32609820430662","2,1","WHEAT CROP,WHEAT CROP","0,0","20,20","10,10","20,20","20,20","20,20","0,0","20,20","10,10","20,20","20,20","20,20","1,0","1241,3474","48.81631838367909,-21.679637846696956","31.326098204306604,13.26846580890434","0","0"
"681","86","text","0","131","1902220","0-0","","","","","","","","","","","","","","","","","","","","","","","","","","","","","","","","","","","","",""
"","","plant-game","0","132","1926940","0-0","","200","120","4","CORN CROP","Right","200","180","2","THISTLE WEED","experimental","53","1,2,3,4","180,165.34526191936476,180,167.32369656284115","2,1,2,1","THISTLE WEED,THISTLE WEED,NETTLE WEED,NETTLE WEED","120,121.00565877943463,133.66417917785677,168.543203362195","4,3,2,1","CORN CROP,CORN CROP,CORN CROP,CORN CROP","0,0,0,0","20,20,20,20","10,10,10,10","20,20,20,20","20,20,20,20","20,20,20,20","0,0,0,0","20,20,20,20","10,10,10,10","20,20,20,20","20,20,20,20","20,20,20,20","1,1,1,1","12101,925,3853,786","-14.654738080635227,30.960584666786872,-12.676303437158843,49.08680588291341","1.0056587794346257,12.658520398422143,34.87902418433821,26.805360127405244","0","0"
"581","86","text","0","133","1927597","0-0","","","","","","","","","","","","","","","","","","","","","","","","","","","","","","","","","","","","",""
"","","plant-game","0","134","1951263","0-0","","200","120","1","CORN CROP","Left","200","180","8","THISTLE WEED","experimental","54","1,2,3,4,5,6,7,8","120,130,147.1483563561907,164.25651995932859,146.78921658155443,96.30261654365006,96.90296620590135,96.65421938165221","1,7,6,5,4,3,2,1","CORN CROP,WHEAT CROP,WHEAT CROP,WHEAT CROP,WHEAT CROP,WHEAT CROP,WHEAT CROP,WHEAT CROP","180,188.41608652538775,156.94316326761515,189.34026829424099,213.50543763183273,250.06700361483587,271.18515532287654,302.24470681757725","8,7,6,5,4,3,2,1","THISTLE WEED,THISTLE WEED,THISTLE WEED,THISTLE WEED,THISTLE WEED,THISTLE WEED,THISTLE WEED,THISTLE WEED","20,20,20,20,20,20,20,20","20,20,20,20,20,20,20,20","10,10,10,10,10,10,10,10","20,20,20,20,20,20,20,20","0,0,0,0,0,0,0,0","20,20,20,20,20,20,20,20","20,20,20,20,20,20,20,20","20,20,20,20,20,20,20,20","10,10,10,10,10,10,10,10","20,20,20,20,20,20,20,20","0,0,0,0,0,0,0,0","20,20,20,20,20,20,20,20","0,1,0,1,1,0,0,0","2930,6256,3821,943,734,1167,350,324","14.85248701745156,17.148356356190707,17.10816360313789,-17.46730337777415,-50.486600037904374,0.6003496622512969,-0.24874682424913175,44.362268226421776","8.416086525387744,-31.472923257772596,32.39710502662583,24.165169337591745,36.56156598300312,21.118151708040692,31.059551494700738,21.86692584055218","0","0"
"647","86","text","0","135","1952020","0-0","","","","","","","","","","","","","","","","","","","","","","","","","","","","","","","","","","","","",""
"","","plant-game","0","136","1964709","0-0","","200","160","2","WHEAT CROP","Left","200","160","4","THISTLE WEED","experimental","55","1,2,3,4","160,141.75287387258192,180,185.54056713832526","2,1,2,1","WHEAT CROP,WHEAT CROP,CORN CROP,CORN CROP","160,142.20239851838915,123.99506458242246,138.3734895170726","4,3,2,1","THISTLE WEED,THISTLE WEED,THISTLE WEED,THISTLE WEED","20,20,20,20","20,20,20,20","10,10,10,10","20,20,20,20","0,0,0,0","20,20,20,20","20,20,20,20","20,20,20,20","10,10,10,10","20,20,20,20","0,0,0,0","20,20,20,20","1,1,0,0","974,913,3237,606","-18.247126127418095,-33.339897576528564,5.540567138325262,38.76645813769795","-17.797601481610847,-18.207333935966684,14.378424934650159,19.635876345480664","0","0"
"687","86","text","0","137","1965605","0-0","","","","","","","","","","","","","","","","","","","","","","","","","","","","","","","","","","","","",""
"","","plant-game","0","138","1990917","0-0","","200","120","2","CORN CROP","Right","200","120","1","NETTLE WEED","experimental","56","1,2","120,190","1,1","NETTLE WEED,THISTLE WEED","120,126.1168786731297","2,1","CORN CROP,CORN CROP","0,0","20,20","10,10","20,20","20,20","20,20","0,0","20,20","10,10","20,20","20,20","20,20","1,0","6125,10722","71.88472717694314,24.463430017774762","6.1168786731297065,22.429291294652806","0","0"
"667","86","text","0","139","1991745","0-0","","","","","","","","","","","","","","","","","","","","","","","","","","","","","","","","","","","","",""
"","","plant-game","0","140","2002244","0-0","","200","160","1","CORN CROP","Right","200","180","1","NETTLE WEED","experimental","57","1","180","1","NETTLE WEED","160","1","CORN CROP","0","20","10","20","20","20","0","20","10","20","20","20","1","4678","19.78816165793709","36.97453252820051","1","0"
"653","86","text","0","141","2003117","0-0","","","","","","","","","","","","","","","","","","","","","","","","","","","","","","","","","","","","",""
"","","plant-game","0","142","2013799","0-0","","200","180","4","CORN CROP","Right","200","190","4","NETTLE WEED","experimental","58","1,2,3,4","190,180.24275611605546,233.9813535220631,253.40117740143677","4,3,2,1","NETTLE WEED,NETTLE WEED,NETTLE WEED,NETTLE WEED","180,221.6997687618433,229.53551386031617,245.93039219787084","4,3,2,1","CORN CROP,CORN CROP,CORN CROP,CORN CROP","0,0,0,0","20,20,20,20","10,10,10,10","20,20,20,20","20,20,20,20","20,20,20,20","0,0,0,0","20,20,20,20","10,10,10,10","20,20,20,20","20,20,20,20","20,20,20,20","1,1,0,0","2370,1636,1279,633","-9.757243883944536,53.73859740600765,19.419823879373652,16.684704979739816","41.699768761843316,7.83574509847287,16.39487833755466,52.17256579082124","0","0"
"978","86","text","0","143","2015057","0-0","","","","","","","","","","","","","","","","","","","","","","","","","","","","","","","","","","","","",""
"","","plant-game","0","144","2037109","0-0","","200","120","8","WHEAT CROP","Left","200","180","8","NETTLE WEED","experimental","59","1,2,3,4,5,6,7,8","120,137.02261238743762,157.09065246190318,181.8007997231788,204.49092851627387,199.56808852465537,182.38167370967264,230.7024856429086","8,7,6,5,4,3,2,1","WHEAT CROP,WHEAT CROP,WHEAT CROP,WHEAT CROP,WHEAT CROP,WHEAT CROP,WHEAT CROP,WHEAT CROP","180,185.92238888906553,200.90421539371462,217.16835672133143,242.44403348057534,241.39514191282152,230.35841181114617,237.78945541624742","8,7,6,5,4,3,2,1","NETTLE WEED,NETTLE WEED,NETTLE WEED,NETTLE WEED,NETTLE WEED,NETTLE WEED,NETTLE WEED,NETTLE WEED","20,20,20,20,20,20,20,20","20,20,20,20,20,20,20,20","10,10,10,10,10,10,10,10","20,20,20,20,20,20,20,20","0,0,0,0,0,0,0,0","20,20,20,20,20,20,20,20","20,20,20,20,20,20,20,20","20,20,20,20,20,20,20,20","10,10,10,10,10,10,10,10","20,20,20,20,20,20,20,20","0,0,0,0,0,0,0,0","20,20,20,20,20,20,20,20","1,0,0,1,1,1,0,0","2838,3806,640,1040,1002,960,1022,1117","17.022612387437622,20.068040074465568,24.710147261275637,22.690128793095063,-4.922839991618496,-17.186414814982733,48.32081193323597,5.295917916233776","5.922388889065532,14.9818265046491,16.264141327616816,25.275676759243908,-1.048891567753836,-11.036730101675348,7.431043605101262,40.60808081620037","0","0"
"659","86","text","0","145","2037968","0-0","","","","","","","","","","","","","","","","","","","","","","","","","","","","","","","","","","","","",""
"","","plant-game","0","146","2060858","0-0","","200","120","8","CORN CROP","Right","200","120","2","NETTLE WEED","experimental","60","1,2,3,4,5,6,7,8","120,149.36766552488197,140,172.14037598694887,195.23081275028315,183.22492131969773,147.52856109107157,158.88226509072462","2,1,6,5,4,3,2,1","NETTLE WEED,NETTLE WEED,THISTLE WEED,THISTLE WEED,THISTLE WEED,THISTLE WEED,THISTLE WEED,THISTLE WEED","120,119.16759177996973,119.96498115767056,121.6791174571758,124.44336008319964,98.49592646842898,94.47790436296236,128.9158997981916","8,7,6,5,4,3,2,1","CORN CROP,CORN CROP,CORN CROP,CORN CROP,CORN CROP,CORN CROP,CORN CROP,CORN CROP","0,0,0,0,0,0,0,0","20,20,20,20,20,20,20,20","10,10,10,10,10,10,10,10","20,20,20,20,20,20,20,20","20,20,20,20,20,20,20,20","20,20,20,20,20,20,20,20","0,0,0,0,0,0,0,0","20,20,20,20,20,20,20,20","10,10,10,10,10,10,10,10","20,20,20,20,20,20,20,20","20,20,20,20,20,20,20,20","20,20,20,20,20,20,20,20","1,0,1,0,0,0,1,0","1892,1861,4033,1174,1633,1887,1128,1143","29.367665524881964,-3.1448750883651093,32.14037598694886,23.090436763334292,-12.005891430585434,-35.696360228626155,11.353703999653057,-33.980924523679874","-0.8324082200302705,0.797389377700838,1.7141362995052418,2.7642426260238246,-25.947433614770663,-4.018022105466615,34.43799543522922,34.5838573832131","0","0"
"688","86","text","0","147","2061733","0-0","","","","","","","","","","","","","","","","","","","","","","","","","","","","","","","","","","","","",""
"","","plant-game","0","148","2086935","0-0","","200","190","1","CORN CROP","Left","200","190","2","THISTLE WEED","experimental","61","1,2","190,190","1,1","CORN CROP,WHEAT CROP","190,231.351408672433","2,1","THISTLE WEED,THISTLE WEED","20,20","20,20","10,10","20,20","0,0","20,20","20,20","20,20","10,10","20,20","0,0","20,20","0,0","3909,7354","12.277279070993746,46.31300606171531","41.351408672433,3.707458933825283","1","0"
"649","86","text","0","149","2087784","0-0","","","","","","","","","","","","","","","","","","","","","","","","","","","","","","","","","","","","",""
"","","plant-game","0","150","2115670","0-0","","200","180","4","WHEAT CROP","Left","200","120","8","NETTLE WEED","experimental","62","1,2,3,4,5,6,7,8","180,158.64944166813618,173.58343244375126,197.34945463538466,160,164.3510867786159,152.53392265376527,183.27599152318302","4,3,2,1,4,3,2,1","WHEAT CROP,WHEAT CROP,WHEAT CROP,WHEAT CROP,CORN CROP,CORN CROP,CORN CROP,CORN CROP","120,144.2068464403639,141.6697506393419,172.06226371553996,185.5982602332095,221.91536094660137,240.64419130023936,307.8779788887923","8,7,6,5,4,3,2,1","NETTLE WEED,NETTLE WEED,NETTLE WEED,NETTLE WEED,NETTLE WEED,NETTLE WEED,NETTLE WEED,NETTLE WEED","20,20,20,20,20,20,20,20","20,20,20,20,20,20,20,20","10,10,10,10,10,10,10,10","20,20,20,20,20,20,20,20","0,0,0,0,0,0,0,0","20,20,20,20,20,20,20,20","20,20,20,20,20,20,20,20","20,20,20,20,20,20,20,20","10,10,10,10,10,10,10,10","20,20,20,20,20,20,20,20","0,0,0,0,0,0,0,0","20,20,20,20,20,20,20,20","1,0,0,0,1,0,0,1","6401,3156,709,1085,3146,1345,978,1204","-21.350558331863823,14.93399077561508,23.766022191633404,28.05512962295216,4.351086778615897,-11.81716412485062,30.742068869417746,-32.48589597754575","24.20684644036389,-2.53709580102198,30.392513076198046,13.535996517669533,36.317100713391895,18.72883035363798,67.23378758855296,-0.2714071467336331","0","0"
"969","86","text","0","151","2116909","0-0","","","","","","","","","","","","","","","","","","","","","","","","","","","","","","","","","","","","",""
"","","plant-game","0","152","2123907","0-0","","200","190","1","WHEAT CROP","Right","200","190","1","NETTLE WEED","experimental","63","1","190","1","NETTLE WEED","190","1","WHEAT CROP","0","20","10","20","20","20","0","20","10","20","20","20","0","1772","23.742694376303817","0.1093420723736799","0","0"
"714","86","text","0","153","2124871","0-0","","","","","","","","","","","","","","","","","","","","","","","","","","","","","","","","","","","","",""
"","","plant-game","0","154","2145258","0-0","","200","120","4","WHEAT CROP","Left","200","180","1","NETTLE WEED","experimental","64","1,2,3,4","120,130.00564081143452,120.37948919306008,144.6719955448328","4,3,2,1","WHEAT CROP,WHEAT CROP,WHEAT CROP,WHEAT CROP","180,170,135.872149248503,170.45845760220251","1,3,2,1","NETTLE WEED,THISTLE WEED,THISTLE WEED,THISTLE WEED","20,20,20,20","20,20,20,20","10,10,10,10","20,20,20,20","0,0,0,0","20,20,20,20","20,20,20,20","20,20,20,20","10,10,10,10","20,20,20,20","0,0,0,0","20,20,20,20","0,1,0,1","2967,8085,1228,1117","10.005640811434516,-9.62615161837444,24.29250635177273,2.782645050904806","20.246178890096687,-34.127850751497,34.58630835369951,4.829053187966382","0","0"
"2096","86","text","0","155","2147729","0-0","","","","","","","","","","","","","","","","","","","","","","","","","","","","","","","","","","","","",""
"","","plant-game","0","156","2168093","0-0","","200","120","2","CORN CROP","Right","200","160","4","NETTLE WEED","experimental","65","1,2,3,4","160,188.2580092214062,231.02552653840866,232.05661901851633","4,3,2,1","NETTLE WEED,NETTLE WEED,NETTLE WEED,NETTLE WEED","120,86.5440308156953,180,180.64453378098352","2,1,2,1","CORN CROP,CORN CROP,WHEAT CROP,WHEAT CROP","0,0,0,0","20,20,20,20","10,10,10,10","20,20,20,20","20,20,20,20","20,20,20,20","0,0,0,0","20,20,20,20","10,10,10,10","20,20,20,20","20,20,20,20","20,20,20,20","0,1,0,0","1995,1964,5173,1441","28.258009221406212,42.76751731700244,1.0310924801076724,-3.062468480716835","-33.4559691843047,18.64210648542688,0.6445337809835118,-9.559159512013863","0","0"
"707","86","text","0","157","2169010","0-0","","","","","","","","","","","","","","","","","","","","","","","","","","","","","","","","","","","","",""
"","","plant-game","0","158","2221119","0-0","","200","180","8","WHEAT CROP","Right","200","180","4","THISTLE WEED","experimental","66","1,2,3,4,5,6,7,8","180,205.82696446852503,195.9057004503824,171.41715392204182,160,166.48474969273317,195.53478029413196,215.20258147512183","4,3,2,1,4,3,2,1","THISTLE WEED,THISTLE WEED,THISTLE WEED,THISTLE WEED,NETTLE WEED,NETTLE WEED,NETTLE WEED,NETTLE WEED","180,201.4285590978412,217.5323560465481,205.84366441377523,246.934073119266,256.3621992012061,322.71185843289635,315.9793913269575","8,7,6,5,4,3,2,1","WHEAT CROP,WHEAT CROP,WHEAT CROP,WHEAT CROP,WHEAT CROP,WHEAT CROP,WHEAT CROP,WHEAT CROP","0,0,0,0,0,0,0,0","20,20,20,20,20,20,20,20","10,10,10,10,10,10,10,10","20,20,20,20,20,20,20,20","20,20,20,20,20,20,20,20","20,20,20,20,20,20,20,20","0,0,0,0,0,0,0,0","20,20,20,20,20,20,20,20","10,10,10,10,10,10,10,10","20,20,20,20,20,20,20,20","20,20,20,20,20,20,20,20","20,20,20,20,20,20,20,20","1,0,0,1,0,1,0,1","21910,3825,2295,3354,5688,1273,1296,3299","25.82696446852504,-9.921264018142637,-24.488546528340574,24.505132208710016,6.4847496927331685,29.050030601398795,19.667801180989862,47.87574672914521","21.42855909784119,16.1037969487069,-11.688691632772873,41.090408705490766,9.428126081940118,66.34965923169023,-6.732467105938811,1.7170721898028845","0","0"
"1141","86","text","0","159","2222370","0-0","","","","","","","","","","","","","","","","","","","","","","","","","","","","","","","","","","","","",""
"","","plant-game","0","160","2244986","0-0","","200","180","1","CORN CROP","Left","200","160","2","THISTLE WEED","experimental","67","1,2","180,190","1,1","CORN CROP,WHEAT CROP","160,164.37492631523722","2,1","THISTLE WEED,THISTLE WEED","20,20","20,20","10,10","20,20","0,0","20,20","20,20","20,20","10,10","20,20","0,0","20,20","0,0","12479,2743","21.03138570789302,16.47676968103421","4.374926315237227,49.348711106344524","0","0"
"648","86","text","0","161","2245824","0-0","","","","","","","","","","","","","","","","","","","","","","","","","","","","","","","","","","","","",""
"","","plant-game","0","162","2261643","0-0","","200","160","4","CORN CROP","Right","200","190","2","THISTLE WEED","experimental","68","1,2,3,4","190,199.8096088366171,180,212.69815329789304","2,1,2,1","THISTLE WEED,THISTLE WEED,NETTLE WEED,NETTLE WEED","160,156.12038864645078,160.02241598405664,134.96533117747433","4,3,2,1","CORN CROP,CORN CROP,CORN CROP,CORN CROP","0,0,0,0","20,20,20,20","10,10,10,10","20,20,20,20","20,20,20,20","20,20,20,20","0,0,0,0","20,20,20,20","10,10,10,10","20,20,20,20","20,20,20,20","20,20,20,20","1,0,0,1","2245,1194,2239,2814","9.809608836617095,5.017206598330219,32.69815329789304,-3.668670220766913","-3.879611353549226,3.902027337605861,-25.05708480658232,31.45638557416225","0","0"
"563","86","text","0","163","2262436","0-0","","","","","","","","","","","","","","","","","","","","","","","","","","","","","","","","","","","","",""
"","","plant-game","0","164","2279619","0-0","","200","120","8","CORN CROP","Right","200","190","1","NETTLE WEED","experimental","69","1,2,3,4,5,6,7,8","190,130,125.81885432122235,133.68568674038227,130.07315132401328,159.18025001438787,186.3342112981191,160.1064148152762","1,7,6,5,4,3,2,1","NETTLE WEED,THISTLE WEED,THISTLE WEED,THISTLE WEED,THISTLE WEED,THISTLE WEED,THISTLE WEED,THISTLE WEED","120,113.79459473429961,108.95711410384988,125.0013698617744,151.06740048328004,141.34498600426787,160.42786916525296,169.19229867845684","8,7,6,5,4,3,2,1","CORN CROP,CORN CROP,CORN CROP,CORN CROP,CORN CROP,CORN CROP,CORN CROP,CORN CROP","0,0,0,0,0,0,0,0","20,20,20,20,20,20,20,20","10,10,10,10,10,10,10,10","20,20,20,20,20,20,20,20","20,20,20,20,20,20,20,20","20,20,20,20,20,20,20,20","0,0,0,0,0,0,0,0","20,20,20,20,20,20,20,20","10,10,10,10,10,10,10,10","20,20,20,20,20,20,20,20","20,20,20,20,20,20,20,20","20,20,20,20,20,20,20,20","1,0,1,0,0,1,0,1","842,2720,1110,725,774,518,759,1274","28.506399215694184,-4.181145678777648,7.866832419159916,-3.6125354163689742,29.107098690374574,27.153961283731224,-26.227796482842898,13.299208728331358","-6.205405265700385,-4.837480630449726,16.04425575792453,26.066030621505636,-9.722414479012173,19.08288316098508,8.764429513203865,42.001115245285995","0","0"
"974","86","text","0","165","2280737","0-0","","","","","","","","","","","","","","","","","","","","","","","","","","","","","","","","","","","","",""
"","","plant-game","0","166","2298683","0-0","","200","120","2","WHEAT CROP","Left","200","160","8","THISTLE WEED","experimental","70","1,2,3,4,5,6,7,8","120,159.94647255542432,140,153.2708571344233,167.3104674831779,149.1846966090606,139.65514558631588,170.98261219038255","2,1,6,5,4,3,2,1","WHEAT CROP,WHEAT CROP,CORN CROP,CORN CROP,CORN CROP,CORN CROP,CORN CROP,CORN CROP","160,180.34978098554564,176.15054759806955,187.37762369939014,181.80630962340413,184.4489968012912,188.09691411183016,179.17068435014195","8,7,6,5,4,3,2,1","THISTLE WEED,THISTLE WEED,THISTLE WEED,THISTLE WEED,THISTLE WEED,THISTLE WEED,THISTLE WEED,THISTLE WEED","20,20,20,20,20,20,20,20","20,20,20,20,20,20,20,20","10,10,10,10,10,10,10,10","20,20,20,20,20,20,20,20","0,0,0,0,0,0,0,0","20,20,20,20,20,20,20,20","20,20,20,20,20,20,20,20","20,20,20,20,20,20,20,20","10,10,10,10,10,10,10,10","20,20,20,20,20,20,20,20","0,0,0,0,0,0,0,0","20,20,20,20,20,20,20,20","0,1,0,1,1,0,1,1","1640,659,1593,731,868,600,479,2609","39.946472555424315,-30.26620481237763,13.270857134423299,14.039610348754604,-18.125770874117272,-9.529551022744727,31.327466604066668,-16.724842682159338","20.349780985545635,-4.199233387476085,11.227076101320582,-5.571314075985997,2.6426871778870824,3.647917310538954,-8.926229761688196,-24.563229732387697","0","0"
"944","86","text","0","167","2299892","0-0","","","","","","","","","","","","","","","","","","","","","","","","","","","","","","","","","","","","",""
"","","plant-game","0","168","2305948","0-0","","200","190","2","CORN CROP","Right","200","190","2","NETTLE WEED","experimental","71","1,2","190,176.21212136842303","2,1","NETTLE WEED,NETTLE WEED","190,182.3991197216377","2,1","CORN CROP,CORN CROP","0,0","20,20","10,10","20,20","20,20","20,20","0,0","20,20","10,10","20,20","20,20","20,20","0,1","627,833","-13.787878631576975,24.078110471103493","-7.600880278362307,33.895992249861564","0","0"
"1160","86","text","0","169","2307263","0-0","","","","","","","","","","","","","","","","","","","","","","","","","","","","","","","","","","","","",""
"","","plant-game","0","170","2317700","0-0","","200","120","4","WHEAT CROP","Left","200","180","4","THISTLE WEED","experimental","72","1,2,3,4","120,165.70457465997558,202.84249758600444,157.9620120718767","4,3,2,1","WHEAT CROP,WHEAT CROP,WHEAT CROP,WHEAT CROP","180,173.4973067422212,213.50986892138397,202.7153874923554","4,3,2,1","THISTLE WEED,THISTLE WEED,THISTLE WEED,THISTLE WEED","20,20,20,20","20,20,20,20","10,10,10,10","20,20,20,20","0,0,0,0","20,20,20,20","20,20,20,20","20,20,20,20","10,10,10,10","20,20,20,20","0,0,0,0","20,20,20,20","0,0,1,0","1997,723,1519,873","45.704574659975584,37.137922926028864,-44.88048551412774,36.784332258788886","-6.5026932577787875,40.01256217916275,-10.794481429028577,38.62355417471075","0","0"
"1086","86","text","0","171","2318966","0-0","","","","","","","","","","","","","","","","","","","","","","","","","","","","","","","","","","","","",""
"","","plant-game","0","172","2327116","0-0","","200","120","4","CORN CROP","Right","200","120","4","THISTLE WEED","experimental","73","1,2,3,4","120,134.35776778860765,141.79539915524123,150.37272158748465","4,3,2,1","THISTLE WEED,THISTLE WEED,THISTLE WEED,THISTLE WEED","120,144.88409471447125,127.65674532510285,164.29127329237207","4,3,2,1","CORN CROP,CORN CROP,CORN CROP,CORN CROP","0,0,0,0","20,20,20,20","10,10,10,10","20,20,20,20","20,20,20,20","20,20,20,20","0,0,0,0","20,20,20,20","10,10,10,10","20,20,20,20","20,20,20,20","20,20,20,20","0,0,1,1","754,1114,711,924","14.35776778860764,7.437631366633578,8.577322432243417,19.368833601795405","24.884094714471246,-17.227349389368403,36.63452796726923,-2.1887962123708036","0","0"
"1797","86","text","0","173","2329116","0-0","","","","","","","","","","","","","","","","","","","","","","","","","","","","","","","","","","","","",""
"","","plant-game","0","174","2348013","0-0","","200","190","1","WHEAT CROP","Right","200","180","4","NETTLE WEED","experimental","74","1,2,3,4","180,154.95080006748788,212.0768135706925,204.1881191266848","4,3,2,1","NETTLE WEED,NETTLE WEED,NETTLE WEED,NETTLE WEED","190,170,192.06709881964517,182.35618932581062","1,3,2,1","WHEAT CROP,CORN CROP,CORN CROP,CORN CROP","0,0,0,0","20,20,20,20","10,10,10,10","20,20,20,20","20,20,20,20","20,20,20,20","0,0,0,0","20,20,20,20","10,10,10,10","20,20,20,20","20,20,20,20","20,20,20,20","0,1,0,0","6500,2550,1708,486","-25.04919993251211,57.126013503204625,-7.888694444007712,-17.749893770613273","-37.61030289286487,22.06709881964516,-9.710909493834553,2.2539626099546655","0","0"
"792","86","text","0","175","2348955","0-0","","","","","","","","","","","","","","","","","","","","","","","","","","","","","","","","","","","","",""
"","","plant-game","0","176","2365254","0-0","","200","120","4","CORN CROP","Left","200","120","1","THISTLE WEED","experimental","75","1,2,3,4","120,157.58074199445352,218.05506619907493,189.8616708643583","4,3,2,1","CORN CROP,CORN CROP,CORN CROP,CORN CROP","120,170,202.72734613955902,166.19808170279475","1,3,2,1","THISTLE WEED,NETTLE WEED,NETTLE WEED,NETTLE WEED","20,20,20,20","20,20,20,20","10,10,10,10","20,20,20,20","0,0,0,0","20,20,20,20","20,20,20,20","20,20,20,20","10,10,10,10","20,20,20,20","0,0,0,0","20,20,20,20","0,0,1,0","1214,1875,2228,1312","37.58074199445351,60.474324204621425,-28.193395334716623,16.416850896950844","-4.227274230379862,32.72734613955902,-36.52926443676425,38.37387696594079","0","0"
"1204","86","text","0","177","2366618","0-0","","","","","","","","","","","","","","","","","","","","","","","","","","","","","","","","","","","","",""
"","","plant-game","0","178","2382545","0-0","","200","180","2","WHEAT CROP","Left","200","160","8","NETTLE WEED","experimental","76","1,2,3,4,5,6,7,8","180,184.48228388689702,140,179.88681306827684,209.83087829989637,251.4080093774695,276.90212613682684,273.45965948002447","2,1,6,5,4,3,2,1","WHEAT CROP,WHEAT CROP,CORN CROP,CORN CROP,CORN CROP,CORN CROP,CORN CROP,CORN CROP","160,194.49049317323036,187.1128954410233,239.26562602327135,267.1281995431891,289.88316586648835,301.7718427544878,313.1005839254834","8,7,6,5,4,3,2,1","NETTLE WEED,NETTLE WEED,NETTLE WEED,NETTLE WEED,NETTLE WEED,NETTLE WEED,NETTLE WEED,NETTLE WEED","20,20,20,20,20,20,20,20","20,20,20,20,20,20,20,20","10,10,10,10,10,10,10,10","20,20,20,20,20,20,20,20","0,0,0,0,0,0,0,0","20,20,20,20,20,20,20,20","20,20,20,20,20,20,20,20","20,20,20,20,20,20,20,20","10,10,10,10,10,10,10,10","20,20,20,20,20,20,20,20","0,0,0,0,0,0,0,0","20,20,20,20,20,20,20,20","0,1,0,0,0,0,0,0","1222,1269,2109,1077,247,304,248,325","4.482283886897015,-61.08707401624429,39.886813068276844,29.94406523161954,41.577131077573156,25.49411675935732,-3.442466656802395,1.6131797824100538","34.49049317323036,-7.377597732207047,52.15273058224803,27.862573519917756,22.75496632329925,11.888676887999472,11.32874117099559,24.914216529752455","0","0"
"1068","86","text","0","179","2383793","0-0","","","","","","","","","","","","","","","","","","","","","","","","","","","","","","","","","","","","",""
"","","plant-game","0","180","2401848","0-0","","200","190","1","CORN CROP","Right","200","180","8","NETTLE WEED","experimental","77","1,2,3,4,5,6,7,8","180,208.34819668149566,214.00342314034415,229.24254835211957,257.71479021953945,255.944028395137,286.0511854034202,275.2045143674979","8,7,6,5,4,3,2,1","NETTLE WEED,NETTLE WEED,NETTLE WEED,NETTLE WEED,NETTLE WEED,NETTLE WEED,NETTLE WEED,NETTLE WEED","190,130,129.41837605105712,165.51456854228263,208.77124494427545,259.14885562180797,234.09088112709458,258.2360781130144","1,7,6,5,4,3,2,1","CORN CROP,WHEAT CROP,WHEAT CROP,WHEAT CROP,WHEAT CROP,WHEAT CROP,WHEAT CROP,WHEAT CROP","0,0,0,0,0,0,0,0","20,20,20,20,20,20,20,20","10,10,10,10,10,10,10,10","20,20,20,20,20,20,20,20","20,20,20,20,20,20,20,20","20,20,20,20,20,20,20,20","0,0,0,0,0,0,0,0","20,20,20,20,20,20,20,20","10,10,10,10,10,10,10,10","20,20,20,20,20,20,20,20","20,20,20,20,20,20,20,20","20,20,20,20,20,20,20,20","1,0,1,1,0,0,1,1","1073,1614,1012,1024,1267,676,1110,599","28.348196681495672,5.655226458848502,15.23912521177541,28.47224186741989,-1.770761824402469,30.107157008283224,-10.846671035922316,-7.202648197052234","38.69210190970112,-0.5816239489428631,36.0961924912255,43.256676401992806,50.3776106775325,-25.057974494713392,24.14519698591985,24.057960306736508","0","0"
"949","86","text","0","181","2402947","0-0","","","","","","","","","","","","","","","","","","","","","","","","","","","","","","","","","","","","",""
"","","plant-game","0","182","2413132","0-0","","200","180","1","WHEAT CROP","Left","200","120","2","NETTLE WEED","experimental","78","1,2","180,190","1,1","WHEAT CROP,CORN CROP","120,127.92665930014445","2,1","NETTLE WEED,NETTLE WEED","20,20","20,20","10,10","20,20","0,0","20,20","20,20","20,20","10,10","20,20","0,0","20,20","1,0","2364,800","-4.679002579131544,-6.4385471869069555","7.926659300144443,-20.87263404070866","0","0"
"682","86","text","0","183","2413939","0-0","","","","","","","","","","","","","","","","","","","","","","","","","","","","","","","","","","","","",""
"","","plant-game","0","184","2427419","0-0","","200","190","2","CORN CROP","Left","200","160","1","NETTLE WEED","experimental","79","1,2","190,182.07471490083452","2,1","CORN CROP,CORN CROP","160,190","1,1","NETTLE WEED,THISTLE WEED","20,20","20,20","10,10","20,20","0,0","20,20","20,20","20,20","10,10","20,20","0,0","20,20","1,0","2020,2403","-7.92528509916547,50.52847671257933","-26.343286299653442,27.055066539298025","1","0"
"652","86","text","0","185","2428247","0-0","","","","","","","","","","","","","","","","","","","","","","","","","","","","","","","","","","","","",""
"","","plant-game","0","186","2447062","0-0","","200","180","4","CORN CROP","Left","200","180","1","NETTLE WEED","experimental","80","1,2,3,4","180,168.59140994164807,185.46605051526402,194.5893061948572","4,3,2,1","CORN CROP,CORN CROP,CORN CROP,CORN CROP","180,170,195.03785063182445,203.0235063156065","1,3,2,1","NETTLE WEED,THISTLE WEED,THISTLE WEED,THISTLE WEED","20,20,20,20","20,20,20,20","10,10,10,10","20,20,20,20","0,0,0,0","20,20,20,20","20,20,20,20","20,20,20,20","10,10,10,10","20,20,20,20","0,0,0,0","20,20,20,20","0,0,1,1","1141,1929,1432,676","-11.408590058351944,16.87464057361594,9.123255679593184,3.8725149454943795","5.695191247974442,25.03785063182445,7.985655683782057,3.638256109264592","0","0"
"4673","86","text","0","187","2451965","0-0","","","","","","","","","","","","","","","","","","","","","","","","","","","","","","","","","","","","",""
"","","plant-game","0","188","2476966","0-0","","200","160","8","WHEAT CROP","Left","200","120","1","THISTLE WEED","experimental","81","1,2,3,4,5,6,7,8","160,193.83434712390812,191.50779623109855,144.85228128913548,182.01424184694375,218.8141980219155,195.4073794511954,240.1073148309311","8,7,6,5,4,3,2,1","WHEAT CROP,WHEAT CROP,WHEAT CROP,WHEAT CROP,WHEAT CROP,WHEAT CROP,WHEAT CROP,WHEAT CROP","120,130,109.00026381741077,119.11950537221874,191.40633405421266,229.19882499321795,243.38290987081461,253.2087590206798","1,7,6,5,4,3,2,1","THISTLE WEED,NETTLE WEED,NETTLE WEED,NETTLE WEED,NETTLE WEED,NETTLE WEED,NETTLE WEED,NETTLE WEED","20,20,20,20,20,20,20,20","20,20,20,20,20,20,20,20","10,10,10,10,10,10,10,10","20,20,20,20,20,20,20,20","0,0,0,0,0,0,0,0","20,20,20,20,20,20,20,20","20,20,20,20,20,20,20,20","20,20,20,20,20,20,20,20","10,10,10,10,10,10,10,10","20,20,20,20,20,20,20,20","0,0,0,0,0,0,0,0","20,20,20,20,20,20,20,20","1,0,1,0,0,1,0,0","2565,2440,1296,974,936,5449,1078,673","33.83434712390811,-2.3265508928095677,-46.65551494196308,37.16196055780827,36.79995617497174,-23.406818570720112,44.699935379735706,13.384423802323164","14.091074151564735,-20.99973618258923,10.119241554807965,72.28682868199392,37.79249093900529,14.184084877596664,9.825849149865178,44.614786735286266","0","0"
"927","86","text","0","189","2478146","0-0","","","","","","","","","","","","","","","","","","","","","","","","","","","","","","","","","","","","",""
"","","plant-game","0","190","2497193","0-0","","200","180","8","WHEAT CROP","Right","200","180","2","NETTLE WEED","experimental","82","1,2,3,4,5,6,7,8","180,203.4777183529139,140,144.43506919242455,173.43139897444695,187.271636440834,186.21231769878415,196.05783350342597","2,1,6,5,4,3,2,1","NETTLE WEED,NETTLE WEED,THISTLE WEED,THISTLE WEED,THISTLE WEED,THISTLE WEED,THISTLE WEED,THISTLE WEED","180,181.12011631121615,160.4689936612651,130.8918706698296,140.24917916317682,128.11113204647123,133.77333674039764,157.38965574495762","8,7,6,5,4,3,2,1","WHEAT CROP,WHEAT CROP,WHEAT CROP,WHEAT CROP,WHEAT CROP,WHEAT CROP,WHEAT CROP,WHEAT CROP","0,0,0,0,0,0,0,0","20,20,20,20,20,20,20,20","10,10,10,10,10,10,10,10","20,20,20,20,20,20,20,20","20,20,20,20,20,20,20,20","20,20,20,20,20,20,20,20","0,0,0,0,0,0,0,0","20,20,20,20,20,20,20,20","10,10,10,10,10,10,10,10","20,20,20,20,20,20,20,20","20,20,20,20,20,20,20,20","20,20,20,20,20,20,20,20","0,1,0,1,0,1,1,0","1702,4403,1236,728,702,722,352,1058","23.47771835291391,33.370519218213374,4.435069192424538,28.996329782022404,13.840237466387029,-1.0593187420498253,9.845515804641817,-16.137296857559612","1.1201163112161383,-20.65112264995105,-29.57712299143551,9.357308493347222,-12.1380471167056,5.662204693926409,23.616319004559998,-28.555423507684296","0","0"
"842","86","text","0","191","2498162","0-0","","","","","","","","","","","","","","","","","","","","","","","","","","","","","","","","","","","","",""
"","","plant-game","0","192","2502937","0-0","","200","190","1","WHEAT CROP","Right","200","180","1","THISTLE WEED","experimental","83","1","180","1","THISTLE WEED","190","1","WHEAT CROP","0","20","10","20","20","20","0","20","10","20","20","20","0","658","-14.591626583734268","4.440393791704254","0","0"
"623","86","text","0","193","2503669","0-0","","","","","","","","","","","","","","","","","","","","","","","","","","","","","","","","","","","","",""
"","","plant-game","0","194","2508055","0-0","","200","120","1","CORN CROP","Left","200","190","1","THISTLE WEED","experimental","84","1","120","1","CORN CROP","190","1","THISTLE WEED","20","20","10","20","0","20","20","20","10","20","0","20","1","582","-12.093454438467322","0.8049631910029618","0","0"
"1062","86","text","0","195","2509244","0-0","","","","","","","","","","","","","","","","","","","","","","","","","","","","","","","","","","","","",""
"","","plant-game","0","196","2523351","0-0","","200","190","4","CORN CROP","Left","200","120","2","NETTLE WEED","experimental","85","1,2,3,4","190,184.71337176364062,176.25319578946915,218.90523491034406","4,3,2,1","CORN CROP,CORN CROP,CORN CROP,CORN CROP","120,129.86495752729508,180,232.79714253331","2,1,2,1","NETTLE WEED,NETTLE WEED,THISTLE WEED,THISTLE WEED","20,20,20,20","20,20,20,20","10,10,10,10","20,20,20,20","0,0,0,0","20,20,20,20","20,20,20,20","20,20,20,20","10,10,10,10","20,20,20,20","0,0,0,0","20,20,20,20","0,1,0,1","1347,1236,1061,1530","-5.286628236359384,-8.460175974171465,42.65203912087492,14.987689539354768","9.864957527295077,12.114294047501417,52.797142533309994,-5.862817063153566","0","0"
"659","86","text","0","197","2524130","0-0","","","","","","","","","","","","","","","","","","","","","","","","","","","","","","","","","","","","",""
"","","plant-game","0","198","2532499","0-0","","200","160","1","CORN CROP","Right","200","160","1","THISTLE WEED","experimental","86","1","160","1","THISTLE WEED","160","1","CORN CROP","0","20","10","20","20","20","0","20","10","20","20","20","1","3171","23.502769288356934","1.5213947134951447","0","0"
"720","86","text","0","199","2533379","0-0","","","","","","","","","","","","","","","","","","","","","","","","","","","","","","","","","","","","",""
"","","plant-game","0","200","2549018","0-0","","200","160","4","CORN CROP","Right","200","190","8","THISTLE WEED","experimental","87","1,2,3,4,5,6,7,8","190,157.6342639337807,190.8661988811978,193.7909781047049,221.71427936742143,219.42045942807263,238.6992406274167,238.63578319935823","8,7,6,5,4,3,2,1","THISTLE WEED,THISTLE WEED,THISTLE WEED,THISTLE WEED,THISTLE WEED,THISTLE WEED,THISTLE WEED,THISTLE WEED","160,178.8546229376702,180.34585423180647,189.49098943687818,160,174.69437910141153,200.46400695502962,199.9212549872351","4,3,2,1,4,3,2,1","CORN CROP,CORN CROP,CORN CROP,CORN CROP,WHEAT CROP,WHEAT CROP,WHEAT CROP,WHEAT CROP","0,0,0,0,0,0,0,0","20,20,20,20,20,20,20,20","10,10,10,10,10,10,10,10","20,20,20,20,20,20,20,20","20,20,20,20,20,20,20,20","20,20,20,20,20,20,20,20","0,0,0,0,0,0,0,0","20,20,20,20,20,20,20,20","10,10,10,10,10,10,10,10","20,20,20,20,20,20,20,20","20,20,20,20,20,20,20,20","20,20,20,20,20,20,20,20","0,0,1,1,0,0,0,1","823,942,584,831,1291,569,1889,870","-32.365736066219306,33.2319349474171,2.9247792235070946,27.923301262716546,-2.2938199393487952,19.27878119934407,-0.06345742805849351,8.43271147189389","18.854622937670197,1.4912312941362569,9.145135205071721,-17.395766509095104,14.694379101411519,25.76962785361808,-0.542751967794518,27.688319615604208","0","0"
"587","86","text","0","201","2549746","0-0","","","","","","","","","","","","","","","","","","","","","","","","","","","","","","","","","","","","",""
"","","plant-game","0","202","2557686","0-0","","200","190","4","CORN CROP","Left","200","190","4","NETTLE WEED","experimental","88","1,2,3,4","190,224.52567748171577,204.77638211053807,282.90174831441954","4,3,2,1","CORN CROP,CORN CROP,CORN CROP,CORN CROP","190,204.35070583699903,211.1991664421731,240.8728971119671","4,3,2,1","NETTLE WEED,NETTLE WEED,NETTLE WEED,NETTLE WEED","20,20,20,20","20,20,20,20","10,10,10,10","20,20,20,20","0,0,0,0","20,20,20,20","20,20,20,20","20,20,20,20","10,10,10,10","20,20,20,20","0,0,0,0","20,20,20,20","0,1,0,1","956,1093,880,1124","34.52567748171579,-19.7492953711777,78.12536620388146,-12.16464556636279","14.350705836999031,6.848460605174074,29.673730669794008,37.08757089051134","0","0"
"676","86","text","0","203","2558492","0-0","","","","","","","","","","","","","","","","","","","","","","","","","","","","","","","","","","","","",""
