"rt","key_press","trial_type","trial_index","trial_index_global","time_elapsed","internal_chunk_id","responses","experimental_goal_height","experimental_start_height","experimental_weeks_total","experimental_crop_type","experimental_crop_side","fixed_goal_height","fixed_start_height","fixed_weeks_total","fixed_crop_type","trial_kind","trial_number","stage","left_current_height","left_weeks_remaining","left_crop_type","right_current_height","right_weeks_remaining","right_crop_type","mean_left_growth_given_left","sd_left_growth_given_left","mean_left_growth_given_middle","sd_left_growth_given_middle","mean_left_growth_given_right","sd_left_growth_given_right","mean_right_growth_given_left","sd_right_growth_given_left","mean_right_growth_given_middle","sd_right_growth_given_middle","mean_right_growth_given_right","sd_right_growth_given_right","response","response_time","left_growth","right_growth","other_key_pressed","mouse_clicked"
"3039570","77","text","0","0","3039712","0-0","","","","","","","","","","","","","","","","","","","","","","","","","","","","","","","","","","","","",""
"5647","","survey-text","0","1","3046370","0-0","{""Q0"":""18""}","","","","","","","","","","","","","","","","","","","","","","","","","","","","","","","","","","","",""
"4665","86","text","0","2","4806","0-0","","","","","","","","","","","","","","","","","","","","","","","","","","","","","","","","","","","","",""
"","","plant-game","0","3","62444","0-0","","200","120","8","CORN CROP","Right","200","120","8","THISTLE WEED","practice","1","1,2,3,4,5,6,7,8","120,111.85572321634469,135.4910361060595,152.02426206324924,174.8356445218274,174.64236850043264,196.4873208802215,200.6349555174829","8,7,6,5,4,3,2,1","THISTLE WEED,THISTLE WEED,THISTLE WEED,THISTLE WEED,THISTLE WEED,THISTLE WEED,THISTLE WEED,THISTLE WEED","120,157.85489573089126,200.5087062455073,218.14115218991597,224.8503328263464,278.4931333240607,303.7353801128901,307.6281719472024","8,7,6,5,4,3,2,1","CORN CROP,CORN CROP,CORN CROP,CORN CROP,CORN CROP,CORN CROP,CORN CROP,CORN CROP","0,0,0,0,0,0,0,0","20,20,20,20,20,20,20,20","10,10,10,10,10,10,10,10","20,20,20,20,20,20,20,20","20,20,20,20,20,20,20,20","20,20,20,20,20,20,20,20","0,0,0,0,0,0,0,0","20,20,20,20,20,20,20,20","10,10,10,10,10,10,10,10","20,20,20,20,20,20,20,20","20,20,20,20,20,20,20,20","20,20,20,20,20,20,20,20","1,1,1,1,1,1,0,0","12236,2360,4360,1055,454,1819,2191,2013","-8.144276783655314,23.635312889714818,16.533225957189728,22.811382458578148,-0.1932760213947624,21.84495237978884,4.147634637261406,-27.573297178069186","37.854895730891265,42.65381051461604,17.632445944408666,6.70918063643043,53.642800497714276,25.242246788829394,3.892791834312317,-8.66574746757719","0","0"
"926","86","text","0","4","63510","0-0","","","","","","","","","","","","","","","","","","","","","","","","","","","","","","","","","","","","",""
"","","plant-game","0","5","93997","0-0","","200","160","4","WHEAT CROP","Right","200","160","4","NETTLE WEED","practice","2","1,2,3,4","160,192.97090809911532,174.00012841318082,197.6675866122611","4,3,2,1","NETTLE WEED,NETTLE WEED,NETTLE WEED,NETTLE WEED","160,169.77339546424287,181.8518121695739,210.9645249365827","4,3,2,1","WHEAT CROP,WHEAT CROP,WHEAT CROP,WHEAT CROP","0,0,0,0","20,20,20,20","10,10,10,10","20,20,20,20","20,20,20,20","20,20,20,20","0,0,0,0","20,20,20,20","10,10,10,10","20,20,20,20","20,20,20,20","20,20,20,20","1,0,1,0","7500,2803,3225,1792","32.97090809911533,-18.97077968593451,23.66745819908026,-4.04469243463708","9.773395464242876,12.07841670533101,29.112712767008812,13.903160577470157","0","0"
"993","86","text","0","6","95120","0-0","","","","","","","","","","","","","","","","","","","","","","","","","","","","","","","","","","","","",""
"","","plant-game","0","7","116512","0-0","","200","180","2","CORN CROP","Left","200","180","2","THISTLE WEED","practice","3","1,2","180,190.4873156970463","2,1","CORN CROP,CORN CROP","180,177.8649565641933","2,1","THISTLE WEED,THISTLE WEED","20,20","20,20","10,10","20,20","0,0","20,20","20,20","20,20","10,10","20,20","0,0","20,20","0,1","5201,1890","10.487315697046311,14.220357785988654","-2.1350434358066934,6.468143528843316","0","0"
"622","86","text","0","8","117265","0-0","","","","","","","","","","","","","","","","","","","","","","","","","","","","","","","","","","","","",""
"","","plant-game","0","9","137518","0-0","","200","190","1","CORN CROP","Left","200","190","1","THISTLE WEED","practice","4","1","190","1","CORN CROP","190","1","THISTLE WEED","20","20","10","20","0","20","20","20","10","20","0","20","0","1810","9.17815199585899","8.096698185943097","0","0"
"671","86","text","0","10","138314","0-0","","","","","","","","","","","","","","","","","","","","","","","","","","","","","","","","","","","","",""
"","","plant-game","0","11","168308","0-0","","200","120","8","WHEAT CROP","Right","200","160","8","THISTLE WEED","practice","5","1,2,3,4,5,6,7,8","160,171.21552601732975,192.63124678783095,205.45665886547587,226.45284612701028,271.97994933407995,305.1448610409958,316.3645279684012","8,7,6,5,4,3,2,1","THISTLE WEED,THISTLE WEED,THISTLE WEED,THISTLE WEED,THISTLE WEED,THISTLE WEED,THISTLE WEED,THISTLE WEED","120,124.1580349091408,141.82674369955447,144.71190801563506,151.32706628853435,143.37782998677224,157.35052965752317,152.19766424251432","8,7,6,5,4,3,2,1","WHEAT CROP,WHEAT CROP,WHEAT CROP,WHEAT CROP,WHEAT CROP,WHEAT CROP,WHEAT CROP,WHEAT CROP","0,0,0,0,0,0,0,0","20,20,20,20,20,20,20,20","10,10,10,10,10,10,10,10","20,20,20,20,20,20,20,20","20,20,20,20,20,20,20,20","20,20,20,20,20,20,20,20","0,0,0,0,0,0,0,0","20,20,20,20,20,20,20,20","10,10,10,10,10,10,10,10","20,20,20,20,20,20,20,20","20,20,20,20,20,20,20,20","20,20,20,20,20,20,20,20","0,0,0,1,1,1,1,1","1992,1400,2408,2561,742,788,1112,1876","11.215526017329738,21.415720770501196,12.825412077644922,20.9961872615344,45.52710320706964,33.16491170691584,11.2196669274054,41.1202897371645","4.158034909140789,17.668708790413664,2.885164316080605,6.6151582728992935,-7.94923630176212,13.972699670750924,-5.152865415008851,18.0634363517367","0","0"
"557","86","text","0","12","168965","0-0","","","","","","","","","","","","","","","","","","","","","","","","","","","","","","","","","","","","",""
"","","plant-game","0","13","186977","0-0","","200","180","4","WHEAT CROP","Left","200","160","4","THISTLE WEED","practice","6","1,2,3,4","180,195.02425776738443,225.37594361947473,240.57536056171105","4,3,2,1","WHEAT CROP,WHEAT CROP,WHEAT CROP,WHEAT CROP","160,183.20178045223307,234.28741830474422,224.0775301367632","4,3,2,1","THISTLE WEED,THISTLE WEED,THISTLE WEED,THISTLE WEED","20,20,20,20","20,20,20,20","10,10,10,10","20,20,20,20","0,0,0,0","20,20,20,20","20,20,20,20","20,20,20,20","10,10,10,10","20,20,20,20","0,0,0,0","20,20,20,20","0,0,1,1","2524,2053,2100,993","15.02425776738444,30.351685852090306,15.199416942236324,-10.690363603298003","23.201780452233077,51.08563785251114,-10.20988816798103,25.663686919527493","0","0"
"632","86","text","0","14","187759","0-0","","","","","","","","","","","","","","","","","","","","","","","","","","","","","","","","","","","","",""
"","","plant-game","0","15","209109","0-0","","200","180","2","CORN CROP","Right","200","190","2","THISTLE WEED","practice","7","1,2","190,170.60272099529428","2,1","THISTLE WEED,THISTLE WEED","180,155.2915329399802","2,1","CORN CROP,CORN CROP","0,0","20,20","10,10","20,20","20,20","20,20","0,0","20,20","10,10","20,20","20,20","20,20","0,0","2188,1599","-19.397279004705716,31.66378774268142","-24.708467060019824,-13.072917375961072","0","0"
"670","86","text","0","16","209900","0-0","","","","","","","","","","","","","","","","","","","","","","","","","","","","","","","","","","","","",""
"","","plant-game","0","17","252044","0-0","","200","120","4","WHEAT CROP","Right","200","120","8","THISTLE WEED","practice","8","1,2,3,4,5,6,7,8","120,86.10348899410158,117.88929787085728,147.49477037735127,146.29232965819557,138.49806453051906,188.84957396564704,171.7662945592423","8,7,6,5,4,3,2,1","THISTLE WEED,THISTLE WEED,THISTLE WEED,THISTLE WEED,THISTLE WEED,THISTLE WEED,THISTLE WEED,THISTLE WEED","120,146.05969062053083,154.55067484751743,173.0161037553232,160,188.24574284263468,188.97733402033035,192.7379742714478","4,3,2,1,4,3,2,1","WHEAT CROP,WHEAT CROP,WHEAT CROP,WHEAT CROP,CORN CROP,CORN CROP,CORN CROP,CORN CROP","0,0,0,0,0,0,0,0","20,20,20,20,20,20,20,20","10,10,10,10,10,10,10,10","20,20,20,20,20,20,20,20","20,20,20,20,20,20,20,20","20,20,20,20,20,20,20,20","0,0,0,0,0,0,0,0","20,20,20,20,20,20,20,20","10,10,10,10,10,10,10,10","20,20,20,20,20,20,20,20","20,20,20,20,20,20,20,20","20,20,20,20,20,20,20,20","1,1,1,0,1,1,0,1","2906,1372,1643,2755,3466,1030,1382,1753","-33.89651100589842,31.7858088767557,29.605472506493996,-1.2024407191556923,-7.794265127676525,50.35150943512798,-17.083279406404724,27.345677992883292","26.059690620530844,8.490984226986601,18.46542890780578,15.445498922207397,28.245742842634698,0.7315911776956554,3.76064025111746,-1.6399260235867246","0","0"
"568","86","text","0","18","252736","0-0","","","","","","","","","","","","","","","","","","","","","","","","","","","","","","","","","","","","",""
"","","plant-game","0","19","287771","0-0","","200","160","4","CORN CROP","Left","200","160","2","NETTLE WEED","practice","9","1,2,3,4","160,156.81217958523237,183.20783879666297,214.63039110202737","4,3,2,1","CORN CROP,CORN CROP,CORN CROP,CORN CROP","160,137.3030037216096,180,187.2390690664637","2,1,2,1","NETTLE WEED,NETTLE WEED,THISTLE WEED,THISTLE WEED","20,20,20,20","20,20,20,20","10,10,10,10","20,20,20,20","0,0,0,0","20,20,20,20","20,20,20,20","20,20,20,20","10,10,10,10","20,20,20,20","0,0,0,0","20,20,20,20","1,0,0,1","3382,1643,5428,1794","-3.187820414767619,26.395659211430598,31.42255230536439,7.785535187119194","-22.696996278390408,56.646189357418024,7.2390690664637205,23.70634467193142","0","0"
"498","86","text","0","20","288389","0-0","","","","","","","","","","","","","","","","","","","","","","","","","","","","","","","","","","","","",""
"","","plant-game","0","21","321742","0-0","","200","180","2","WHEAT CROP","Right","200","180","1","NETTLE WEED","practice","10","1,2","180,190","1,1","NETTLE WEED,THISTLE WEED","180,199.35018755690012","2,1","WHEAT CROP,WHEAT CROP","0,0","20,20","10,10","20,20","20,20","20,20","0,0","20,20","10,10","20,20","20,20","20,20","1,0","945,3128","26.07248669521833,12.108436572880354","19.35018755690013,8.607349516517363","0","0"
"466","86","text","0","22","322328","0-0","","","","","","","","","","","","","","","","","","","","","","","","","","","","","","","","","","","","",""
"","","plant-game","0","23","362153","0-0","","200","120","8","WHEAT CROP","Left","200","160","4","NETTLE WEED","practice","11","1,2,3,4,5,6,7,8","120,110.19585064068707,102.8755365294656,132.73243596524173,172.61359138403816,166.42916063250433,155.6891239952632,171.9112882644212","8,7,6,5,4,3,2,1","WHEAT CROP,WHEAT CROP,WHEAT CROP,WHEAT CROP,WHEAT CROP,WHEAT CROP,WHEAT CROP,WHEAT CROP","160,154.09890917388387,134.99824622025383,99.1529914754527,160,180.4015915174834,175.0477589609397,181.1723532354356","4,3,2,1,4,3,2,1","NETTLE WEED,NETTLE WEED,NETTLE WEED,NETTLE WEED,THISTLE WEED,THISTLE WEED,THISTLE WEED,THISTLE WEED","20,20,20,20,20,20,20,20","20,20,20,20,20,20,20,20","10,10,10,10,10,10,10,10","20,20,20,20,20,20,20,20","0,0,0,0,0,0,0,0","20,20,20,20,20,20,20,20","20,20,20,20,20,20,20,20","20,20,20,20,20,20,20,20","10,10,10,10,10,10,10,10","20,20,20,20,20,20,20,20","0,0,0,0,0,0,0,0","20,20,20,20,20,20,20,20","1,1,1,0,0,1,1,1","1594,1382,1328,1766,1508,4437,1373,1706","-9.804149359312932,-7.320314111221466,29.856899435776114,39.88115541879641,-6.184430751533835,-10.740036637241136,16.22216426915798,10.388000092077016","-5.901090826116126,-19.100662953630035,-35.845254744801146,39.31666273710087,20.401591517483403,-5.353832556543714,6.1245942744959025,-14.712990078887845","0","0"
"623","86","text","0","24","362885","0-0","","","","","","","","","","","","","","","","","","","","","","","","","","","","","","","","","","","","",""
"","","plant-game","0","25","388662","0-0","","200","180","2","CORN CROP","Right","200","160","4","THISTLE WEED","practice","12","1,2,3,4","160,184.11239524359863,201.0121317323793,223.09775985877513","4,3,2,1","THISTLE WEED,THISTLE WEED,THISTLE WEED,THISTLE WEED","180,191.4542333941982,180,179.44965329996543","2,1,2,1","CORN CROP,CORN CROP,WHEAT CROP,WHEAT CROP","0,0,0,0","20,20,20,20","10,10,10,10","20,20,20,20","20,20,20,20","20,20,20,20","0,0,0,0","20,20,20,20","10,10,10,10","20,20,20,20","20,20,20,20","20,20,20,20","1,0,1,1","2323,1702,4337,1443","24.112395243598627,16.899736488780654,22.085628126395843,80.21837673062319","11.454233394198216,5.769089468738419,-0.5503467000345772,17.579081728870104","0","0"
"477","86","text","0","26","389259","0-0","","","","","","","","","","","","","","","","","","","","","","","","","","","","","","","","","","","","",""
"13106","86","text","0","27","403519","0-0","","","","","","","","","","","","","","","","","","","","","","","","","","","","","","","","","","","","",""
"","","plant-game","0","28","430196","0-0","","200","120","1","WHEAT CROP","Right","200","180","2","THISTLE WEED","experimental","1","1,2","180,171.3410359216131","2,1","THISTLE WEED,THISTLE WEED","120,190","1,1","WHEAT CROP,CORN CROP","0,0","20,20","10,10","20,20","20,20","20,20","0,0","20,20","10,10","20,20","20,20","20,20","0,1","8271,6081","-8.658964078386905,32.63766715336169","-8.903949556428163,2.932732493820538","0","0"
"629","86","text","0","29","430915","0-0","","","","","","","","","","","","","","","","","","","","","","","","","","","","","","","","","","","","",""
"","","plant-game","0","30","449142","0-0","","200","190","2","WHEAT CROP","Right","200","190","2","NETTLE WEED","experimental","2","1,2","190,146.57588944485087","2,1","NETTLE WEED,NETTLE WEED","190,211.04612063726813","2,1","WHEAT CROP,WHEAT CROP","0,0","20,20","10,10","20,20","20,20","20,20","0,0","20,20","10,10","20,20","20,20","20,20","0,1","8888,4330","-43.42411055514913,-17.991782431543477","21.046120637268146,38.97014005349179","0","0"
"490","86","text","0","31","449702","0-0","","","","","","","","","","","","","","","","","","","","","","","","","","","","","","","","","","","","",""
"","","plant-game","0","32","471690","0-0","","200","190","2","WHEAT CROP","Left","200","120","1","THISTLE WEED","experimental","3","1,2","190,188.58615659690895","2,1","WHEAT CROP,WHEAT CROP","120,190","1,1","THISTLE WEED,NETTLE WEED","20,20","20,20","10,10","20,20","0,0","20,20","20,20","20,20","10,10","20,20","0,0","20,20","0,1","5238,7289","-1.4138434030910574,22.985758341083393","6.436754648388911,1.2608498318487005","0","0"
"753","86","text","0","33","472593","0-0","","","","","","","","","","","","","","","","","","","","","","","","","","","","","","","","","","","","",""
"","","plant-game","0","34","507161","0-0","","200","160","4","CORN CROP","Left","200","120","8","NETTLE WEED","experimental","4","1,2,3,4,5,6,7,8","160,160.03424764807198,121.60359282845853,127.50541994075276,160,156.6157988039431,144.7274454165973,161.57772212403145","4,3,2,1,4,3,2,1","CORN CROP,CORN CROP,CORN CROP,CORN CROP,WHEAT CROP,WHEAT CROP,WHEAT CROP,WHEAT CROP","120,159.26558282534526,147.96823535581063,144.09233702831997,165.50209888344884,173.95799812547688,143.1715588092541,93.33030624935881","8,7,6,5,4,3,2,1","NETTLE WEED,NETTLE WEED,NETTLE WEED,NETTLE WEED,NETTLE WEED,NETTLE WEED,NETTLE WEED,NETTLE WEED","20,20,20,20,20,20,20,20","20,20,20,20,20,20,20,20","10,10,10,10,10,10,10,10","20,20,20,20,20,20,20,20","0,0,0,0,0,0,0,0","20,20,20,20,20,20,20,20","20,20,20,20,20,20,20,20","20,20,20,20,20,20,20,20","10,10,10,10,10,10,10,10","20,20,20,20,20,20,20,20","0,0,0,0,0,0,0,0","20,20,20,20,20,20,20,20","0,1,0,0,1,1,0,0","8200,4285,1988,1316,6498,1560,1444,1048","0.03424764807196823,-38.43065481961345,5.901827112294232,29.005975023022863,-3.3842011960568827,-11.888353387345806,16.85027670743414,15.683820441123597","39.26558282534527,-11.297347469534635,-3.875898327490667,21.409761855128867,8.455899242028028,-30.786439316222793,-49.84125255989528,32.05798768892731","0","0"
"560","86","text","0","35","507830","0-0","","","","","","","","","","","","","","","","","","","","","","","","","","","","","","","","","","","","",""
"","","plant-game","0","36","524266","0-0","","200","120","4","CORN CROP","Right","200","180","4","THISTLE WEED","experimental","5","1,2,3,4","180,195.66013000810713,234.60370990464037,203.40582136414565","4,3,2,1","THISTLE WEED,THISTLE WEED,THISTLE WEED,THISTLE WEED","120,124.86399567553927,117.8428572395232,131.40838149087705","4,3,2,1","CORN CROP,CORN CROP,CORN CROP,CORN CROP","0,0,0,0","20,20,20,20","10,10,10,10","20,20,20,20","20,20,20,20","20,20,20,20","0,0,0,0","20,20,20,20","10,10,10,10","20,20,20,20","20,20,20,20","20,20,20,20","0,0,0,0","5399,1096,2271,1246","15.660130008107135,38.943579896533244,-31.197888540494716,-0.9778012092186193","4.8639956755392655,-7.021138436016079,13.56552425135386,-26.917961893253768","0","0"
"577","86","text","0","37","524963","0-0","","","","","","","","","","","","","","","","","","","","","","","","","","","","","","","","","","","","",""
"","","plant-game","0","38","547142","0-0","","200","180","2","CORN CROP","Right","200","120","4","NETTLE WEED","experimental","6","1,2,3,4","120,146.8157177679347,168.68860073381313,156.3488988628978","4,3,2,1","NETTLE WEED,NETTLE WEED,NETTLE WEED,NETTLE WEED","180,188.95184813629652,180,210.2199185801956","2,1,2,1","CORN CROP,CORN CROP,WHEAT CROP,WHEAT CROP","0,0,0,0","20,20,20,20","10,10,10,10","20,20,20,20","20,20,20,20","20,20,20,20","0,0,0,0","20,20,20,20","10,10,10,10","20,20,20,20","20,20,20,20","20,20,20,20","0,1,1,0","7125,3368,1774,2335","26.8157177679347,21.87288296587844,-12.33970187091532,-7.474733756025815","8.95184813629653,6.494897280614637,30.21991858019561,34.623092205758354","0","0"
"608","86","text","0","39","547850","0-0","","","","","","","","","","","","","","","","","","","","","","","","","","","","","","","","","","","","",""
"","","plant-game","0","40","573847","0-0","","200","190","4","WHEAT CROP","Right","200","180","8","NETTLE WEED","experimental","7","1,2,3,4,5,6,7,8","180,155.295091047253,164.176440659955,164.9075435696499,206.9366647767426,198.9569315130511,213.29872559552786,193.1466732747876","8,7,6,5,4,3,2,1","NETTLE WEED,NETTLE WEED,NETTLE WEED,NETTLE WEED,NETTLE WEED,NETTLE WEED,NETTLE WEED,NETTLE WEED","190,200.16247707182038,174.93183606460693,172.32134171608462,160,139.77077688942558,126.24573590166096,97.55772629179845","4,3,2,1,4,3,2,1","WHEAT CROP,WHEAT CROP,WHEAT CROP,WHEAT CROP,CORN CROP,CORN CROP,CORN CROP,CORN CROP","0,0,0,0,0,0,0,0","20,20,20,20,20,20,20,20","10,10,10,10,10,10,10,10","20,20,20,20,20,20,20,20","20,20,20,20,20,20,20,20","20,20,20,20,20,20,20,20","0,0,0,0,0,0,0,0","20,20,20,20,20,20,20,20","10,10,10,10,10,10,10,10","20,20,20,20,20,20,20,20","20,20,20,20,20,20,20,20","20,20,20,20,20,20,20,20","0,0,0,1,0,0,0,0","7645,1323,1259,1988,2998,1236,1433,934","-24.704908952746997,8.88134961270201,0.731102909694904,42.029121207092686,-7.979733263691485,14.341794082476756,-20.152052320740278,24.443766675617642","10.16247707182037,-25.23064100721345,-2.6104943485223187,-1.0695584629746975,-20.22922311057443,-13.525040987764605,-28.688009609862522,-11.74149373911343","0","0"
"448","86","text","0","41","574405","0-0","","","","","","","","","","","","","","","","","","","","","","","","","","","","","","","","","","","","",""
"","","plant-game","0","42","603461","0-0","","200","160","2","WHEAT CROP","Left","200","120","8","THISTLE WEED","experimental","8","1,2,3,4,5,6,7,8","160,186.07941062779818,140,168.47922859536044,171.1996139059885,163.02756629528076,171.0001061340554,154.75215350382115","2,1,6,5,4,3,2,1","WHEAT CROP,WHEAT CROP,CORN CROP,CORN CROP,CORN CROP,CORN CROP,CORN CROP,CORN CROP","120,122.99161249789132,145.48843435342752,169.37554143281739,153.51690620161114,138.59344841094034,189.7666007622619,148.70057957553243","8,7,6,5,4,3,2,1","THISTLE WEED,THISTLE WEED,THISTLE WEED,THISTLE WEED,THISTLE WEED,THISTLE WEED,THISTLE WEED,THISTLE WEED","20,20,20,20,20,20,20,20","20,20,20,20,20,20,20,20","10,10,10,10,10,10,10,10","20,20,20,20,20,20,20,20","0,0,0,0,0,0,0,0","20,20,20,20,20,20,20,20","20,20,20,20,20,20,20,20","20,20,20,20,20,20,20,20","10,10,10,10,10,10,10,10","20,20,20,20,20,20,20,20","0,0,0,0,0,0,0,0","20,20,20,20,20,20,20,20","1,1,0,1,1,0,1,0","9723,1252,5134,1697,1252,1353,1452,1076","26.079410627798193,-4.582628588250178,28.479228595360446,2.7203853106280746,-8.172047610707757,7.972539838774624,-16.24795263023425,7.372895649144549","2.9916124978913268,22.496821855536204,23.88710707938986,-15.858635231206243,-14.923457790670787,51.17315235132156,-41.066021186729465,6.710545972628751","0","0"
"488","86","text","0","43","604074","0-0","","","","","","","","","","","","","","","","","","","","","","","","","","","","","","","","","","","","",""
"","","plant-game","0","44","629099","0-0","","200","160","1","WHEAT CROP","Left","200","160","8","NETTLE WEED","experimental","9","1,2,3,4,5,6,7,8","160,130,150.8048169475643,188.208900609571,219.8841819381658,215.28830110958623,219.34267262396605,233.1498050188057","1,7,6,5,4,3,2,1","WHEAT CROP,CORN CROP,CORN CROP,CORN CROP,CORN CROP,CORN CROP,CORN CROP,CORN CROP","160,151.3995243525202,145.12700142681993,155.15473951876007,196.04636788373114,209.34884385822502,235.82290053825517,210.26225336799376","8,7,6,5,4,3,2,1","NETTLE WEED,NETTLE WEED,NETTLE WEED,NETTLE WEED,NETTLE WEED,NETTLE WEED,NETTLE WEED,NETTLE WEED","20,20,20,20,20,20,20,20","20,20,20,20,20,20,20,20","10,10,10,10,10,10,10,10","20,20,20,20,20,20,20,20","0,0,0,0,0,0,0,0","20,20,20,20,20,20,20,20","20,20,20,20,20,20,20,20","20,20,20,20,20,20,20,20","10,10,10,10,10,10,10,10","20,20,20,20,20,20,20,20","0,0,0,0,0,0,0,0","20,20,20,20,20,20,20,20","1,1,0,1,1,1,1,1","4301,4948,1894,1394,1455,1350,1447,1787","20.437564085157803,20.804816947564284,37.40408366200671,31.675281328594803,-4.595880828579569,4.054371514379812,13.807132394839655,15.628242628348445","-8.600475647479817,-6.272522925700267,10.027738091940131,40.89162836497107,13.302475974493884,26.474056680030138,-25.560647170261394,-6.959610509703174","0","0"
"647","86","text","0","45","629856","0-0","","","","","","","","","","","","","","","","","","","","","","","","","","","","","","","","","","","","",""
"","","plant-game","0","46","649322","0-0","","200","160","2","WHEAT CROP","Left","200","120","1","NETTLE WEED","experimental","10","1,2","160,165.06374724217793","2,1","WHEAT CROP,WHEAT CROP","120,190","1,1","NETTLE WEED,THISTLE WEED","20,20","20,20","10,10","20,20","0,0","20,20","20,20","20,20","10,10","20,20","0,0","20,20","1,1","6718,3179","5.063747242177921,41.367814274540244","20.697661556225402,-19.882022891293015","0","0"
"502","86","text","0","47","649954","0-0","","","","","","","","","","","","","","","","","","","","","","","","","","","","","","","","","","","","",""
"","","plant-game","0","48","674593","0-0","","200","180","1","WHEAT CROP","Right","200","120","8","THISTLE WEED","experimental","11","1,2,3,4,5,6,7,8","120,180.86498478641874,158.81198551849766,167.201135814196,159.9431693329514,157.32829318344028,173.1087477630708,208.09924170065364","8,7,6,5,4,3,2,1","THISTLE WEED,THISTLE WEED,THISTLE WEED,THISTLE WEED,THISTLE WEED,THISTLE WEED,THISTLE WEED,THISTLE WEED","180,130,121.73828393153048,130.5537367877014,107.38462234182288,106.01336606395274,139.9194547743075,172.71414350066306","1,7,6,5,4,3,2,1","WHEAT CROP,CORN CROP,CORN CROP,CORN CROP,CORN CROP,CORN CROP,CORN CROP,CORN CROP","0,0,0,0,0,0,0,0","20,20,20,20,20,20,20,20","10,10,10,10,10,10,10,10","20,20,20,20,20,20,20,20","20,20,20,20,20,20,20,20","20,20,20,20,20,20,20,20","0,0,0,0,0,0,0,0","20,20,20,20,20,20,20,20","10,10,10,10,10,10,10,10","20,20,20,20,20,20,20,20","20,20,20,20,20,20,20,20","20,20,20,20,20,20,20,20","1,0,0,0,0,1,0,0","4602,5230,1175,1548,2263,696,597,1270","60.86498478641875,-22.05299926792108,8.389150295698332,-7.257966481244567,-2.614876149511126,15.780454579630515,34.99049393758283,-7.676105187758364","22.20868901264552,-8.261716068469525,8.815452856170928,-23.16911444587854,-1.3712562778701243,33.906088710354766,32.79468872635556,-8.082902202743009","0","0"
"414","86","text","0","49","675108","0-0","","","","","","","","","","","","","","","","","","","","","","","","","","","","","","","","","","","","",""
"","","plant-game","0","50","704281","0-0","","200","180","4","WHEAT CROP","Left","200","160","8","NETTLE WEED","experimental","12","1,2,3,4,5,6,7,8","180,208.04380085749204,202.2211934475867,213.73907536230146,160,156.5501011754169,152.89438724669225,139.05250165248412","4,3,2,1,4,3,2,1","WHEAT CROP,WHEAT CROP,WHEAT CROP,WHEAT CROP,CORN CROP,CORN CROP,CORN CROP,CORN CROP","160,183.2005808166294,157.69021097462723,174.76421707233652,185.81406454635948,193.13776414598053,178.8138120827166,153.30205835940134","8,7,6,5,4,3,2,1","NETTLE WEED,NETTLE WEED,NETTLE WEED,NETTLE WEED,NETTLE WEED,NETTLE WEED,NETTLE WEED,NETTLE WEED","20,20,20,20,20,20,20,20","20,20,20,20,20,20,20,20","10,10,10,10,10,10,10,10","20,20,20,20,20,20,20,20","0,0,0,0,0,0,0,0","20,20,20,20,20,20,20,20","20,20,20,20,20,20,20,20","20,20,20,20,20,20,20,20","10,10,10,10,10,10,10,10","20,20,20,20,20,20,20,20","0,0,0,0,0,0,0,0","20,20,20,20,20,20,20,20","0,1,1,1,1,1,1,1","5018,4605,1467,1381,3539,1555,1228,1046","28.043800857492055,-5.822607409905352,11.517881914714767,-16.525071608346625,-3.4498988245831064,-3.6557139287246487,-13.841885594208115,-4.630924605333789","23.200580816629405,-25.51036984200218,17.074006097709294,11.049847474022943,7.323699599621055,-14.323952063263945,-25.511753723315252,20.842853175544995","0","0"
"427","86","text","0","51","704802","0-0","","","","","","","","","","","","","","","","","","","","","","","","","","","","","","","","","","","","",""
"","","plant-game","0","52","728089","0-0","","200","190","4","CORN CROP","Left","200","120","1","NETTLE WEED","experimental","13","1,2,3,4","190,196.0463871181229,212.2592434780664,221.6828941171451","4,3,2,1","CORN CROP,CORN CROP,CORN CROP,CORN CROP","120,170,145.78839117637318,199.87234445003094","1,3,2,1","NETTLE WEED,THISTLE WEED,THISTLE WEED,THISTLE WEED","20,20,20,20","20,20,20,20","10,10,10,10","20,20,20,20","0,0,0,0","20,20,20,20","20,20,20,20","20,20,20,20","10,10,10,10","20,20,20,20","0,0,0,0","20,20,20,20","1,1,1,0","6025,2743,1469,3363","6.046387118122917,16.212856359943494,9.42365063907873,23.373184939978156","-26.166379636735137,-24.21160882362681,54.08395327365775,50.15847779585045","0","0"
"600","86","text","0","53","728839","0-0","","","","","","","","","","","","","","","","","","","","","","","","","","","","","","","","","","","","",""
"","","plant-game","0","54","753127","0-0","","200","190","2","CORN CROP","Right","200","190","8","NETTLE WEED","experimental","14","1,2,3,4,5,6,7,8","190,202.52081884148242,214.9421774841066,250.94024696108943,279.91595433833066,310.04446756350904,349.8118761967929,402.6482703953088","8,7,6,5,4,3,2,1","NETTLE WEED,NETTLE WEED,NETTLE WEED,NETTLE WEED,NETTLE WEED,NETTLE WEED,NETTLE WEED,NETTLE WEED","190,201.4938937919327,140,125.6696653470609,163.21583753134223,179.14220696536134,249.22132234222715,273.898094146777","2,1,6,5,4,3,2,1","CORN CROP,CORN CROP,WHEAT CROP,WHEAT CROP,WHEAT CROP,WHEAT CROP,WHEAT CROP,WHEAT CROP","0,0,0,0,0,0,0,0","20,20,20,20,20,20,20,20","10,10,10,10,10,10,10,10","20,20,20,20,20,20,20,20","20,20,20,20,20,20,20,20","20,20,20,20,20,20,20,20","0,0,0,0,0,0,0,0","20,20,20,20,20,20,20,20","10,10,10,10,10,10,10,10","20,20,20,20,20,20,20,20","20,20,20,20,20,20,20,20","20,20,20,20,20,20,20,20","0,0,0,1,1,1,1,1","4826,2122,3249,1693,853,543,962,1698","12.520818841482413,12.421358642624158,35.99806947698285,28.975707377241214,30.12851322517838,39.76740863328391,52.83639419851592,-22.930400575189054","11.493893791932699,20.073237128663564,-14.330334652939102,37.546172184281346,15.926369434019115,70.07911537686583,24.676771804549826,26.176211101555822","0","0"
"630","86","text","0","55","753867","0-0","","","","","","","","","","","","","","","","","","","","","","","","","","","","","","","","","","","","",""
"","","plant-game","0","56","778454","0-0","","200","160","1","CORN CROP","Left","200","160","4","THISTLE WEED","experimental","15","1,2,3,4","160,170,178.0018488421964,204.2090178286183","1,3,2,1","CORN CROP,WHEAT CROP,WHEAT CROP,WHEAT CROP","160,201.34595912136436,217.27235074021328,201.12467437769695","4,3,2,1","THISTLE WEED,THISTLE WEED,THISTLE WEED,THISTLE WEED","20,20,20,20","20,20,20,20","10,10,10,10","20,20,20,20","0,0,0,0","20,20,20,20","20,20,20,20","20,20,20,20","10,10,10,10","20,20,20,20","0,0,0,0","20,20,20,20","0,1,1,0","9514,2929,1806,2125","12.428677463388947,8.001848842196416,26.2071689864219,45.45623978995559","41.345959121364366,15.92639161884893,-16.14767636251633,1.7068174744681492","0","0"
"467","86","text","0","57","779041","0-0","","","","","","","","","","","","","","","","","","","","","","","","","","","","","","","","","","","","",""
"","","plant-game","0","58","802107","0-0","","200","160","4","CORN CROP","Right","200","120","2","NETTLE WEED","experimental","16","1,2,3,4","120,129.73470255298983,180,189.21899374958625","2,1,2,1","NETTLE WEED,NETTLE WEED,THISTLE WEED,THISTLE WEED","160,177.46063723410677,218.84204293700793,201.0535182024874","4,3,2,1","CORN CROP,CORN CROP,CORN CROP,CORN CROP","0,0,0,0","20,20,20,20","10,10,10,10","20,20,20,20","20,20,20,20","20,20,20,20","0,0,0,0","20,20,20,20","10,10,10,10","20,20,20,20","20,20,20,20","20,20,20,20","1,1,0,0","6607,1150,3117,1162","9.734702552989823,1.5666991054712618,9.218993749586247,5.147552736500655","17.460637234106766,41.381405702901176,-17.78852473452055,-3.8663137833887617","0","0"
"9163","86","text","0","59","811395","0-0","","","","","","","","","","","","","","","","","","","","","","","","","","","","","","","","","","","","",""
"","","plant-game","0","60","842753","0-0","","200","190","2","WHEAT CROP","Right","200","120","8","THISTLE WEED","experimental","17","1,2,3,4,5,6,7,8","120,135.69753130569018,158.68293623232003,166.54674080447157,174.44170072747085,183.67448705944525,214.16181690846446,215.83249236041303","8,7,6,5,4,3,2,1","THISTLE WEED,THISTLE WEED,THISTLE WEED,THISTLE WEED,THISTLE WEED,THISTLE WEED,THISTLE WEED,THISTLE WEED","190,178.14515499535025,140,172.17866396770765,184.72523112184243,208.68642067404218,234.48776270609739,238.45104413458094","2,1,6,5,4,3,2,1","WHEAT CROP,WHEAT CROP,CORN CROP,CORN CROP,CORN CROP,CORN CROP,CORN CROP,CORN CROP","0,0,0,0,0,0,0,0","20,20,20,20,20,20,20,20","10,10,10,10,10,10,10,10","20,20,20,20,20,20,20,20","20,20,20,20,20,20,20,20","20,20,20,20,20,20,20,20","0,0,0,0,0,0,0,0","20,20,20,20,20,20,20,20","10,10,10,10,10,10,10,10","20,20,20,20,20,20,20,20","20,20,20,20,20,20,20,20","20,20,20,20,20,20,20,20","0,1,0,1,0,0,0,0","6297,2113,5117,2169,1725,2589,1413,1237","15.697531305690163,22.985404926629844,7.863804572151544,7.8949599229992735,9.232786331974424,30.48732984901922,1.6706754519485791,29.65975661987589","-11.854845004649754,35.399552145632555,32.17866396770765,12.546567154134774,23.961189552199748,25.801342032055206,3.963281428483568,-32.83886000149128","0","0"
"640","86","text","0","61","843503","0-0","","","","","","","","","","","","","","","","","","","","","","","","","","","","","","","","","","","","",""
"","","plant-game","0","62","868513","0-0","","200","190","1","WHEAT CROP","Left","200","160","4","NETTLE WEED","experimental","18","1,2,3,4","190,170,192.33876666844856,186.85141069169444","1,3,2,1","WHEAT CROP,CORN CROP,CORN CROP,CORN CROP","160,148.01205331803558,140.83172773474084,146.66820068891727","4,3,2,1","NETTLE WEED,NETTLE WEED,NETTLE WEED,NETTLE WEED","20,20,20,20","20,20,20,20","10,10,10,10","20,20,20,20","0,0,0,0","20,20,20,20","20,20,20,20","20,20,20,20","10,10,10,10","20,20,20,20","0,0,0,0","20,20,20,20","1,0,1,0","5349,4236,6835,886","-12.262932653622638,22.33876666844855,-5.487355976754116,31.542113371754574","-11.987946681964415,-7.180325583294742,5.8364729541764415,41.90936033874571","1","0"
"588","86","text","0","63","869219","0-0","","","","","","","","","","","","","","","","","","","","","","","","","","","","","","","","","","","","",""
"","","plant-game","0","64","889908","0-0","","200","190","2","CORN CROP","Right","200","190","4","NETTLE WEED","experimental","19","1,2,3,4","190,196.61736124617482,191.34676147091332,227.95294785001363","4,3,2,1","NETTLE WEED,NETTLE WEED,NETTLE WEED,NETTLE WEED","190,194.55483329496755,180,251.58076495980546","2,1,2,1","CORN CROP,CORN CROP,WHEAT CROP,WHEAT CROP","0,0,0,0","20,20,20,20","10,10,10,10","20,20,20,20","20,20,20,20","20,20,20,20","0,0,0,0","20,20,20,20","10,10,10,10","20,20,20,20","20,20,20,20","20,20,20,20","0,1,1,1","4824,2355,5425,1160","6.617361246174822,-5.270599775261498,36.60618637910029,10.19446893509577","4.5548332949675565,25.700132048037794,71.58076495980546,-0.6697544295627154","0","0"
"580","86","text","0","65","890598","0-0","","","","","","","","","","","","","","","","","","","","","","","","","","","","","","","","","","","","",""
"","","plant-game","0","66","918135","0-0","","200","160","8","CORN CROP","Right","200","160","1","THISTLE WEED","experimental","20","1,2,3,4,5,6,7,8","160,130,157.36279650492386,196.1373478141257,216.8746740390005,231.8353223934955,212.43594154028838,179.90503053146386","1,7,6,5,4,3,2,1","THISTLE WEED,NETTLE WEED,NETTLE WEED,NETTLE WEED,NETTLE WEED,NETTLE WEED,NETTLE WEED,NETTLE WEED","160,166.70376098916722,180.6914321354296,198.7296389829116,181.67198161433464,221.26726585334873,218.4192441681395,196.37300012457558","8,7,6,5,4,3,2,1","CORN CROP,CORN CROP,CORN CROP,CORN CROP,CORN CROP,CORN CROP,CORN CROP,CORN CROP","0,0,0,0,0,0,0,0","20,20,20,20,20,20,20,20","10,10,10,10,10,10,10,10","20,20,20,20,20,20,20,20","20,20,20,20,20,20,20,20","20,20,20,20,20,20,20,20","0,0,0,0,0,0,0,0","20,20,20,20,20,20,20,20","10,10,10,10,10,10,10,10","20,20,20,20,20,20,20,20","20,20,20,20,20,20,20,20","20,20,20,20,20,20,20,20","1,1,1,0,1,0,0,1","6457,2778,889,1626,1059,1849,1430,3122","33.32467998231964,27.362796504923864,38.77455130920182,20.737326224874803,14.960648354494996,-19.399380853207113,-32.530911008824525,30.689159954692382","6.703760989167218,13.987671146262382,18.038206847481995,-17.057657368576983,39.59528423901409,-2.84802168520922,-22.046244043563902,36.507307651071415","0","0"
"753","86","text","0","67","918988","0-0","","","","","","","","","","","","","","","","","","","","","","","","","","","","","","","","","","","","",""
"","","plant-game","0","68","942904","0-0","","200","120","1","WHEAT CROP","Left","200","160","2","THISTLE WEED","experimental","21","1,2","120,190","1,1","WHEAT CROP,CORN CROP","160,167.25897172865103","2,1","THISTLE WEED,THISTLE WEED","20,20","20,20","10,10","20,20","0,0","20,20","20,20","20,20","10,10","20,20","0,0","20,20","1,0","13902,3504","9.905123057036349,19.56723294929223","7.25897172865103,18.02553556651334","0","0"
"450","86","text","0","69","943454","0-0","","","","","","","","","","","","","","","","","","","","","","","","","","","","","","","","","","","","",""
"","","plant-game","0","70","965684","0-0","","200","160","4","WHEAT CROP","Left","200","190","1","NETTLE WEED","experimental","22","1,2,3,4","160,154.97152805075336,174.3021030275824,203.28441701496558","4,3,2,1","WHEAT CROP,WHEAT CROP,WHEAT CROP,WHEAT CROP","190,170,233.42051768313596,236.15712445720723","1,3,2,1","NETTLE WEED,THISTLE WEED,THISTLE WEED,THISTLE WEED","20,20,20,20","20,20,20,20","10,10,10,10","20,20,20,20","0,0,0,0","20,20,20,20","20,20,20,20","20,20,20,20","10,10,10,10","20,20,20,20","0,0,0,0","20,20,20,20","1,0,0,0","5179,4701,1047,3892","-5.028471949246647,19.330574976829052,28.98231398738318,25.641511842590567","39.98077053196021,63.420517683135955,2.7366067740712694,28.685244327453994","0","0"
"443","86","text","0","71","966247","0-0","","","","","","","","","","","","","","","","","","","","","","","","","","","","","","","","","","","","",""
"","","plant-game","0","72","994740","0-0","","200","120","8","WHEAT CROP","Left","200","160","4","NETTLE WEED","experimental","23","1,2,3,4,5,6,7,8","120,104.83908538448303,100.51208781347911,75.45651138777075,111.83993829772427,107.52686578196698,114.74614111651972,138.4827274670809","8,7,6,5,4,3,2,1","WHEAT CROP,WHEAT CROP,WHEAT CROP,WHEAT CROP,WHEAT CROP,WHEAT CROP,WHEAT CROP,WHEAT CROP","160,179.6597699220423,133.54204176119322,122.00121492220401,160,157.99970982592464,128.54681938320118,133.96151249232804","4,3,2,1,4,3,2,1","NETTLE WEED,NETTLE WEED,NETTLE WEED,NETTLE WEED,THISTLE WEED,THISTLE WEED,THISTLE WEED,THISTLE WEED","20,20,20,20,20,20,20,20","20,20,20,20,20,20,20,20","10,10,10,10,10,10,10,10","20,20,20,20,20,20,20,20","0,0,0,0,0,0,0,0","20,20,20,20,20,20,20,20","20,20,20,20,20,20,20,20","20,20,20,20,20,20,20,20","10,10,10,10,10,10,10,10","20,20,20,20,20,20,20,20","0,0,0,0,0,0,0,0","20,20,20,20,20,20,20,20","1,1,1,1,1,1,1,0","6184,1406,1925,1602,2205,822,513,5958","-15.160914615516976,-4.326997571003911,-25.05557642570836,36.38342690995352,-4.313072515757303,7.2192753345527505,23.736586350561197,26.81564578675102","19.659769922042294,-46.1177281608491,-11.540826838989197,-5.27791707343216,-2.0002901740753556,-29.45289044272346,5.414693109126851,59.05296968809018","0","0"
"515","86","text","0","73","995333","0-0","","","","","","","","","","","","","","","","","","","","","","","","","","","","","","","","","","","","",""
"","","plant-game","0","74","1026449","0-0","","200","190","2","WHEAT CROP","Right","200","160","8","NETTLE WEED","experimental","24","1,2,3,4,5,6,7,8","160,169.0337713243135,154.42480891532043,137.2745064371362,151.577832834459,189.27059135402624,190.62180349108098,207.36838374592296","8,7,6,5,4,3,2,1","NETTLE WEED,NETTLE WEED,NETTLE WEED,NETTLE WEED,NETTLE WEED,NETTLE WEED,NETTLE WEED,NETTLE WEED","190,222.61847813086928,140,164.4495242747385,182.43562632347965,222.3394544116859,233.611912707927,233.5653363398881","2,1,6,5,4,3,2,1","WHEAT CROP,WHEAT CROP,CORN CROP,CORN CROP,CORN CROP,CORN CROP,CORN CROP,CORN CROP","0,0,0,0,0,0,0,0","20,20,20,20,20,20,20,20","10,10,10,10,10,10,10,10","20,20,20,20,20,20,20,20","20,20,20,20,20,20,20,20","20,20,20,20,20,20,20,20","0,0,0,0,0,0,0,0","20,20,20,20,20,20,20,20","10,10,10,10,10,10,10,10","20,20,20,20,20,20,20,20","20,20,20,20,20,20,20,20","20,20,20,20,20,20,20,20","1,0,0,1,1,0,0,0","6212,2475,6251,1679,1134,1654,1918,1121","9.033771324313495,-14.60896240899309,-17.15030247818422,14.30332639732278,37.692758519567235,1.3512121370547525,16.74658025484197,-21.824330854135674","32.61847813086926,36.42702551207862,24.449524274738504,17.98610204874114,39.90382808820623,11.272458296241101,-0.046576368038895456,25.727126471778252","0","0"
"474","86","text","0","75","1027043","0-0","","","","","","","","","","","","","","","","","","","","","","","","","","","","","","","","","","","","",""
"","","plant-game","0","76","1061225","0-0","","200","180","4","CORN CROP","Right","200","120","1","THISTLE WEED","experimental","25","1,2,3,4","120,170,210.7632134284981,183.502507221842","1,3,2,1","THISTLE WEED,NETTLE WEED,NETTLE WEED,NETTLE WEED","180,207.40651382603681,233.36251257461396,230.3328720314472","4,3,2,1","CORN CROP,CORN CROP,CORN CROP,CORN CROP","0,0,0,0","20,20,20,20","10,10,10,10","20,20,20,20","20,20,20,20","20,20,20,20","0,0,0,0","20,20,20,20","10,10,10,10","20,20,20,20","20,20,20,20","20,20,20,20","1,1,0,0","8885,12926,4051,951","44.618072506896794,40.76321342849809,-27.260706206656096,19.682081991943218","27.40651382603682,25.95599874857715,-3.029640543166758,-0.4485740849533792","0","0"
"512","86","text","0","77","1061835","0-0","","","","","","","","","","","","","","","","","","","","","","","","","","","","","","","","","","","","",""
"","","plant-game","0","78","1086147","0-0","","200","160","8","CORN CROP","Left","200","160","2","THISTLE WEED","experimental","26","1,2,3,4,5,6,7,8","160,139.09189076252824,121.48459321402214,113.3547839566289,120.93606242109314,118.59872486826777,90.1222570067059,92.34585223960896","8,7,6,5,4,3,2,1","CORN CROP,CORN CROP,CORN CROP,CORN CROP,CORN CROP,CORN CROP,CORN CROP,CORN CROP","160,160.20035262244605,140,138.79295849660537,160.83517020753993,166.57442523468248,152.9162932965091,161.30684660311016","2,1,6,5,4,3,2,1","THISTLE WEED,THISTLE WEED,NETTLE WEED,NETTLE WEED,NETTLE WEED,NETTLE WEED,NETTLE WEED,NETTLE WEED","20,20,20,20,20,20,20,20","20,20,20,20,20,20,20,20","10,10,10,10,10,10,10,10","20,20,20,20,20,20,20,20","0,0,0,0,0,0,0,0","20,20,20,20,20,20,20,20","20,20,20,20,20,20,20,20","20,20,20,20,20,20,20,20","10,10,10,10,10,10,10,10","20,20,20,20,20,20,20,20","0,0,0,0,0,0,0,0","20,20,20,20,20,20,20,20","1,1,1,0,1,1,1,1","7305,1787,2885,744,650,1224,1072,591","-20.908109237471777,-17.60729754850609,-8.129809257393239,7.581278464464241,-2.33733755282538,-28.476467861561865,2.223595232903069,-3.3446999240937227","0.20035262244604,4.981405906572071,-1.2070415033946427,22.042211710934563,5.739255027142538,-13.658131938173382,8.390553306601042,62.30375040944616","0","0"
"483","86","text","0","79","1086705","0-0","","","","","","","","","","","","","","","","","","","","","","","","","","","","","","","","","","","","",""
"","","plant-game","0","80","1113956","0-0","","200","190","8","CORN CROP","Left","200","180","1","NETTLE WEED","experimental","27","1,2,3,4,5,6,7,8","190,152.86168806830875,160.53018624161865,174.5697721104996,176.97379287403749,205.08172232144926,212.4990967642171,188.44563509285354","8,7,6,5,4,3,2,1","CORN CROP,CORN CROP,CORN CROP,CORN CROP,CORN CROP,CORN CROP,CORN CROP,CORN CROP","180,130,158.62322230636727,172.7054193530788,215.49266462484488,256.3250246611617,262.23854255785955,270.2745633671644","1,7,6,5,4,3,2,1","NETTLE WEED,THISTLE WEED,THISTLE WEED,THISTLE WEED,THISTLE WEED,THISTLE WEED,THISTLE WEED,THISTLE WEED","20,20,20,20,20,20,20,20","20,20,20,20,20,20,20,20","10,10,10,10,10,10,10,10","20,20,20,20,20,20,20,20","0,0,0,0,0,0,0,0","20,20,20,20,20,20,20,20","20,20,20,20,20,20,20,20","20,20,20,20,20,20,20,20","10,10,10,10,10,10,10,10","20,20,20,20,20,20,20,20","0,0,0,0,0,0,0,0","20,20,20,20,20,20,20,20","1,0,0,0,0,0,0,0","7921,5752,452,688,1217,1014,1100,966","-37.138311931691234,7.6684981733099065,14.03958586888096,2.404020763537879,28.107929447411774,7.417374442767814,-24.053461671363543,26.2331206814204","-5.87382329287606,28.623222306367275,14.082197046711535,42.78724527176606,40.83236003631685,5.9135178966978295,8.036020809304814,41.75399885191105","0","0"
"607","86","text","0","81","1114620","0-0","","","","","","","","","","","","","","","","","","","","","","","","","","","","","","","","","","","","",""
"","","plant-game","0","82","1122726","0-0","","200","190","1","CORN CROP","Left","200","120","1","THISTLE WEED","experimental","28","1","190","1","CORN CROP","120","1","THISTLE WEED","20","20","10","20","0","20","20","20","10","20","0","20","0","3040","6.939786725719017","44.680186111059356","0","0"
"590","86","text","0","83","1123416","0-0","","","","","","","","","","","","","","","","","","","","","","","","","","","","","","","","","","","","",""
"","","plant-game","0","84","1143040","0-0","","200","180","2","WHEAT CROP","Left","200","180","4","NETTLE WEED","experimental","29","1,2,3,4","180,195.80148807811386,180,213.38257718934335","2,1,2,1","WHEAT CROP,WHEAT CROP,CORN CROP,CORN CROP","180,186.78556921239826,209.07467385804404,168.59965383337433","4,3,2,1","NETTLE WEED,NETTLE WEED,NETTLE WEED,NETTLE WEED","20,20,20,20","20,20,20,20","10,10,10,10","20,20,20,20","0,0,0,0","20,20,20,20","20,20,20,20","20,20,20,20","10,10,10,10","20,20,20,20","0,0,0,0","20,20,20,20","1,0,0,1","5648,1583,4142,2029","15.801488078113863,25.966514178253668,33.38257718934335,6.240660169313951","6.785569212398262,22.289104645645793,-40.47502002466971,-19.77191906043091","0","0"
"504","86","text","0","85","1143664","0-0","","","","","","","","","","","","","","","","","","","","","","","","","","","","","","","","","","","","",""
"","","plant-game","0","86","1170253","0-0","","200","180","8","WHEAT CROP","Right","200","120","4","THISTLE WEED","experimental","30","1,2,3,4,5,6,7,8","120,165.19280189596316,172.6862930097626,184.74832552970915,160,123.55324552814548,156.46907988981496,144.84321301497616","4,3,2,1,4,3,2,1","THISTLE WEED,THISTLE WEED,THISTLE WEED,THISTLE WEED,NETTLE WEED,NETTLE WEED,NETTLE WEED,NETTLE WEED","180,174.3054328234097,182.82286706605734,198.34585678093995,211.72443364780446,224.21785612191752,248.93265513882272,237.38568097081617","8,7,6,5,4,3,2,1","WHEAT CROP,WHEAT CROP,WHEAT CROP,WHEAT CROP,WHEAT CROP,WHEAT CROP,WHEAT CROP,WHEAT CROP","0,0,0,0,0,0,0,0","20,20,20,20,20,20,20,20","10,10,10,10,10,10,10,10","20,20,20,20,20,20,20,20","20,20,20,20,20,20,20,20","20,20,20,20,20,20,20,20","0,0,0,0,0,0,0,0","20,20,20,20,20,20,20,20","10,10,10,10,10,10,10,10","20,20,20,20,20,20,20,20","20,20,20,20,20,20,20,20","20,20,20,20,20,20,20,20","1,1,1,1,1,1,0,0","3817,1361,899,1412,6250,2150,2210,1121","45.19280189596317,7.493491113799465,12.062032519946552,19.881121131996025,-36.446754471854526,32.91583436166949,-11.625866874838815,-22.584750131319126","-5.694567176590315,8.517434242647656,15.522989714882616,13.378576866864496,12.493422474113068,24.71479901690519,-11.54697416800655,-29.11013228884226","0","0"
"474","86","text","0","87","1170836","0-0","","","","","","","","","","","","","","","","","","","","","","","","","","","","","","","","","","","","",""
"","","plant-game","0","88","1188716","0-0","","200","180","1","CORN CROP","Left","200","120","4","THISTLE WEED","experimental","31","1,2,3,4","180,170,226.29025050849685,280.71271788963816","1,3,2,1","CORN CROP,WHEAT CROP,WHEAT CROP,WHEAT CROP","120,132.0160229183972,97.17685678005081,119.34231815419548","4,3,2,1","THISTLE WEED,THISTLE WEED,THISTLE WEED,THISTLE WEED","20,20,20,20","20,20,20,20","10,10,10,10","20,20,20,20","0,0,0,0","20,20,20,20","20,20,20,20","20,20,20,20","10,10,10,10","20,20,20,20","0,0,0,0","20,20,20,20","0,0,0,1","3373,2695,1312,2910","-26.92712816341956,56.29025050849687,54.42246738114129,-0.6536032316641059","12.016022918397207,-34.839166138346386,22.165461374144677,9.877498437615719","0","0"
"496","86","text","0","89","1189332","0-0","","","","","","","","","","","","","","","","","","","","","","","","","","","","","","","","","","","","",""
"","","plant-game","0","90","1218412","0-0","","200","180","8","CORN CROP","Left","200","160","4","NETTLE WEED","experimental","32","1,2,3,4,5,6,7,8","180,202.86744143056873,200.6777373326095,218.24367877604544,177.44353959127184,190.1193520270704,167.56366801932887,159.7159147809039","8,7,6,5,4,3,2,1","CORN CROP,CORN CROP,CORN CROP,CORN CROP,CORN CROP,CORN CROP,CORN CROP,CORN CROP","160,179.70620218021543,191.03985142512207,212.98100171678456,160,159.56903051351188,171.89993491839107,210.56891032714293","4,3,2,1,4,3,2,1","NETTLE WEED,NETTLE WEED,NETTLE WEED,NETTLE WEED,THISTLE WEED,THISTLE WEED,THISTLE WEED,THISTLE WEED","20,20,20,20,20,20,20,20","20,20,20,20,20,20,20,20","10,10,10,10,10,10,10,10","20,20,20,20,20,20,20,20","0,0,0,0,0,0,0,0","20,20,20,20,20,20,20,20","20,20,20,20,20,20,20,20","20,20,20,20,20,20,20,20","10,10,10,10,10,10,10,10","20,20,20,20,20,20,20,20","0,0,0,0,0,0,0,0","20,20,20,20,20,20,20,20","0,0,0,1,0,0,0,0","7827,953,3820,3209,5297,381,643,759","22.867441430568732,-2.189704097959236,17.565941443435943,-40.8001391847736,12.675812435798559,-22.555684007741505,-7.847753238424989,11.112637789150583","19.706202180215428,11.333649244906642,21.941150291662503,6.813257609560822,-0.4309694864881344,12.330904404879192,38.66897540875187,32.85335890154056","0","0"
"5064","86","text","0","91","1223596","0-0","","","","","","","","","","","","","","","","","","","","","","","","","","","","","","","","","","","","",""
"","","plant-game","0","92","1238098","0-0","","200","190","1","WHEAT CROP","Left","200","120","2","THISTLE WEED","experimental","33","1,2","190,190","1,1","WHEAT CROP,CORN CROP","120,123.80676651095693","2,1","THISTLE WEED,THISTLE WEED","20,20","20,20","10,10","20,20","0,0","20,20","20,20","20,20","10,10","20,20","0,0","20,20","0,0","6369,2851","62.21950231738514,7.741663731046366","3.806766510956937,-2.6829993790266826","0","0"
"577","86","text","0","93","1238775","0-0","","","","","","","","","","","","","","","","","","","","","","","","","","","","","","","","","","","","",""
"","","plant-game","0","94","1246246","0-0","","200","160","2","WHEAT CROP","Left","200","120","2","THISTLE WEED","experimental","34","1,2","160,167.3283641249987","2,1","WHEAT CROP,WHEAT CROP","120,113.21211647495926","2,1","THISTLE WEED,THISTLE WEED","20,20","20,20","10,10","20,20","0,0","20,20","20,20","20,20","10,10","20,20","0,0","20,20","0,0","3254,795","7.328364124998705,29.17632796208146","-6.7878835250407334,13.226312724439175","0","0"
"506","86","text","0","95","1246832","0-0","","","","","","","","","","","","","","","","","","","","","","","","","","","","","","","","","","","","",""
"","","plant-game","0","96","1263879","0-0","","200","160","1","WHEAT CROP","Right","200","160","2","NETTLE WEED","experimental","35","1,2","160,148.71165460726075","2,1","NETTLE WEED,NETTLE WEED","160,190","1,1","WHEAT CROP,CORN CROP","0,0","20,20","10,10","20,20","20,20","20,20","0,0","20,20","10,10","20,20","20,20","20,20","0,1","6662,4896","-11.288345392739249,15.920546910077679","63.093230979511674,8.721452270867152","0","0"
"460","86","text","0","97","1264469","0-0","","","","","","","","","","","","","","","","","","","","","","","","","","","","","","","","","","","","",""
"","","plant-game","0","98","1290704","0-0","","200","160","1","CORN CROP","Right","200","190","8","NETTLE WEED","experimental","36","1,2,3,4,5,6,7,8","190,184.40628666744198,172.87417972168006,158.1530706891895,183.7805838041516,188.7075850095635,209.19645007945252,274.74620288188606","8,7,6,5,4,3,2,1","NETTLE WEED,NETTLE WEED,NETTLE WEED,NETTLE WEED,NETTLE WEED,NETTLE WEED,NETTLE WEED,NETTLE WEED","160,130,174.4597704867318,180.6037070878341,205.79078456134047,231.96062241663043,189.07640633944055,185.0644107780236","1,7,6,5,4,3,2,1","CORN CROP,WHEAT CROP,WHEAT CROP,WHEAT CROP,WHEAT CROP,WHEAT CROP,WHEAT CROP,WHEAT CROP","0,0,0,0,0,0,0,0","20,20,20,20,20,20,20,20","10,10,10,10,10,10,10,10","20,20,20,20,20,20,20,20","20,20,20,20,20,20,20,20","20,20,20,20,20,20,20,20","0,0,0,0,0,0,0,0","20,20,20,20,20,20,20,20","10,10,10,10,10,10,10,10","20,20,20,20,20,20,20,20","20,20,20,20,20,20,20,20","20,20,20,20,20,20,20,20","0,0,0,1,1,0,1,1","3614,3162,1322,1569,1717,1595,1526,1851","-5.593713332558029,-11.532106945761916,-14.721109032490574,25.627513114962102,4.927001205411898,20.488865069889023,65.54975280243355,36.775053716399725","10.076575829174974,44.4597704867318,6.143936601102303,25.187077473506374,26.16983785528995,-42.88421607718987,-4.011995561416942,0.8268501363950769","0","0"
"556","86","text","0","99","1291360","0-0","","","","","","","","","","","","","","","","","","","","","","","","","","","","","","","","","","","","",""
"","","plant-game","0","100","1310450","0-0","","200","190","4","WHEAT CROP","Left","200","160","2","THISTLE WEED","experimental","37","1,2,3,4","190,203.51662500106022,236.95721112697612,246.52428027688498","4,3,2,1","WHEAT CROP,WHEAT CROP,WHEAT CROP,WHEAT CROP","160,169.9163956332997,180,209.6447234332665","2,1,2,1","THISTLE WEED,THISTLE WEED,NETTLE WEED,NETTLE WEED","20,20,20,20","20,20,20,20","10,10,10,10","20,20,20,20","0,0,0,0","20,20,20,20","20,20,20,20","20,20,20,20","10,10,10,10","20,20,20,20","0,0,0,0","20,20,20,20","0,0,1,1","5234,2063,3779,1063","13.516625001060234,33.4405861259159,9.56706914990885,28.43062375047615","9.916395633299677,57.84922674848042,29.644723433266492,-5.17679552665708","0","0"
"354","86","text","0","101","1310935","0-0","","","","","","","","","","","","","","","","","","","","","","","","","","","","","","","","","","","","",""
"","","plant-game","0","102","1320100","0-0","","200","120","4","WHEAT CROP","Left","200","120","4","NETTLE WEED","experimental","38","1,2,3,4","120,146.80445817446858,168.30627561255653,197.65157928624654","4,3,2,1","WHEAT CROP,WHEAT CROP,WHEAT CROP,WHEAT CROP","120,144.42950835444464,145.89627588045965,181.9427531176118","4,3,2,1","NETTLE WEED,NETTLE WEED,NETTLE WEED,NETTLE WEED","20,20,20,20","20,20,20,20","10,10,10,10","20,20,20,20","0,0,0,0","20,20,20,20","20,20,20,20","20,20,20,20","10,10,10,10","20,20,20,20","0,0,0,0","20,20,20,20","0,0,0,0","4150,397,570,636","26.80445817446859,21.501817438087947,29.34530367369,39.252352344203196","24.429508354444646,1.466767526015012,36.04647723715213,48.62997998100244","0","0"
"426","86","text","0","103","1320616","0-0","","","","","","","","","","","","","","","","","","","","","","","","","","","","","","","","","","","","",""
"","","plant-game","0","104","1339029","0-0","","200","120","4","WHEAT CROP","Left","200","120","8","THISTLE WEED","experimental","39","1,2,3,4,5,6,7,8","120,128.3752551932223,169.1085441348085,156.7705705971979,160,156.9282311668606,169.48110657031208,197.6295369063244","4,3,2,1,4,3,2,1","WHEAT CROP,WHEAT CROP,WHEAT CROP,WHEAT CROP,CORN CROP,CORN CROP,CORN CROP,CORN CROP","120,129.53595697295296,149.33121249101617,175.053527871497,137.12076219164393,143.7120409424679,166.92779886485312,154.13852394358886","8,7,6,5,4,3,2,1","THISTLE WEED,THISTLE WEED,THISTLE WEED,THISTLE WEED,THISTLE WEED,THISTLE WEED,THISTLE WEED,THISTLE WEED","20,20,20,20,20,20,20,20","20,20,20,20,20,20,20,20","10,10,10,10,10,10,10,10","20,20,20,20,20,20,20,20","0,0,0,0,0,0,0,0","20,20,20,20,20,20,20,20","20,20,20,20,20,20,20,20","20,20,20,20,20,20,20,20","10,10,10,10,10,10,10,10","20,20,20,20,20,20,20,20","0,0,0,0,0,0,0,0","20,20,20,20,20,20,20,20","0,0,0,1,1,1,0,0","2577,404,517,2619,2227,1592,1505,860","8.375255193222301,40.7332889415862,-12.337973537610608,1.4984079815038842,-3.0717688331393904,12.552875403451491,28.14843033601234,34.89698315986095","9.535956972952961,19.795255518063225,25.722315380480836,-37.932765679853084,6.591278750823964,23.215757922385233,-12.789274921264258,1.0888049487696883","0","0"
"439","86","text","0","105","1339588","0-0","","","","","","","","","","","","","","","","","","","","","","","","","","","","","","","","","","","","",""
"","","plant-game","0","106","1357609","0-0","","200","190","8","WHEAT CROP","Left","200","180","2","NETTLE WEED","experimental","40","1,2,3,4,5,6,7,8","190,152.72601076274088,205.7081723306216,189.3998992440845,180.61408219572212,196.92991895339318,192.06329958290914,186.4581301287849","8,7,6,5,4,3,2,1","WHEAT CROP,WHEAT CROP,WHEAT CROP,WHEAT CROP,WHEAT CROP,WHEAT CROP,WHEAT CROP,WHEAT CROP","180,182.57455525656388,140,114.97680402460088,114.98604493740486,164.4178976801145,152.50163775665112,183.57975942393116","2,1,6,5,4,3,2,1","NETTLE WEED,NETTLE WEED,THISTLE WEED,THISTLE WEED,THISTLE WEED,THISTLE WEED,THISTLE WEED,THISTLE WEED","20,20,20,20,20,20,20,20","20,20,20,20,20,20,20,20","10,10,10,10,10,10,10,10","20,20,20,20,20,20,20,20","0,0,0,0,0,0,0,0","20,20,20,20,20,20,20,20","20,20,20,20,20,20,20,20","20,20,20,20,20,20,20,20","10,10,10,10,10,10,10,10","20,20,20,20,20,20,20,20","0,0,0,0,0,0,0,0","20,20,20,20,20,20,20,20","1,1,1,0,0,0,0,0","3557,568,2098,1092,2009,927,866,930","-37.27398923725913,52.98216156788071,-16.308273086537092,-8.785817048362382,16.31583675767106,-4.866619370484035,-5.6051694541242405,17.843549060820898","2.5745552565638805,-22.574777849258922,-25.02319597539912,0.009240912803974766,49.43185274270965,-11.916259923463372,31.078121667280037,28.086421802969916","0","0"
"656","86","text","0","107","1358345","0-0","","","","","","","","","","","","","","","","","","","","","","","","","","","","","","","","","","","","",""
"","","plant-game","0","108","1374357","0-0","","200","160","2","WHEAT CROP","Left","200","190","4","NETTLE WEED","experimental","41","1,2,3,4","160,177.14378566930765,180,180.14070367098017","2,1,2,1","WHEAT CROP,WHEAT CROP,CORN CROP,CORN CROP","190,221.03707764501294,287.53424879897807,317.9387572774615","4,3,2,1","NETTLE WEED,NETTLE WEED,NETTLE WEED,NETTLE WEED","20,20,20,20","20,20,20,20","10,10,10,10","20,20,20,20","0,0,0,0","20,20,20,20","20,20,20,20","20,20,20,20","10,10,10,10","20,20,20,20","0,0,0,0","20,20,20,20","0,0,0,0","5524,874,4130,794","17.14378566930764,41.67904246212734,0.14070367098016234,19.91314958638489","31.037077645012946,66.49717115396514,30.404508478483418,0.02200908594493356","0","0"
"465","86","text","0","109","1374952","0-0","","","","","","","","","","","","","","","","","","","","","","","","","","","","","","","","","","","","",""
"","","plant-game","0","110","1396799","0-0","","200","160","8","CORN CROP","Left","200","190","4","NETTLE WEED","experimental","42","1,2,3,4,5,6,7,8","160,159.44758337077369,176.15122002390456,185.04130295591867,203.24502280767783,215.49142492120515,221.82568706032112,235.3754167676874","8,7,6,5,4,3,2,1","CORN CROP,CORN CROP,CORN CROP,CORN CROP,CORN CROP,CORN CROP,CORN CROP,CORN CROP","190,192.26336090100676,171.16016069223872,197.1235229710135,160,151.9946017836948,163.91241831604364,174.67880990683312","4,3,2,1,4,3,2,1","NETTLE WEED,NETTLE WEED,NETTLE WEED,NETTLE WEED,THISTLE WEED,THISTLE WEED,THISTLE WEED,THISTLE WEED","20,20,20,20,20,20,20,20","20,20,20,20,20,20,20,20","10,10,10,10,10,10,10,10","20,20,20,20,20,20,20,20","0,0,0,0,0,0,0,0","20,20,20,20,20,20,20,20","20,20,20,20,20,20,20,20","20,20,20,20,20,20,20,20","10,10,10,10,10,10,10,10","20,20,20,20,20,20,20,20","0,0,0,0,0,0,0,0","20,20,20,20,20,20,20,20","1,1,1,1,1,0,1,1","3854,1312,917,821,2649,2169,1309,2098","-0.5524166292263177,16.703636653130886,8.89008293201412,18.203719851759168,12.246402113527337,6.3342621391159515,13.549729707366287,9.616885555402208","2.263360901006754,-21.10320020876804,25.963362278774788,2.2744980695834753,-8.0053982163052,11.917816532348834,10.766391590789482,2.4959518223485064","0","0"
"527","86","text","0","111","1397456","0-0","","","","","","","","","","","","","","","","","","","","","","","","","","","","","","","","","","","","",""
"","","plant-game","0","112","1419530","0-0","","200","160","8","WHEAT CROP","Right","200","190","8","NETTLE WEED","experimental","43","1,2,3,4,5,6,7,8","190,227.0430931686104,218.7735877623821,227.51107115069732,216.72959716862633,215.19673968316874,175.97716610044432,228.31635884038866","8,7,6,5,4,3,2,1","NETTLE WEED,NETTLE WEED,NETTLE WEED,NETTLE WEED,NETTLE WEED,NETTLE WEED,NETTLE WEED,NETTLE WEED","160,172.55392805213768,168.83329828544984,169.86026032977676,164.23735529826826,142.75148687650565,134.99194930658575,151.1903027876642","8,7,6,5,4,3,2,1","WHEAT CROP,WHEAT CROP,WHEAT CROP,WHEAT CROP,WHEAT CROP,WHEAT CROP,WHEAT CROP,WHEAT CROP","0,0,0,0,0,0,0,0","20,20,20,20,20,20,20,20","10,10,10,10,10,10,10,10","20,20,20,20,20,20,20,20","20,20,20,20,20,20,20,20","20,20,20,20,20,20,20,20","0,0,0,0,0,0,0,0","20,20,20,20,20,20,20,20","10,10,10,10,10,10,10,10","20,20,20,20,20,20,20,20","20,20,20,20,20,20,20,20","20,20,20,20,20,20,20,20","1,0,0,0,0,0,1,0","6633,1713,1016,1000,873,910,2947,1893","37.0430931686104,-8.26950540622828,8.737483388315217,-10.781473982070995,-1.5328574854575812,-39.21957358272441,52.33919273994432,37.439633850869875","12.553928052137682,-3.720629766687849,1.026962044326913,-5.622905031508497,-21.485868421762593,-7.759537569919901,16.19835348107845,-24.643502371429264","0","0"
"478","86","text","0","113","1420128","0-0","","","","","","","","","","","","","","","","","","","","","","","","","","","","","","","","","","","","",""
"","","plant-game","0","114","1434793","0-0","","200","180","4","WHEAT CROP","Left","200","190","4","THISTLE WEED","experimental","44","1,2,3,4","180,185.2119791577494,174.80695994002747,184.79168742770065","4,3,2,1","WHEAT CROP,WHEAT CROP,WHEAT CROP,WHEAT CROP","190,227.76339955659373,263.88110285760655,296.12467968287746","4,3,2,1","THISTLE WEED,THISTLE WEED,THISTLE WEED,THISTLE WEED","20,20,20,20","20,20,20,20","10,10,10,10","20,20,20,20","0,0,0,0","20,20,20,20","20,20,20,20","20,20,20,20","10,10,10,10","20,20,20,20","0,0,0,0","20,20,20,20","1,0,0,0","7443,1168,1673,875","5.211979157749393,-10.405019217721929,9.984727487673183,31.88413093692929","37.763399556593725,36.117703301012824,32.24357682527091,26.37034072016837","0","0"
"543","86","text","0","115","1435486","0-0","","","","","","","","","","","","","","","","","","","","","","","","","","","","","","","","","","","","",""
"","","plant-game","0","116","1449350","0-0","","200","190","2","CORN CROP","Right","200","190","1","THISTLE WEED","experimental","45","1,2","190,190","1,1","THISTLE WEED,NETTLE WEED","190,199.4133044738956","2,1","CORN CROP,CORN CROP","0,0","20,20","10,10","20,20","20,20","20,20","0,0","20,20","10,10","20,20","20,20","20,20","1,1","3549,5107","12.102401735464172,46.57900963392521","9.413304473895593,25.555612213537703","0","0"
"660","86","text","0","117","1450100","0-0","","","","","","","","","","","","","","","","","","","","","","","","","","","","","","","","","","","","",""
"","","plant-game","0","118","1474156","0-0","","200","160","8","WHEAT CROP","Right","200","180","1","NETTLE WEED","experimental","46","1,2,3,4,5,6,7,8","180,130,159.37262052023465,147.45529319293254,192.6355158357258,189.65067027105187,214.3926021046052,226.3029713686958","1,7,6,5,4,3,2,1","NETTLE WEED,THISTLE WEED,THISTLE WEED,THISTLE WEED,THISTLE WEED,THISTLE WEED,THISTLE WEED,THISTLE WEED","160,150.88258498411534,114.15122482068375,119.04682385197097,178.39025995423003,209.49711207585932,188.7138711002155,224.71850285124935","8,7,6,5,4,3,2,1","WHEAT CROP,WHEAT CROP,WHEAT CROP,WHEAT CROP,WHEAT CROP,WHEAT CROP,WHEAT CROP,WHEAT CROP","0,0,0,0,0,0,0,0","20,20,20,20,20,20,20,20","10,10,10,10,10,10,10,10","20,20,20,20,20,20,20,20","20,20,20,20,20,20,20,20","20,20,20,20,20,20,20,20","0,0,0,0,0,0,0,0","20,20,20,20,20,20,20,20","10,10,10,10,10,10,10,10","20,20,20,20,20,20,20,20","20,20,20,20,20,20,20,20","20,20,20,20,20,20,20,20","0,0,0,1,1,1,1,1","3133,2864,1812,1284,840,1440,922,1569","20.326585184481708,29.37262052023465,-11.917327327302116,45.180222642793275,-2.9848455646739502,24.741931833553323,11.910369264090612,31.297476578366876","-9.117415015884664,-36.73136016343158,4.89559903128722,59.34343610225905,31.10685212162929,-20.783240975643828,36.00463175103386,-11.557559108291073","0","0"
"534","86","text","0","119","1474820","0-0","","","","","","","","","","","","","","","","","","","","","","","","","","","","","","","","","","","","",""
"","","plant-game","0","120","1493196","0-0","","200","120","2","CORN CROP","Right","200","180","4","NETTLE WEED","experimental","47","1,2,3,4","180,194.54072265132996,185.05329247953208,211.95082417128796","4,3,2,1","NETTLE WEED,NETTLE WEED,NETTLE WEED,NETTLE WEED","120,160.27742770523614,180,206.83791457431943","2,1,2,1","CORN CROP,CORN CROP,WHEAT CROP,WHEAT CROP","0,0,0,0","20,20,20,20","10,10,10,10","20,20,20,20","20,20,20,20","20,20,20,20","0,0,0,0","20,20,20,20","10,10,10,10","20,20,20,20","20,20,20,20","20,20,20,20","1,0,1,1","5792,2031,2524,1538","14.540722651329967,-9.487430171797879,26.89753169175588,1.8996789811852146","40.277427705236136,18.793525912241083,26.83791457431943,-2.104923066873127","0","0"
"503","86","text","0","121","1493799","0-0","","","","","","","","","","","","","","","","","","","","","","","","","","","","","","","","","","","","",""
"","","plant-game","0","122","1514492","0-0","","200","190","8","WHEAT CROP","Left","200","190","4","THISTLE WEED","experimental","48","1,2,3,4,5,6,7,8","190,219.15857987900736,215.08070480938076,244.56286398425436,232.46402428557073,218.1933771723886,225.2526675953004,188.06198801317765","8,7,6,5,4,3,2,1","WHEAT CROP,WHEAT CROP,WHEAT CROP,WHEAT CROP,WHEAT CROP,WHEAT CROP,WHEAT CROP,WHEAT CROP","190,200.16502882595225,241.72688118796012,237.05997334973446,160,139.33945999539162,137.98043467710667,142.1288887979988","4,3,2,1,4,3,2,1","THISTLE WEED,THISTLE WEED,THISTLE WEED,THISTLE WEED,NETTLE WEED,NETTLE WEED,NETTLE WEED,NETTLE WEED","20,20,20,20,20,20,20,20","20,20,20,20,20,20,20,20","10,10,10,10,10,10,10,10","20,20,20,20,20,20,20,20","0,0,0,0,0,0,0,0","20,20,20,20,20,20,20,20","20,20,20,20,20,20,20,20","20,20,20,20,20,20,20,20","10,10,10,10,10,10,10,10","20,20,20,20,20,20,20,20","0,0,0,0,0,0,0,0","20,20,20,20,20,20,20,20","1,1,1,1,1,1,1,0","4129,933,804,1216,4549,886,540,1939","29.158579879007355,-4.077875069626599,29.48215917487361,-12.098839698683623,-14.27064711318212,7.0592904229117925,-37.19067958212274,39.07207558541329","10.165028825952252,41.561852362007876,-4.666907838225665,-9.512045198629405,-20.660540004608375,-1.3590253182849545,4.148454120892117,0.16081752988551656","0","0"
"346","86","text","0","123","1514978","0-0","","","","","","","","","","","","","","","","","","","","","","","","","","","","","","","","","","","","",""
"","","plant-game","0","124","1532349","0-0","","200","190","4","CORN CROP","Right","200","180","2","NETTLE WEED","experimental","49","1,2,3,4","180,208.16552257773756,180,162.60387836174317","2,1,2,1","NETTLE WEED,NETTLE WEED,THISTLE WEED,THISTLE WEED","190,211.86616000303624,224.21351067176582,175.08578447590523","4,3,2,1","CORN CROP,CORN CROP,CORN CROP,CORN CROP","0,0,0,0","20,20,20,20","10,10,10,10","20,20,20,20","20,20,20,20","20,20,20,20","0,0,0,0","20,20,20,20","10,10,10,10","20,20,20,20","20,20,20,20","20,20,20,20","1,0,0,1","5722,1395,3462,1592","28.165522577737562,-8.762117906397663,-17.396121638256822,-2.3320445825968648","21.866160003036235,12.347350668729574,-49.12772619586058,-4.802837393940539","0","0"
"471","86","text","0","125","1532900","0-0","","","","","","","","","","","","","","","","","","","","","","","","","","","","","","","","","","","","",""
"","","plant-game","0","126","1544452","0-0","","200","180","4","CORN CROP","Left","200","160","4","NETTLE WEED","experimental","50","1,2,3,4","180,229.64581565569563,259.90349172465693,225.01536831297742","4,3,2,1","CORN CROP,CORN CROP,CORN CROP,CORN CROP","160,152.70704480383876,144.28212096734578,162.718329738987","4,3,2,1","NETTLE WEED,NETTLE WEED,NETTLE WEED,NETTLE WEED","20,20,20,20","20,20,20,20","10,10,10,10","20,20,20,20","0,0,0,0","20,20,20,20","20,20,20,20","20,20,20,20","10,10,10,10","20,20,20,20","0,0,0,0","20,20,20,20","0,0,1,1","4093,1027,1425,1414","49.645815655695614,30.257676068961278,-34.88812341167951,-9.6886217700535","-7.2929551961612376,-8.424923836492969,18.436208771641216,-6.069661607915103","0","0"
"417","86","text","0","127","1544959","0-0","","","","","","","","","","","","","","","","","","","","","","","","","","","","","","","","","","","","",""
"","","plant-game","0","128","1558933","0-0","","200","180","2","CORN CROP","Right","200","190","1","THISTLE WEED","experimental","51","1,2","190,190","1,1","THISTLE WEED,NETTLE WEED","180,155.6504633125863","2,1","CORN CROP,CORN CROP","0,0","20,20","10,10","20,20","20,20","20,20","0,0","20,20","10,10","20,20","20,20","20,20","0,0","5827,2662","-35.51007374520157,14.709576388423049","-24.349536687413682,-21.761803319829486","0","0"
"640","86","text","0","129","1559683","0-0","","","","","","","","","","","","","","","","","","","","","","","","","","","","","","","","","","","","",""
"","","plant-game","0","130","1579426","0-0","","200","160","2","WHEAT CROP","Left","200","160","4","THISTLE WEED","experimental","52","1,2,3,4","160,185.84397271250128,180,234.065344852478","2,1,2,1","WHEAT CROP,WHEAT CROP,CORN CROP,CORN CROP","160,181.20132391117187,229.46827615220474,237.15608545905096","4,3,2,1","THISTLE WEED,THISTLE WEED,THISTLE WEED,THISTLE WEED","20,20,20,20","20,20,20,20","10,10,10,10","20,20,20,20","0,0,0,0","20,20,20,20","20,20,20,20","20,20,20,20","10,10,10,10","20,20,20,20","0,0,0,0","20,20,20,20","0,0,0,0","3453,1008,8377,826","25.84397271250127,12.732380181567697,54.06534485247802,18.275164896340954","21.201323911171865,48.26695224103286,7.6878093068462245,26.83355276857749","0","0"
"2314","86","text","0","131","1581830","0-0","","","","","","","","","","","","","","","","","","","","","","","","","","","","","","","","","","","","",""
"","","plant-game","0","132","1594409","0-0","","200","160","2","CORN CROP","Right","200","120","4","THISTLE WEED","experimental","53","1,2,3,4","120,134.75019379715354,110.85674995906214,124.74099414981309","4,3,2,1","THISTLE WEED,THISTLE WEED,THISTLE WEED,THISTLE WEED","160,195.32709924758012,180,192.41465250511442","2,1,2,1","CORN CROP,CORN CROP,WHEAT CROP,WHEAT CROP","0,0,0,0","20,20,20,20","10,10,10,10","20,20,20,20","20,20,20,20","20,20,20,20","0,0,0,0","20,20,20,20","10,10,10,10","20,20,20,20","20,20,20,20","20,20,20,20","1,1,1,1","4027,452,2979,602","14.750193797153557,-23.8934438380914,13.884244190750946,6.997648206434558","35.327099247580136,24.262961038237442,12.414652505114415,37.99022090885352","0","0"
"672","86","text","0","133","1595181","0-0","","","","","","","","","","","","","","","","","","","","","","","","","","","","","","","","","","","","",""
"","","plant-game","0","134","1608349","0-0","","200","180","4","CORN CROP","Left","200","120","2","NETTLE WEED","experimental","54","1,2,3,4","180,193.39898314027343,252.23360843659168,272.4412499489906","4,3,2,1","CORN CROP,CORN CROP,CORN CROP,CORN CROP","120,157.5613728306788,180,166.39460571494226","2,1,2,1","NETTLE WEED,NETTLE WEED,THISTLE WEED,THISTLE WEED","20,20,20,20","20,20,20,20","10,10,10,10","20,20,20,20","0,0,0,0","20,20,20,20","20,20,20,20","20,20,20,20","10,10,10,10","20,20,20,20","0,0,0,0","20,20,20,20","0,0,1,1","3743,603,1931,1568","13.398983140273428,58.83462529631824,20.20764151239893,0.2870751200104006","37.561372830678806,33.52670986927241,-13.605394285057749,5.252398878157808","0","0"
"510","86","text","0","135","1608989","0-0","","","","","","","","","","","","","","","","","","","","","","","","","","","","","","","","","","","","",""
"","","plant-game","0","136","1630130","0-0","","200","180","2","WHEAT CROP","Right","200","190","8","THISTLE WEED","experimental","55","1,2,3,4,5,6,7,8","190,211.32409956625088,230.13643119614989,270.8615556159259,280.67180473671704,315.67440072630325,342.080226064467,374.8166334678533","8,7,6,5,4,3,2,1","THISTLE WEED,THISTLE WEED,THISTLE WEED,THISTLE WEED,THISTLE WEED,THISTLE WEED,THISTLE WEED,THISTLE WEED","180,219.50207431688796,140,135.11719476913038,154.4561422036215,182.12964193570133,190.42664916436868,231.03334671293064","2,1,6,5,4,3,2,1","WHEAT CROP,WHEAT CROP,CORN CROP,CORN CROP,CORN CROP,CORN CROP,CORN CROP,CORN CROP","0,0,0,0,0,0,0,0","20,20,20,20,20,20,20,20","10,10,10,10,10,10,10,10","20,20,20,20,20,20,20,20","20,20,20,20,20,20,20,20","20,20,20,20,20,20,20,20","0,0,0,0,0,0,0,0","20,20,20,20,20,20,20,20","10,10,10,10,10,10,10,10","20,20,20,20,20,20,20,20","20,20,20,20,20,20,20,20","20,20,20,20,20,20,20,20","1,1,1,1,1,1,1,1","7555,827,3365,689,728,741,754,983","21.324099566250865,18.81233162989902,40.725124419775995,9.810249120791124,35.0025959895862,26.405825338163766,32.73640740338632,11.426782132302474","39.50207431688797,7.74263051614075,-4.882805230869629,19.338947434491143,27.673499732079826,8.297007228667347,40.60669754856196,-9.066582152716123","0","0"
"638","86","text","0","137","1630888","0-0","","","","","","","","","","","","","","","","","","","","","","","","","","","","","","","","","","","","",""
"","","plant-game","0","138","1648188","0-0","","200","180","4","WHEAT CROP","Left","200","190","2","THISTLE WEED","experimental","56","1,2,3,4","180,181.36491643545986,203.76578600148727,186.81685887345077","4,3,2,1","WHEAT CROP,WHEAT CROP,WHEAT CROP,WHEAT CROP","190,153.9195265082039,180,191.62488775812386","2,1,2,1","THISTLE WEED,THISTLE WEED,NETTLE WEED,NETTLE WEED","20,20,20,20","20,20,20,20","10,10,10,10","20,20,20,20","0,0,0,0","20,20,20,20","20,20,20,20","20,20,20,20","10,10,10,10","20,20,20,20","0,0,0,0","20,20,20,20","1,0,0,0","3986,3035,3841,1594","1.3649164354598609,22.400869566027403,-16.948927128036516,38.58080628231926","-36.080473491796106,-9.177211635478827,11.624887758123851,30.279571825319117","0","0"
"541","86","text","0","139","1648839","0-0","","","","","","","","","","","","","","","","","","","","","","","","","","","","","","","","","","","","",""
"","","plant-game","0","140","1661650","0-0","","200","190","8","CORN CROP","Left","200","160","8","NETTLE WEED","experimental","57","1,2,3,4,5,6,7,8","190,185.20692944159399,170.59312482587103,169.07378279120053,104.26283901024182,118.07734454611105,139.2642731928732,116.57530306954948","8,7,6,5,4,3,2,1","CORN CROP,CORN CROP,CORN CROP,CORN CROP,CORN CROP,CORN CROP,CORN CROP,CORN CROP","160,154.53597352970752,183.23472964415836,152.1129644673531,149.80223048395018,161.2484472901915,163.86088748878618,145.05644233223896","8,7,6,5,4,3,2,1","NETTLE WEED,NETTLE WEED,NETTLE WEED,NETTLE WEED,NETTLE WEED,NETTLE WEED,NETTLE WEED,NETTLE WEED","20,20,20,20,20,20,20,20","20,20,20,20,20,20,20,20","10,10,10,10,10,10,10,10","20,20,20,20,20,20,20,20","0,0,0,0,0,0,0,0","20,20,20,20,20,20,20,20","20,20,20,20,20,20,20,20","20,20,20,20,20,20,20,20","10,10,10,10,10,10,10,10","20,20,20,20,20,20,20,20","0,0,0,0,0,0,0,0","20,20,20,20,20,20,20,20","1,1,1,1,1,1,1,1","4108,414,798,540,560,800,537,536","-4.7930705584060025,-14.613804615722959,-1.5193420346705124,-64.81094378095871,13.814505535869232,21.186928646762144,-22.68897012332371,-25.602970919035272","-5.464026470292485,28.698756114450845,-31.121765176805283,-2.3107339834029226,11.446216806241331,2.6124401985946695,-18.804445156547228,-4.663113322751462","0","0"
"464","86","text","0","141","1662214","0-0","","","","","","","","","","","","","","","","","","","","","","","","","","","","","","","","","","","","",""
"","","plant-game","0","142","1681532","0-0","","200","120","2","CORN CROP","Right","200","120","8","NETTLE WEED","experimental","58","1,2,3,4,5,6,7,8","120,124.13257378599198,145.3316577270218,186.67839537647615,232.71876697683183,266.54440447668156,260.714429818779,302.7264339155907","8,7,6,5,4,3,2,1","NETTLE WEED,NETTLE WEED,NETTLE WEED,NETTLE WEED,NETTLE WEED,NETTLE WEED,NETTLE WEED,NETTLE WEED","120,118.15618046968689,140,158.12357961720608,173.6388342129904,216.089857780749,222.94552355630077,265.1172454842378","2,1,6,5,4,3,2,1","CORN CROP,CORN CROP,WHEAT CROP,WHEAT CROP,WHEAT CROP,WHEAT CROP,WHEAT CROP,WHEAT CROP","0,0,0,0,0,0,0,0","20,20,20,20,20,20,20,20","10,10,10,10,10,10,10,10","20,20,20,20,20,20,20,20","20,20,20,20,20,20,20,20","20,20,20,20,20,20,20,20","0,0,0,0,0,0,0,0","20,20,20,20,20,20,20,20","10,10,10,10,10,10,10,10","20,20,20,20,20,20,20,20","20,20,20,20,20,20,20,20","20,20,20,20,20,20,20,20","0,0,1,1,1,1,1,1","7145,325,2458,835,602,1050,528,783","4.1325737859919816,21.1990839410298,41.346737649454354,46.040371600355684,33.82563749984972,-5.829974657902532,42.01200409681169,11.905857451815216","-1.8438195303131097,29.609166334209114,18.123579617206072,15.515254595784306,42.45102356775861,6.85566577555176,42.17172192793704,19.98980066930819","0","0"
"466","86","text","0","143","1682098","0-0","","","","","","","","","","","","","","","","","","","","","","","","","","","","","","","","","","","","",""
"","","plant-game","0","144","1700160","0-0","","200","160","2","CORN CROP","Left","200","160","8","THISTLE WEED","experimental","59","1,2,3,4,5,6,7,8","160,157.18247958340186,140,129.4210627830217,100.37092419927112,122.76296238933159,127.3885079436372,136.7703752871608","2,1,6,5,4,3,2,1","CORN CROP,CORN CROP,WHEAT CROP,WHEAT CROP,WHEAT CROP,WHEAT CROP,WHEAT CROP,WHEAT CROP","160,136.6480768492448,124.31988526501007,103.70863400688853,110.07034573687918,122.25388230109152,156.4117233645408,119.86355370366431","8,7,6,5,4,3,2,1","THISTLE WEED,THISTLE WEED,THISTLE WEED,THISTLE WEED,THISTLE WEED,THISTLE WEED,THISTLE WEED,THISTLE WEED","20,20,20,20,20,20,20,20","20,20,20,20,20,20,20,20","10,10,10,10,10,10,10,10","20,20,20,20,20,20,20,20","0,0,0,0,0,0,0,0","20,20,20,20,20,20,20,20","20,20,20,20,20,20,20,20","20,20,20,20,20,20,20,20","10,10,10,10,10,10,10,10","20,20,20,20,20,20,20,20","0,0,0,0,0,0,0,0","20,20,20,20,20,20,20,20","1,1,0,0,0,0,1,0","4121,1298,2543,367,479,471,1581,1609","-2.8175204165981453,-22.156064188864512,-10.57893721697829,-29.050138583750602,22.392038190060468,4.6255455543056065,9.381867343523599,45.84537268100231","-23.351923150755198,-12.328191584234727,-20.61125125812154,6.36171172999064,12.183536564212343,34.157841063449276,-36.54816966087648,22.55646817808136","0","0"
"466","86","text","0","145","1700720","0-0","","","","","","","","","","","","","","","","","","","","","","","","","","","","","","","","","","","","",""
"","","plant-game","0","146","1707038","0-0","","200","160","1","CORN CROP","Left","200","180","1","NETTLE WEED","experimental","60","1","160","1","CORN CROP","180","1","NETTLE WEED","20","20","10","20","0","20","20","20","10","20","0","20","1","3203","28.524391297078402","-32.2181281577548","0","0"
"570","86","text","0","147","1707748","0-0","","","","","","","","","","","","","","","","","","","","","","","","","","","","","","","","","","","","",""
"","","plant-game","0","148","1726071","0-0","","200","180","8","WHEAT CROP","Right","200","190","4","NETTLE WEED","experimental","61","1,2,3,4,5,6,7,8","190,200.15226885734623,207.82778348848177,221.77199736303388,160,196.97207071860552,206.6235216150657,233.94004697872654","4,3,2,1,4,3,2,1","NETTLE WEED,NETTLE WEED,NETTLE WEED,NETTLE WEED,THISTLE WEED,THISTLE WEED,THISTLE WEED,THISTLE WEED","180,160.68125365920486,168.3019563704406,179.59437103955443,191.8339296986286,203.59811543775356,196.17912931353757,203.38386187892775","8,7,6,5,4,3,2,1","WHEAT CROP,WHEAT CROP,WHEAT CROP,WHEAT CROP,WHEAT CROP,WHEAT CROP,WHEAT CROP,WHEAT CROP","0,0,0,0,0,0,0,0","20,20,20,20,20,20,20,20","10,10,10,10,10,10,10,10","20,20,20,20,20,20,20,20","20,20,20,20,20,20,20,20","20,20,20,20,20,20,20,20","0,0,0,0,0,0,0,0","20,20,20,20,20,20,20,20","10,10,10,10,10,10,10,10","20,20,20,20,20,20,20,20","20,20,20,20,20,20,20,20","20,20,20,20,20,20,20,20","0,0,0,0,1,1,1,1","4578,513,600,807,3474,1427,943,509","10.152268857346217,7.675514631135529,13.944213874552098,-4.107822210566944,36.97207071860552,9.651450896460176,27.316525363660855,20.30116460410013","-19.31874634079516,7.620702711235724,11.292414669113846,12.23955865907417,11.764185739124972,-7.418986124216001,7.204732565390186,10.797429982177228","0","0"
"158","86","text","0","149","1726329","0-0","","","","","","","","","","","","","","","","","","","","","","","","","","","","","","","","","","","","",""
"","","plant-game","0","150","1744131","0-0","","200","190","8","CORN CROP","Right","200","190","2","THISTLE WEED","experimental","62","1,2,3,4,5,6,7,8","190,203.42034889374776,140,137.91317682147186,178.2261026188717,198.46564939176577,209.9518988065293,210.4721850553417","2,1,6,5,4,3,2,1","THISTLE WEED,THISTLE WEED,NETTLE WEED,NETTLE WEED,NETTLE WEED,NETTLE WEED,NETTLE WEED,NETTLE WEED","190,191.98960692072208,200.10417048207324,217.29911384435107,256.4948054373219,261.3442311582771,237.40921026385737,265.4090765645359","8,7,6,5,4,3,2,1","CORN CROP,CORN CROP,CORN CROP,CORN CROP,CORN CROP,CORN CROP,CORN CROP,CORN CROP","0,0,0,0,0,0,0,0","20,20,20,20,20,20,20,20","10,10,10,10,10,10,10,10","20,20,20,20,20,20,20,20","20,20,20,20,20,20,20,20","20,20,20,20,20,20,20,20","0,0,0,0,0,0,0,0","20,20,20,20,20,20,20,20","10,10,10,10,10,10,10,10","20,20,20,20,20,20,20,20","20,20,20,20,20,20,20,20","20,20,20,20,20,20,20,20","0,0,1,1,0,0,0,0","2855,1262,2387,854,1041,1232,1127,994","13.420348893747743,-14.301340254986103,-2.0868231785281424,40.31292579739982,20.23954677289407,11.486249414763536,0.5202862488124028,-7.19825798460485","1.9896069207220943,8.114563561351176,17.194943362277822,39.195691592970796,4.849425720955257,-23.935020894419754,27.999866300678498,38.763276401473064","0","0"
"483","86","text","0","151","1744714","0-0","","","","","","","","","","","","","","","","","","","","","","","","","","","","","","","","","","","","",""
"","","plant-game","0","152","1763001","0-0","","200","180","8","CORN CROP","Left","200","160","8","NETTLE WEED","experimental","63","1,2,3,4,5,6,7,8","180,219.04721444573858,205.32756332113507,206.87271765259104,211.2110656314728,210.10490153869983,169.97316877415074,209.93624810711822","8,7,6,5,4,3,2,1","CORN CROP,CORN CROP,CORN CROP,CORN CROP,CORN CROP,CORN CROP,CORN CROP,CORN CROP","160,163.7128337034464,166.98081592397344,170.13657151509858,162.2123143079683,164.92551726035475,161.190315300006,192.51520588635665","8,7,6,5,4,3,2,1","NETTLE WEED,NETTLE WEED,NETTLE WEED,NETTLE WEED,NETTLE WEED,NETTLE WEED,NETTLE WEED,NETTLE WEED","20,20,20,20,20,20,20,20","20,20,20,20,20,20,20,20","10,10,10,10,10,10,10,10","20,20,20,20,20,20,20,20","0,0,0,0,0,0,0,0","20,20,20,20,20,20,20,20","20,20,20,20,20,20,20,20","20,20,20,20,20,20,20,20","10,10,10,10,10,10,10,10","20,20,20,20,20,20,20,20","0,0,0,0,0,0,0,0","20,20,20,20,20,20,20,20","1,1,1,1,1,1,0,0","8001,540,461,403,463,386,2026,1286","39.047214445738575,-13.719651124603491,1.5451543314559637,4.3383479788817585,-1.10616409277296,-40.131732764549106,39.963079332967474,4.238170016172072","3.7128337034463996,3.267982220527049,3.1557555911251516,-7.924257207130266,2.7132029523864265,-3.735201960348759,31.324890586350637,18.616463401114196","0","0"
"246","86","text","0","153","1763337","0-0","","","","","","","","","","","","","","","","","","","","","","","","","","","","","","","","","","","","",""
"","","plant-game","0","154","1780533","0-0","","200","120","4","WHEAT CROP","Right","200","180","2","NETTLE WEED","experimental","64","1,2,3,4","180,177.1155397081204,180,183.9330109420829","2,1,2,1","NETTLE WEED,NETTLE WEED,THISTLE WEED,THISTLE WEED","120,129.20405714942714,140.6821355678733,146.34192221210253","4,3,2,1","WHEAT CROP,WHEAT CROP,WHEAT CROP,WHEAT CROP","0,0,0,0","20,20,20,20","10,10,10,10","20,20,20,20","20,20,20,20","20,20,20,20","0,0,0,0","20,20,20,20","10,10,10,10","20,20,20,20","20,20,20,20","20,20,20,20","0,0,0,0","6266,735,4417,427","-2.884460291879595,18.580778145226628,3.933010942082885,40.958927345411595","9.204057149427138,11.478078418446167,5.65978664422923,5.338111231143511","0","0"
"2982","86","text","0","155","1783655","0-0","","","","","","","","","","","","","","","","","","","","","","","","","","","","","","","","","","","","",""
"","","plant-game","0","156","1797696","0-0","","200","190","2","CORN CROP","Right","200","180","1","NETTLE WEED","experimental","65","1,2","180,190","1,1","NETTLE WEED,THISTLE WEED","190,228.9770910565478","2,1","CORN CROP,CORN CROP","0,0","20,20","10,10","20,20","20,20","20,20","0,0","20,20","10,10","20,20","20,20","20,20","1,0","5414,3903","-0.6029459715604801,4.049356314188004","38.97709105654782,-26.48297557953956","0","0"
"429","86","text","0","157","1798255","0-0","","","","","","","","","","","","","","","","","","","","","","","","","","","","","","","","","","","","",""
"","","plant-game","0","158","1814922","0-0","","200","180","1","WHEAT CROP","Left","200","160","2","THISTLE WEED","experimental","66","1,2","180,190","1,1","WHEAT CROP,CORN CROP","160,176.37261293880368","2,1","THISTLE WEED,THISTLE WEED","20,20","20,20","10,10","20,20","0,0","20,20","20,20","20,20","10,10","20,20","0,0","20,20","0,0","8740,3188","3.858006817414303,34.46137355513674","16.372612938803687,4.112187568422881","0","0"
"449","86","text","0","159","1815451","0-0","","","","","","","","","","","","","","","","","","","","","","","","","","","","","","","","","","","","",""
"","","plant-game","0","160","1828699","0-0","","200","180","4","WHEAT CROP","Right","200","190","1","NETTLE WEED","experimental","67","1,2,3,4","190,170,167.51656423959113,145.77796055631606","1,3,2,1","NETTLE WEED,THISTLE WEED,THISTLE WEED,THISTLE WEED","180,182.7227414583284,196.12387607753146,189.09773393517187","4,3,2,1","WHEAT CROP,WHEAT CROP,WHEAT CROP,WHEAT CROP","0,0,0,0","20,20,20,20","10,10,10,10","20,20,20,20","20,20,20,20","20,20,20,20","0,0,0,0","20,20,20,20","10,10,10,10","20,20,20,20","20,20,20,20","20,20,20,20","0,0,0,1","5483,1577,457,1034","17.92905248397235,-2.483435760408878,-21.738603683275084,16.183859589855942","2.7227414583283878,13.401134619203074,-7.026142142359584,43.99174663756946","0","0"
"448","86","text","0","161","1829267","0-0","","","","","","","","","","","","","","","","","","","","","","","","","","","","","","","","","","","","",""
"","","plant-game","0","162","1841690","0-0","","200","120","1","WHEAT CROP","Left","200","120","2","THISTLE WEED","experimental","68","1,2","120,190","1,1","WHEAT CROP,CORN CROP","120,121.65227158974429","2,1","THISTLE WEED,THISTLE WEED","20,20","20,20","10,10","20,20","0,0","20,20","20,20","20,20","10,10","20,20","0,0","20,20","1,1","3437,2950","-30.665303056379955,14.326331162670492","1.6522715897442908,-15.765944057105848","0","0"
"520","86","text","0","163","1842320","0-0","","","","","","","","","","","","","","","","","","","","","","","","","","","","","","","","","","","","",""
"","","plant-game","0","164","1858466","0-0","","200","120","8","CORN CROP","Right","200","160","2","NETTLE WEED","experimental","69","1,2,3,4,5,6,7,8","160,203.1259217500213,140,156.496872305483,172.30289998465167,143.86361963751926,144.78768527305363,139.0068022406127","2,1,6,5,4,3,2,1","NETTLE WEED,NETTLE WEED,THISTLE WEED,THISTLE WEED,THISTLE WEED,THISTLE WEED,THISTLE WEED,THISTLE WEED","120,97.67427674175627,77.12231481846067,99.28557649112122,77.43458634402978,80.56206108882157,101.36388364667381,102.75985368423882","8,7,6,5,4,3,2,1","CORN CROP,CORN CROP,CORN CROP,CORN CROP,CORN CROP,CORN CROP,CORN CROP,CORN CROP","0,0,0,0,0,0,0,0","20,20,20,20,20,20,20,20","10,10,10,10,10,10,10,10","20,20,20,20,20,20,20,20","20,20,20,20,20,20,20,20","20,20,20,20,20,20,20,20","0,0,0,0,0,0,0,0","20,20,20,20,20,20,20,20","10,10,10,10,10,10,10,10","20,20,20,20,20,20,20,20","20,20,20,20,20,20,20,20","20,20,20,20,20,20,20,20","1,0,0,0,0,0,0,0","3865,2095,3075,171,227,388,310,384","43.125921750021305,19.926335166970727,16.496872305483,15.806027679168665,-28.439280347132424,0.9240656355343577,-5.780883032440924,19.714677358280873","-22.32572325824372,-20.55196192329561,22.16326167266056,-21.850990147091437,3.1274747447917814,20.801822557852248,1.3959700375650133,-5.786522267469976","0","0"
"469","86","text","0","165","1859075","0-0","","","","","","","","","","","","","","","","","","","","","","","","","","","","","","","","","","","","",""
"","","plant-game","0","166","1865857","0-0","","200","160","2","CORN CROP","Right","200","160","2","NETTLE WEED","experimental","70","1,2","160,155.9015981049429","2,1","NETTLE WEED,NETTLE WEED","160,186.12380390815792","2,1","CORN CROP,CORN CROP","0,0","20,20","10,10","20,20","20,20","20,20","0,0","20,20","10,10","20,20","20,20","20,20","0,0","3173,513","-4.098401895057084,-19.623407179916217","26.123803908157917,-30.230737777924965","0","0"
"473","86","text","0","167","1866455","0-0","","","","","","","","","","","","","","","","","","","","","","","","","","","","","","","","","","","","",""
"","","plant-game","0","168","1876452","0-0","","200","160","4","CORN CROP","Left","200","180","4","THISTLE WEED","experimental","71","1,2,3,4","160,174.588490192132,184.49132720685031,182.8910347815298","4,3,2,1","CORN CROP,CORN CROP,CORN CROP,CORN CROP","180,173.24121700309806,185.40558074192018,171.00330232928872","4,3,2,1","THISTLE WEED,THISTLE WEED,THISTLE WEED,THISTLE WEED","20,20,20,20","20,20,20,20","10,10,10,10","20,20,20,20","0,0,0,0","20,20,20,20","20,20,20,20","20,20,20,20","10,10,10,10","20,20,20,20","0,0,0,0","20,20,20,20","1,1,1,0","2629,1003,1353,1987","14.588490192132022,9.902837014718308,-1.6002924253205166,31.510502203905176","-6.758782996901948,12.164363738822113,-14.402278412631473,49.829026599404706","0","0"
"484","86","text","0","169","1877076","0-0","","","","","","","","","","","","","","","","","","","","","","","","","","","","","","","","","","","","",""
"","","plant-game","0","170","1894499","0-0","","200","180","8","CORN CROP","Left","200","160","2","NETTLE WEED","experimental","72","1,2,3,4,5,6,7,8","180,159.95163668869014,162.88116959848867,192.01387877227324,201.39720052202875,203.12319065030613,185.58254305770149,176.04620656839762","8,7,6,5,4,3,2,1","CORN CROP,CORN CROP,CORN CROP,CORN CROP,CORN CROP,CORN CROP,CORN CROP,CORN CROP","160,108.08653867296945,140,140.34577354921916,165.84644776100288,188.9320289879031,179.54054667781648,183.1051137060247","2,1,6,5,4,3,2,1","NETTLE WEED,NETTLE WEED,THISTLE WEED,THISTLE WEED,THISTLE WEED,THISTLE WEED,THISTLE WEED,THISTLE WEED","20,20,20,20,20,20,20,20","20,20,20,20,20,20,20,20","10,10,10,10,10,10,10,10","20,20,20,20,20,20,20,20","0,0,0,0,0,0,0,0","20,20,20,20,20,20,20,20","20,20,20,20,20,20,20,20","20,20,20,20,20,20,20,20","10,10,10,10,10,10,10,10","20,20,20,20,20,20,20,20","0,0,0,0,0,0,0,0","20,20,20,20,20,20,20,20","1,1,1,1,1,1,1,1","2919,344,1884,513,869,388,1771,2430","-20.048363311309846,2.929532909798537,29.132709173784562,9.383321749755506,1.72599012827737,-17.540647592604635,-9.536336489303853,7.2218051652802915","-51.91346132703054,12.545770267633989,0.34577354921915276,25.500674211783725,23.085581226900224,-9.39148231008662,3.5645670282082156,-11.05724576860436","0","0"
"477","86","text","0","171","1895086","0-0","","","","","","","","","","","","","","","","","","","","","","","","","","","","","","","","","","","","",""
"","","plant-game","0","172","1906539","0-0","","200","160","1","WHEAT CROP","Left","200","180","2","NETTLE WEED","experimental","73","1,2","160,190","1,1","WHEAT CROP,CORN CROP","180,177.18481780099768","2,1","NETTLE WEED,NETTLE WEED","20,20","20,20","10,10","20,20","0,0","20,20","20,20","20,20","10,10","20,20","0,0","20,20","1,0","4189,1989","4.126461564170739,33.8691692206347","-2.81518219900231,18.09218940331033","0","0"
"459","86","text","0","173","1907098","0-0","","","","","","","","","","","","","","","","","","","","","","","","","","","","","","","","","","","","",""
"","","plant-game","0","174","1920285","0-0","","200","120","4","CORN CROP","Left","200","160","2","NETTLE WEED","experimental","74","1,2,3,4","120,142.17989391867394,120.57426094128961,122.25610697738045","4,3,2,1","CORN CROP,CORN CROP,CORN CROP,CORN CROP","160,147.59630541769286,180,166.28747533780015","2,1,2,1","NETTLE WEED,NETTLE WEED,THISTLE WEED,THISTLE WEED","20,20,20,20","20,20,20,20","10,10,10,10","20,20,20,20","0,0,0,0","20,20,20,20","20,20,20,20","20,20,20,20","10,10,10,10","20,20,20,20","0,0,0,0","20,20,20,20","1,1,1,1","3449,202,4578,428","22.179893918673933,-21.60563297738433,1.6818460360908436,-2.8224137702638714","-12.403694582307148,21.010038728538877,-13.712524662199858,-6.935327820329466","0","0"
"533","86","text","0","175","1920968","0-0","","","","","","","","","","","","","","","","","","","","","","","","","","","","","","","","","","","","",""
"","","plant-game","0","176","1934551","0-0","","200","190","4","WHEAT CROP","Left","200","180","1","THISTLE WEED","experimental","75","1,2,3,4","190,207.15395692301087,232.23360294167966,223.117345111545","4,3,2,1","WHEAT CROP,WHEAT CROP,WHEAT CROP,WHEAT CROP","180,170,181.7299800711141,201.04148246350098","1,3,2,1","THISTLE WEED,NETTLE WEED,NETTLE WEED,NETTLE WEED","20,20,20,20","20,20,20,20","10,10,10,10","20,20,20,20","0,0,0,0","20,20,20,20","20,20,20,20","20,20,20,20","10,10,10,10","20,20,20,20","0,0,0,0","20,20,20,20","1,0,0,0","4964,2889,246,425","17.153956923010867,25.0796460186688,-9.11625783013466,31.39983151785535","12.448257468323993,11.72998007111411,19.311502392386863,3.8474185474837945","0","0"
"439","86","text","0","177","1935080","0-0","","","","","","","","","","","","","","","","","","","","","","","","","","","","","","","","","","","","",""
"","","plant-game","0","178","1948763","0-0","","200","190","2","WHEAT CROP","Right","200","120","4","NETTLE WEED","experimental","76","1,2,3,4","120,121.50246054523033,159.07373819214362,152.04051983391673","4,3,2,1","NETTLE WEED,NETTLE WEED,NETTLE WEED,NETTLE WEED","190,186.5707355066581,180,146.91153240752126","2,1,2,1","WHEAT CROP,WHEAT CROP,CORN CROP,CORN CROP","0,0,0,0","20,20,20,20","10,10,10,10","20,20,20,20","20,20,20,20","20,20,20,20","0,0,0,0","20,20,20,20","10,10,10,10","20,20,20,20","20,20,20,20","20,20,20,20","1,1,1,1","5294,620,2547,506","1.5024605452303383,37.57127764691328,-7.033218358226879,32.70096729253078","-3.429264493341897,-0.9543221407247202,-33.08846759247874,50.19886762997787","0","0"
"484","86","text","0","179","1949367","0-0","","","","","","","","","","","","","","","","","","","","","","","","","","","","","","","","","","","","",""
"","","plant-game","0","180","1962637","0-0","","200","120","2","CORN CROP","Right","200","180","8","NETTLE WEED","experimental","77","1,2,3,4,5,6,7,8","180,188.53307760669693,165.16413560144025,177.4639943718887,198.1533344262579,170.02963018506475,163.6800281711588,141.50986151455947","8,7,6,5,4,3,2,1","NETTLE WEED,NETTLE WEED,NETTLE WEED,NETTLE WEED,NETTLE WEED,NETTLE WEED,NETTLE WEED,NETTLE WEED","120,103.04401365513206,140,146.65570607057555,153.0642403499448,90.93692654493631,80.95992823915644,56.58117428719595","2,1,6,5,4,3,2,1","CORN CROP,CORN CROP,WHEAT CROP,WHEAT CROP,WHEAT CROP,WHEAT CROP,WHEAT CROP,WHEAT CROP","0,0,0,0,0,0,0,0","20,20,20,20,20,20,20,20","10,10,10,10,10,10,10,10","20,20,20,20,20,20,20,20","20,20,20,20,20,20,20,20","20,20,20,20,20,20,20,20","0,0,0,0,0,0,0,0","20,20,20,20,20,20,20,20","10,10,10,10,10,10,10,10","20,20,20,20,20,20,20,20","20,20,20,20,20,20,20,20","20,20,20,20,20,20,20,20","0,0,0,0,0,0,0,0","2537,218,2223,455,862,969,406,327","8.533077606696938,-23.368942005256677,12.299858770448438,20.68934005436921,-28.123704241193156,-6.34960201390594,-22.17016665659932,-6.219086440504392","-16.955986344867938,41.89081802875117,6.655706070575543,6.40853427936927,-62.12731380500849,-9.976998305779874,-24.37875395196049,8.786737428830643","0","0"
"478","86","text","0","181","1963193","0-0","","","","","","","","","","","","","","","","","","","","","","","","","","","","","","","","","","","","",""
"","","plant-game","0","182","1979878","0-0","","200","190","8","WHEAT CROP","Left","200","190","1","NETTLE WEED","experimental","78","1,2,3,4,5,6,7,8","190,199.17183008502272,226.98470898009958,197.7086710592679,198.19726430013037,171.5873981455337,166.88333179415974,171.6880459966759","8,7,6,5,4,3,2,1","WHEAT CROP,WHEAT CROP,WHEAT CROP,WHEAT CROP,WHEAT CROP,WHEAT CROP,WHEAT CROP,WHEAT CROP","190,130,156.15706574769467,164.18647947636885,156.61321590874851,184.10899966733774,185.2531554918925,198.04453809031816","1,7,6,5,4,3,2,1","NETTLE WEED,THISTLE WEED,THISTLE WEED,THISTLE WEED,THISTLE WEED,THISTLE WEED,THISTLE WEED,THISTLE WEED","20,20,20,20,20,20,20,20","20,20,20,20,20,20,20,20","10,10,10,10,10,10,10,10","20,20,20,20,20,20,20,20","0,0,0,0,0,0,0,0","20,20,20,20,20,20,20,20","20,20,20,20,20,20,20,20","20,20,20,20,20,20,20,20","10,10,10,10,10,10,10,10","20,20,20,20,20,20,20,20","0,0,0,0,0,0,0,0","20,20,20,20,20,20,20,20","1,0,1,1,1,1,1,1","3531,2940,984,597,467,834,810,725","9.17183008502273,27.81287889507687,-29.27603792083168,0.4885932408624448,-26.60986615459666,-4.704066351373977,4.804714202516138,-20.62826949148548","-9.40880503972569,26.15706574769468,8.029413728674184,-7.573263567620323,27.495783758589223,1.1441558245547643,12.791382598425653,30.45786497772221","0","0"
"590","86","text","0","183","1980628","0-0","","","","","","","","","","","","","","","","","","","","","","","","","","","","","","","","","","","","",""
"","","plant-game","0","184","1995588","0-0","","200","160","8","WHEAT CROP","Left","200","190","1","THISTLE WEED","experimental","79","1,2,3,4,5,6,7,8","160,186.76355209245145,167.8344428950428,198.79892301699198,212.9521500494985,221.0924286798731,214.9602384790952,269.7349781358126","8,7,6,5,4,3,2,1","WHEAT CROP,WHEAT CROP,WHEAT CROP,WHEAT CROP,WHEAT CROP,WHEAT CROP,WHEAT CROP,WHEAT CROP","190,130,147.83602302370502,158.67398562912905,176.22719829877138,242.04098534437014,252.36809813350033,254.8669934017403","1,7,6,5,4,3,2,1","THISTLE WEED,NETTLE WEED,NETTLE WEED,NETTLE WEED,NETTLE WEED,NETTLE WEED,NETTLE WEED,NETTLE WEED","20,20,20,20,20,20,20,20","20,20,20,20,20,20,20,20","10,10,10,10,10,10,10,10","20,20,20,20,20,20,20,20","0,0,0,0,0,0,0,0","20,20,20,20,20,20,20,20","20,20,20,20,20,20,20,20","20,20,20,20,20,20,20,20","10,10,10,10,10,10,10,10","20,20,20,20,20,20,20,20","0,0,0,0,0,0,0,0","20,20,20,20,20,20,20,20","1,1,0,0,0,1,1,1","2823,2612,967,585,607,570,933,940","26.763552092451462,-18.929109197408664,30.964480121949183,14.153227032506521,8.140278630374604,-6.1321902007779,54.77473965671736,35.62372626656172","13.360442892267912,17.836023023705025,10.837962605424037,17.553212669642328,65.81378704559876,10.327112789130194,2.498895268239963,2.529418856667309","0","0"
"10","86","text","0","185","1995699","0-0","","","","","","","","","","","","","","","","","","","","","","","","","","","","","","","","","","","","",""
"","","plant-game","0","186","2013329","0-0","","200","190","1","WHEAT CROP","Left","200","180","4","NETTLE WEED","experimental","80","1,2,3,4","190,170,168.37344843261215,151.50670792563352","1,3,2,1","WHEAT CROP,CORN CROP,CORN CROP,CORN CROP","180,184.58292457996149,187.59497769604212,192.00566629260996","4,3,2,1","NETTLE WEED,NETTLE WEED,NETTLE WEED,NETTLE WEED","20,20,20,20","20,20,20,20","10,10,10,10","20,20,20,20","0,0,0,0","20,20,20,20","20,20,20,20","20,20,20,20","10,10,10,10","20,20,20,20","0,0,0,0","20,20,20,20","0,1,1,1","9381,3342,321,294","46.89798331519792,-1.6265515673878441,-16.866740506978626,2.885810538903224","4.582924579961476,3.012053116080648,4.410688596567828,15.88254235969912","0","0"
"1914","86","text","0","187","2015385","0-0","","","","","","","","","","","","","","","","","","","","","","","","","","","","","","","","","","","","",""
"","","plant-game","0","188","2032735","0-0","","200","180","8","WHEAT CROP","Right","200","160","1","NETTLE WEED","experimental","81","1,2,3,4,5,6,7,8","160,130,175.00628086790414,215.99952530169168,235.59224331617278,215.86741027877548,232.76245417148675,233.95171613432808","1,7,6,5,4,3,2,1","NETTLE WEED,THISTLE WEED,THISTLE WEED,THISTLE WEED,THISTLE WEED,THISTLE WEED,THISTLE WEED,THISTLE WEED","180,188.44224124256598,213.26103901459135,236.5126165263539,233.44474694256652,215.6646226294351,245.01101912003566,273.31079212030323","8,7,6,5,4,3,2,1","WHEAT CROP,WHEAT CROP,WHEAT CROP,WHEAT CROP,WHEAT CROP,WHEAT CROP,WHEAT CROP,WHEAT CROP","0,0,0,0,0,0,0,0","20,20,20,20,20,20,20,20","10,10,10,10,10,10,10,10","20,20,20,20,20,20,20,20","20,20,20,20,20,20,20,20","20,20,20,20,20,20,20,20","0,0,0,0,0,0,0,0","20,20,20,20,20,20,20,20","10,10,10,10,10,10,10,10","20,20,20,20,20,20,20,20","20,20,20,20,20,20,20,20","20,20,20,20,20,20,20,20","1,1,1,0,0,0,0,0","3143,2019,749,2144,424,908,843,639","38.16131983323284,45.006280867904145,40.993244433787524,19.59271801448111,-19.724833037397318,16.89504389271128,1.1892619628413357,40.028473220043274","8.442241242565993,24.818797772025363,23.25157751176254,-3.0678695837873677,-17.78012431313143,29.34639649060058,28.2997730002676,-6.76731478400992","0","0"
"500","86","text","0","189","2033365","0-0","","","","","","","","","","","","","","","","","","","","","","","","","","","","","","","","","","","","",""
