"rt","key_press","trial_type","trial_index","trial_index_global","time_elapsed","internal_chunk_id","responses","experimental_goal_height","experimental_start_height","experimental_weeks_total","experimental_crop_type","experimental_crop_side","fixed_goal_height","fixed_start_height","fixed_weeks_total","fixed_crop_type","trial_kind","trial_number","stage","left_current_height","left_weeks_remaining","left_crop_type","right_current_height","right_weeks_remaining","right_crop_type","mean_left_growth_given_left","sd_left_growth_given_left","mean_left_growth_given_middle","sd_left_growth_given_middle","mean_left_growth_given_right","sd_left_growth_given_right","mean_right_growth_given_left","sd_right_growth_given_left","mean_right_growth_given_middle","sd_right_growth_given_middle","mean_right_growth_given_right","sd_right_growth_given_right","response","response_time","left_growth","right_growth","other_key_pressed","mouse_clicked"
"2822736","77","text","0","0","2822877","0-0","","","","","","","","","","","","","","","","","","","","","","","","","","","","","","","","","","","","",""
"3831","","survey-text","0","1","2827729","0-0","{""Q0"":""18""}","","","","","","","","","","","","","","","","","","","","","","","","","","","","","","","","","","","",""
"6294","86","text","0","2","6403","0-0","","","","","","","","","","","","","","","","","","","","","","","","","","","","","","","","","","","","",""
"","","plant-game","0","3","92850","0-0","","200","120","8","WHEAT CROP","Left","200","120","8","THISTLE WEED","practice","1","1,2,3,4,5,6,7,8","120,149.57318815773985,198.57185094513648,218.77692239078752,263.40791534313183,247.48565251601823,246.1654968222346,262.1049836219868","8,7,6,5,4,3,2,1","WHEAT CROP,WHEAT CROP,WHEAT CROP,WHEAT CROP,WHEAT CROP,WHEAT CROP,WHEAT CROP,WHEAT CROP","120,128.43878806741475,159.39088889970662,183.33213391971313,203.0692114517374,170.75241547044422,177.2996581741029,174.3546593149984","8,7,6,5,4,3,2,1","THISTLE WEED,THISTLE WEED,THISTLE WEED,THISTLE WEED,THISTLE WEED,THISTLE WEED,THISTLE WEED,THISTLE WEED","20,20,20,20,20,20,20,20","20,20,20,20,20,20,20,20","10,10,10,10,10,10,10,10","20,20,20,20,20,20,20,20","0,0,0,0,0,0,0,0","20,20,20,20,20,20,20,20","20,20,20,20,20,20,20,20","20,20,20,20,20,20,20,20","10,10,10,10,10,10,10,10","20,20,20,20,20,20,20,20","0,0,0,0,0,0,0,0","20,20,20,20,20,20,20,20","0,0,0,0,1,1,1,1","12493,9805,6986,4801,602,1554,1963,2295","29.57318815773985,48.998662787396626,20.20507144565105,44.63099295234431,-15.922262827113606,-1.3201556937836558,15.939486799752205,3.9503419172467873","8.438788067414759,30.952100832291883,23.941245020006516,19.73707753202428,-32.316795981293176,6.547242703658679,-2.944998859104484,37.47224470619432","0","0"
"1980","86","text","0","4","94950","0-0","","","","","","","","","","","","","","","","","","","","","","","","","","","","","","","","","","","","",""
"","","plant-game","0","5","140726","0-0","","200","160","4","WHEAT CROP","Left","200","160","4","THISTLE WEED","practice","2","1,2,3,4","160,156.60517603316765,163.37310095982775,189.6092267538708","4,3,2,1","WHEAT CROP,WHEAT CROP,WHEAT CROP,WHEAT CROP","160,172.17356363053403,173.91369784752789,216.01542389166818","4,3,2,1","THISTLE WEED,THISTLE WEED,THISTLE WEED,THISTLE WEED","20,20,20,20","20,20,20,20","10,10,10,10","20,20,20,20","0,0,0,0","20,20,20,20","20,20,20,20","20,20,20,20","10,10,10,10","20,20,20,20","0,0,0,0","20,20,20,20","0,0,0,1","7679,2596,4268,2946","-3.3948239668323588,6.767924926660109,26.236125794043037,8.743654628226684","12.17356363053404,1.740134216993841,42.1017260441403,-13.661165221248012","0","0"
"687","86","text","0","6","141523","0-0","","","","","","","","","","","","","","","","","","","","","","","","","","","","","","","","","","","","",""
"","","plant-game","0","7","179480","0-0","","200","180","2","CORN CROP","Right","200","180","2","THISTLE WEED","practice","3","1,2","180,205.72311487068728","2,1","THISTLE WEED,THISTLE WEED","180,170.29705307452375","2,1","CORN CROP,CORN CROP","0,0","20,20","10,10","20,20","20,20","20,20","0,0","20,20","10,10","20,20","20,20","20,20","0,1","12520,10615","25.723114870687276,3.985924190132568","-9.702946925476256,51.26983276472388","0","0"
"933","86","text","0","8","180501","0-0","","","","","","","","","","","","","","","","","","","","","","","","","","","","","","","","","","","","",""
"","","plant-game","0","9","220242","0-0","","200","190","1","CORN CROP","Left","200","190","1","THISTLE WEED","practice","4","1","190","1","CORN CROP","190","1","THISTLE WEED","20","20","10","20","0","20","20","20","10","20","0","20","1","24888","-25.227612307526883","-3.0578524336737427","0","0"
"843","86","text","0","10","221226","0-0","","","","","","","","","","","","","","","","","","","","","","","","","","","","","","","","","","","","",""
"","","plant-game","0","11","259751","0-0","","200","120","8","CORN CROP","Right","200","160","8","THISTLE WEED","practice","5","1,2,3,4,5,6,7,8","160,159.0827567879337,169.0356505365047,152.154051164286,169.5151257763658,170.40391637482935,171.57678137261058,148.84139739434207","8,7,6,5,4,3,2,1","THISTLE WEED,THISTLE WEED,THISTLE WEED,THISTLE WEED,THISTLE WEED,THISTLE WEED,THISTLE WEED,THISTLE WEED","120,159.32823377252592,189.51082564957403,201.2538985396768,216.96691149311374,236.67488507281246,228.31068784163668,253.4727650749966","8,7,6,5,4,3,2,1","CORN CROP,CORN CROP,CORN CROP,CORN CROP,CORN CROP,CORN CROP,CORN CROP,CORN CROP","0,0,0,0,0,0,0,0","20,20,20,20,20,20,20,20","10,10,10,10,10,10,10,10","20,20,20,20,20,20,20,20","20,20,20,20,20,20,20,20","20,20,20,20,20,20,20,20","0,0,0,0,0,0,0,0","20,20,20,20,20,20,20,20","10,10,10,10,10,10,10,10","20,20,20,20,20,20,20,20","20,20,20,20,20,20,20,20","20,20,20,20,20,20,20,20","1,1,0,1,0,0,0,1","6376,3976,2791,3039,2406,1907,1830,1493","-0.9172432120663032,9.952893748570997,-16.88159937221873,17.361074612079822,0.888790598463538,1.172864997781242,-22.735383978268505,-10.068556537392222","39.32823377252592,30.182591877048104,11.743072890102784,15.713012953436921,19.707973579698713,-8.36419723117578,25.162077233359923,43.33450159419936","0","0"
"774","86","text","0","12","260619","0-0","","","","","","","","","","","","","","","","","","","","","","","","","","","","","","","","","","","","",""
"","","plant-game","0","13","281124","0-0","","200","180","4","WHEAT CROP","Right","200","160","4","THISTLE WEED","practice","6","1,2,3,4","160,137.69271546469253,130.85084460506286,129.0382673355051","4,3,2,1","THISTLE WEED,THISTLE WEED,THISTLE WEED,THISTLE WEED","180,155.55601557066382,203.80644706849262,209.61976365755197","4,3,2,1","WHEAT CROP,WHEAT CROP,WHEAT CROP,WHEAT CROP","0,0,0,0","20,20,20,20","10,10,10,10","20,20,20,20","20,20,20,20","20,20,20,20","0,0,0,0","20,20,20,20","10,10,10,10","20,20,20,20","20,20,20,20","20,20,20,20","0,0,1,0","403,3078,2196,1890","-22.307284535307474,-6.841870859629678,-1.8125772695577638,-33.34468997040915","-24.443984429336197,48.2504314978288,5.813316589059363,6.229103609187149","0","0"
"780","86","text","0","14","282044","0-0","","","","","","","","","","","","","","","","","","","","","","","","","","","","","","","","","","","","",""
"","","plant-game","0","15","303910","0-0","","200","180","2","WHEAT CROP","Right","200","190","2","NETTLE WEED","practice","7","1,2","190,171.9513904956966","2,1","NETTLE WEED,NETTLE WEED","180,148.46234090792632","2,1","WHEAT CROP,WHEAT CROP","0,0","20,20","10,10","20,20","20,20","20,20","0,0","20,20","10,10","20,20","20,20","20,20","0,1","1771,2492","-18.048609504303425,25.25177074555223","-31.537659092073685,55.052106642710115","0","0"
"524","86","text","0","16","304574","0-0","","","","","","","","","","","","","","","","","","","","","","","","","","","","","","","","","","","","",""
"","","plant-game","0","17","344021","0-0","","200","120","4","WHEAT CROP","Right","200","120","8","THISTLE WEED","practice","8","1,2,3,4,5,6,7,8","120,130.21695519287246,102.91608251721215,112.47307465959008,103.28305302945614,118.6570656632018,191.16334387202778,180.58262877101157","8,7,6,5,4,3,2,1","THISTLE WEED,THISTLE WEED,THISTLE WEED,THISTLE WEED,THISTLE WEED,THISTLE WEED,THISTLE WEED,THISTLE WEED","120,120.48019515764996,123.0758282036066,130.53484771728154,160,177.8554460931874,184.65774772619892,161.671058451282","4,3,2,1,4,3,2,1","WHEAT CROP,WHEAT CROP,WHEAT CROP,WHEAT CROP,CORN CROP,CORN CROP,CORN CROP,CORN CROP","0,0,0,0,0,0,0,0","20,20,20,20,20,20,20,20","10,10,10,10,10,10,10,10","20,20,20,20,20,20,20,20","20,20,20,20,20,20,20,20","20,20,20,20,20,20,20,20","0,0,0,0,0,0,0,0","20,20,20,20,20,20,20,20","10,10,10,10,10,10,10,10","20,20,20,20,20,20,20,20","20,20,20,20,20,20,20,20","20,20,20,20,20,20,20,20","0,0,0,0,1,1,0,1","1796,1726,1347,1202,2080,2543,2485,2606","10.216955192872451,-27.30087267566031,9.556992142377943,-9.190021630133945,15.374012633745659,72.50627820882599,-10.580715101016223,70.43706510942548","0.48019515764996296,2.5956330459566432,7.4590195136749395,33.78003500981557,17.85544609318739,6.802301633011538,-22.986689274916927,-5.512556374541052","0","0"
"488","86","text","0","18","344660","0-0","","","","","","","","","","","","","","","","","","","","","","","","","","","","","","","","","","","","",""
"","","plant-game","0","19","386071","0-0","","200","160","4","CORN CROP","Right","200","160","2","THISTLE WEED","practice","9","1,2,3,4","160,149.31085030424572,180,189.12148477806713","2,1,2,1","THISTLE WEED,THISTLE WEED,NETTLE WEED,NETTLE WEED","160,140.00473761542102,157.02823021601472,195.06840047269404","4,3,2,1","CORN CROP,CORN CROP,CORN CROP,CORN CROP","0,0,0,0","20,20,20,20","10,10,10,10","20,20,20,20","20,20,20,20","20,20,20,20","0,0,0,0","20,20,20,20","10,10,10,10","20,20,20,20","20,20,20,20","20,20,20,20","0,0,0,0","889,4749,4306,2063","-10.689149695754276,8.568445694991983,9.121484778067131,-1.8358264035211158","-19.995262384578986,17.023492600593695,38.04017025667931,23.029771865645444","0","0"
"871","86","text","0","20","387071","0-0","","","","","","","","","","","","","","","","","","","","","","","","","","","","","","","","","","","","",""
"","","plant-game","0","21","418258","0-0","","200","180","2","CORN CROP","Right","200","180","1","NETTLE WEED","practice","10","1,2","180,190","1,1","NETTLE WEED,THISTLE WEED","180,146.41979573885047","2,1","CORN CROP,CORN CROP","0,0","20,20","10,10","20,20","20,20","20,20","0,0","20,20","10,10","20,20","20,20","20,20","0,0","7767,3077","23.04041780456756,23.33910210053892","-33.58020426114954,-18.21790329872301","0","0"
"540","86","text","0","22","418948","0-0","","","","","","","","","","","","","","","","","","","","","","","","","","","","","","","","","","","","",""
"","","plant-game","0","23","456743","0-0","","200","120","8","WHEAT CROP","Left","200","160","4","NETTLE WEED","practice","11","1,2,3,4,5,6,7,8","120,110.93006087127799,110.53640666579867,129.5652754978297,155.55002130145735,137.13889749574534,124.47603025335339,171.96333114874847","8,7,6,5,4,3,2,1","WHEAT CROP,WHEAT CROP,WHEAT CROP,WHEAT CROP,WHEAT CROP,WHEAT CROP,WHEAT CROP,WHEAT CROP","160,158.2324067702969,139.4854609664567,106.8983184491608,160,138.65778371762096,152.10106305789245,172.00674323891116","4,3,2,1,4,3,2,1","NETTLE WEED,NETTLE WEED,NETTLE WEED,NETTLE WEED,THISTLE WEED,THISTLE WEED,THISTLE WEED,THISTLE WEED","20,20,20,20,20,20,20,20","20,20,20,20,20,20,20,20","10,10,10,10,10,10,10,10","20,20,20,20,20,20,20,20","0,0,0,0,0,0,0,0","20,20,20,20,20,20,20,20","20,20,20,20,20,20,20,20","20,20,20,20,20,20,20,20","10,10,10,10,10,10,10,10","20,20,20,20,20,20,20,20","0,0,0,0,0,0,0,0","20,20,20,20,20,20,20,20","1,1,1,1,1,1,0,0","5110,1333,1207,1112,5846,1289,1390,2463","-9.069939128722005,-0.39365420547932006,19.028868832031048,25.984745803627657,-18.41112380571201,-12.66286724239195,47.48730089539507,6.364146796905324","-1.7675932297030927,-18.74694580384019,-32.587142517295916,-24.921751426883226,-21.34221628237903,13.443279340271488,19.905680181018713,17.439415762556585","2","0"
"815","86","text","0","24","457683","0-0","","","","","","","","","","","","","","","","","","","","","","","","","","","","","","","","","","","","",""
"","","plant-game","0","25","492685","0-0","","200","180","2","WHEAT CROP","Right","200","160","4","NETTLE WEED","practice","12","1,2,3,4","160,159.76117405965581,151.70872949375058,153.45072795097929","4,3,2,1","NETTLE WEED,NETTLE WEED,NETTLE WEED,NETTLE WEED","180,186.02302231060773,180,190.62774568379098","2,1,2,1","WHEAT CROP,WHEAT CROP,CORN CROP,CORN CROP","0,0,0,0","20,20,20,20","10,10,10,10","20,20,20,20","20,20,20,20","20,20,20,20","0,0,0,0","20,20,20,20","10,10,10,10","20,20,20,20","20,20,20,20","20,20,20,20","0,0,1,1","13409,2286,4052,2159","-0.23882594034419738,-8.052444565905223,1.7419984572287035,15.137786324172508","6.023022310607724,5.172053676835251,10.627745683790964,-4.315562697874885","0","0"
"556","86","text","0","26","493366","0-0","","","","","","","","","","","","","","","","","","","","","","","","","","","","","","","","","","","","",""
"16388","86","text","0","27","510858","0-0","","","","","","","","","","","","","","","","","","","","","","","","","","","","","","","","","","","","",""
"","","plant-game","0","28","524820","0-0","","200","120","1","CORN CROP","Right","200","190","1","NETTLE WEED","experimental","1","1","190","1","NETTLE WEED","120","1","CORN CROP","0","20","10","20","20","20","0","20","10","20","20","20","0","8454","-23.208069263066854","-20.300840987415274","0","0"
"677","86","text","0","29","525653","0-0","","","","","","","","","","","","","","","","","","","","","","","","","","","","","","","","","","","","",""
"","","plant-game","0","30","555966","0-0","","200","190","4","CORN CROP","Left","200","190","4","NETTLE WEED","experimental","2","1,2,3,4","190,196.667414767213,187.5762144894801,227.2641096699179","4,3,2,1","CORN CROP,CORN CROP,CORN CROP,CORN CROP","190,164.0169774263461,193.57645917546674,178.81641079981728","4,3,2,1","NETTLE WEED,NETTLE WEED,NETTLE WEED,NETTLE WEED","20,20,20,20","20,20,20,20","10,10,10,10","20,20,20,20","0,0,0,0","20,20,20,20","20,20,20,20","20,20,20,20","10,10,10,10","20,20,20,20","0,0,0,0","20,20,20,20","0,1,0,0","19600,1494,1289,1389","6.667414767212993,-9.091200277732902,39.68789518043782,31.61228014600838","-25.983022573653912,29.55948174912063,-14.760048375649461,24.22740336187357","0","0"
"616","86","text","0","31","556712","0-0","","","","","","","","","","","","","","","","","","","","","","","","","","","","","","","","","","","","",""
"","","plant-game","0","32","573317","0-0","","200","120","1","WHEAT CROP","Right","200","180","1","THISTLE WEED","experimental","3","1","180","1","THISTLE WEED","120","1","WHEAT CROP","0","20","10","20","20","20","0","20","10","20","20","20","0","11173","28.611377830867276","-8.762377300824532","0","0"
"560","86","text","0","33","573997","0-0","","","","","","","","","","","","","","","","","","","","","","","","","","","","","","","","","","","","",""
"","","plant-game","0","34","618269","0-0","","200","120","1","CORN CROP","Left","200","160","8","THISTLE WEED","experimental","4","1,2,3,4,5,6,7,8","120,130,148.74797190037484,171.62905797033898,167.10897547981693,152.20599808251183,178.4432849350299,173.62310965654146","1,7,6,5,4,3,2,1","CORN CROP,WHEAT CROP,WHEAT CROP,WHEAT CROP,WHEAT CROP,WHEAT CROP,WHEAT CROP,WHEAT CROP","160,123.91618569547046,144.6163841678611,164.80048508080648,177.7102793105086,160.45825928697903,192.8593666566788,145.08486521435518","8,7,6,5,4,3,2,1","THISTLE WEED,THISTLE WEED,THISTLE WEED,THISTLE WEED,THISTLE WEED,THISTLE WEED,THISTLE WEED,THISTLE WEED","20,20,20,20,20,20,20,20","20,20,20,20,20,20,20,20","10,10,10,10,10,10,10,10","20,20,20,20,20,20,20,20","0,0,0,0,0,0,0,0","20,20,20,20,20,20,20,20","20,20,20,20,20,20,20,20","20,20,20,20,20,20,20,20","10,10,10,10,10,10,10,10","20,20,20,20,20,20,20,20","0,0,0,0,0,0,0,0","20,20,20,20,20,20,20,20","1,0,0,0,1,0,1,0","13704,8710,1783,2227,3836,1846,1610,1120","2.2959678823530196,18.747971900374825,22.881086069964134,-4.520082490522057,-14.902977397305095,26.23728685251807,-4.820175278488453,68.27294036736471","-36.08381430452954,20.700198472390625,20.18410091294539,12.909794229702115,-17.25202002352959,32.401107369699744,-47.77450144232361,7.274218477652589","0","0"
"697","86","text","0","35","619100","0-0","","","","","","","","","","","","","","","","","","","","","","","","","","","","","","","","","","","","",""
"","","plant-game","0","36","650578","0-0","","200","180","4","CORN CROP","Left","200","160","8","NETTLE WEED","experimental","5","1,2,3,4,5,6,7,8","180,179.39205008124716,174.84712564214584,144.76942372772538,160,152.67321946436772,126.45926465861956,113.05737344635543","4,3,2,1,4,3,2,1","CORN CROP,CORN CROP,CORN CROP,CORN CROP,WHEAT CROP,WHEAT CROP,WHEAT CROP,WHEAT CROP","160,186.50753549521934,194.47656019751938,178.39765412406348,181.6106116277993,185.44647058762308,207.55096582771787,214.31071182268792","8,7,6,5,4,3,2,1","NETTLE WEED,NETTLE WEED,NETTLE WEED,NETTLE WEED,NETTLE WEED,NETTLE WEED,NETTLE WEED,NETTLE WEED","20,20,20,20,20,20,20,20","20,20,20,20,20,20,20,20","10,10,10,10,10,10,10,10","20,20,20,20,20,20,20,20","0,0,0,0,0,0,0,0","20,20,20,20,20,20,20,20","20,20,20,20,20,20,20,20","20,20,20,20,20,20,20,20","10,10,10,10,10,10,10,10","20,20,20,20,20,20,20,20","0,0,0,0,0,0,0,0","20,20,20,20,20,20,20,20","0,1,1,0,1,1,1,1","4883,4623,2683,2769,1942,2843,1316,2046","-0.6079499187528299,-4.544924439101329,-30.077701914420455,5.351323136652866,-7.326780535632279,-26.213954805748152,-13.401891212264134,5.798274001805051","26.507535495219347,7.969024702300041,-16.0789060734559,3.2129575037358293,3.8358589598237876,22.10449524009478,6.759745994970037,-21.48947612110449","1","0"
"793","86","text","0","37","651511","0-0","","","","","","","","","","","","","","","","","","","","","","","","","","","","","","","","","","","","",""
"","","plant-game","0","38","676098","0-0","","200","190","2","WHEAT CROP","Left","200","190","8","NETTLE WEED","experimental","6","1,2,3,4,5,6,7,8","190,211.26000707948594,140,128.23789192509287,112.73805761956626,108.61113298193696,112.7908445748449,159.53783872797112","2,1,6,5,4,3,2,1","WHEAT CROP,WHEAT CROP,CORN CROP,CORN CROP,CORN CROP,CORN CROP,CORN CROP,CORN CROP","190,246.52588991888993,230.6950186655103,232.95163320091012,219.59261154246954,197.07812797759016,189.0902326584028,201.84583780789217","8,7,6,5,4,3,2,1","NETTLE WEED,NETTLE WEED,NETTLE WEED,NETTLE WEED,NETTLE WEED,NETTLE WEED,NETTLE WEED,NETTLE WEED","20,20,20,20,20,20,20,20","20,20,20,20,20,20,20,20","10,10,10,10,10,10,10,10","20,20,20,20,20,20,20,20","0,0,0,0,0,0,0,0","20,20,20,20,20,20,20,20","20,20,20,20,20,20,20,20","20,20,20,20,20,20,20,20","10,10,10,10,10,10,10,10","20,20,20,20,20,20,20,20","0,0,0,0,0,0,0,0","20,20,20,20,20,20,20,20","1,1,1,1,1,1,0,1","7017,2629,3451,340,231,943,1370,454","21.260007079485952,-32.05020482851849,-11.762108074907145,-15.49983430552661,-4.126924637629302,4.179711592907928,46.74699415312624,-16.314246871832413","56.52588991888994,-15.83087125337962,2.2566145353998173,-13.359021658440593,-22.514483564879395,-7.98789531918735,12.755605149489359,-12.470440266795666","0","0"
"656","86","text","0","39","676917","0-0","","","","","","","","","","","","","","","","","","","","","","","","","","","","","","","","","","","","",""
"","","plant-game","0","40","711452","0-0","","200","160","8","WHEAT CROP","Right","200","120","2","THISTLE WEED","experimental","7","1,2,3,4,5,6,7,8","120,150.9455895519607,140,139.50884371443448,152.48855366475638,136.3637282658532,122.36607164762394,142.80942465816517","2,1,6,5,4,3,2,1","THISTLE WEED,THISTLE WEED,NETTLE WEED,NETTLE WEED,NETTLE WEED,NETTLE WEED,NETTLE WEED,NETTLE WEED","160,132.57707078813746,147.1594249761646,161.5924975582172,172.64108885717147,189.04736535709242,198.50717473617965,187.13736642882637","8,7,6,5,4,3,2,1","WHEAT CROP,WHEAT CROP,WHEAT CROP,WHEAT CROP,WHEAT CROP,WHEAT CROP,WHEAT CROP,WHEAT CROP","0,0,0,0,0,0,0,0","20,20,20,20,20,20,20,20","10,10,10,10,10,10,10,10","20,20,20,20,20,20,20,20","20,20,20,20,20,20,20,20","20,20,20,20,20,20,20,20","0,0,0,0,0,0,0,0","20,20,20,20,20,20,20,20","10,10,10,10,10,10,10,10","20,20,20,20,20,20,20,20","20,20,20,20,20,20,20,20","20,20,20,20,20,20,20,20","1,1,0,0,0,0,0,0","5720,5940,4568,4950,1870,657,410,599","30.945589551960687,30.585543223257005,-0.4911562855655313,12.979709950321894,-16.124825398903177,-13.997656618229268,20.443353010541227,15.210570491276139","-27.422929211862552,14.582354188027114,14.433072582052606,11.048591298954271,16.406276499920935,9.45980937908724,-11.369808307353278,5.201981553921717","0","0"
"570","86","text","0","41","712131","0-0","","","","","","","","","","","","","","","","","","","","","","","","","","","","","","","","","","","","",""
"","","plant-game","0","42","728265","0-0","","200","120","2","CORN CROP","Right","200","180","4","NETTLE WEED","experimental","8","1,2,3,4","180,189.76571883730014,207.3385991242565,240.67364177758688","4,3,2,1","NETTLE WEED,NETTLE WEED,NETTLE WEED,NETTLE WEED","120,129.4789307336819,180,221.56126796363787","2,1,2,1","CORN CROP,CORN CROP,WHEAT CROP,WHEAT CROP","0,0,0,0","20,20,20,20","10,10,10,10","20,20,20,20","20,20,20,20","20,20,20,20","0,0,0,0","20,20,20,20","10,10,10,10","20,20,20,20","20,20,20,20","20,20,20,20","0,1,1,0","4715,1820,655,1545","9.765718837300145,17.57288028695635,33.33504265333039,17.403259306427298","9.478930733681882,19.030596426350865,41.56126796363789,22.30864968512107","0","0"
"558","86","text","0","43","728943","0-0","","","","","","","","","","","","","","","","","","","","","","","","","","","","","","","","","","","","",""
"","","plant-game","0","44","751726","0-0","","200","190","1","CORN CROP","Right","200","120","8","THISTLE WEED","experimental","9","1,2,3,4,5,6,7,8","120,159.13136490227282,154.0445138115407,174.12880362456792,147.03474082389786,171.14183065421864,186.41105665836002,195.45405382693065","8,7,6,5,4,3,2,1","THISTLE WEED,THISTLE WEED,THISTLE WEED,THISTLE WEED,THISTLE WEED,THISTLE WEED,THISTLE WEED,THISTLE WEED","190,130,145.74953694220264,181.24867199096784,177.71071196262162,227.47898225549616,224.99826702145566,221.68634548149996","1,7,6,5,4,3,2,1","CORN CROP,WHEAT CROP,WHEAT CROP,WHEAT CROP,WHEAT CROP,WHEAT CROP,WHEAT CROP,WHEAT CROP","0,0,0,0,0,0,0,0","20,20,20,20,20,20,20,20","10,10,10,10,10,10,10,10","20,20,20,20,20,20,20,20","20,20,20,20,20,20,20,20","20,20,20,20,20,20,20,20","0,0,0,0,0,0,0,0","20,20,20,20,20,20,20,20","10,10,10,10,10,10,10,10","20,20,20,20,20,20,20,20","20,20,20,20,20,20,20,20","20,20,20,20,20,20,20,20","1,0,0,0,1,0,0,0","3165,2656,1311,1453,1013,1641,2272,925","39.13136490227282,-5.086851090732111,20.084289813027233,-27.094062800670052,24.107089830320778,15.26922600414139,9.042997168570633,-0.21471499912721448","25.280900218669064,15.74953694220265,35.499135048765204,-3.537960028346227,49.768270292874554,-2.480715234040495,-3.3119215399557156,0.7642929856892344","0","0"
"497","86","text","0","45","752343","0-0","","","","","","","","","","","","","","","","","","","","","","","","","","","","","","","","","","","","",""
"","","plant-game","0","46","778424","0-0","","200","180","2","WHEAT CROP","Left","200","120","8","THISTLE WEED","experimental","10","1,2,3,4,5,6,7,8","180,222.00953508442552,140,141.04886703788284,175.51452287779443,196.22328387386267,233.14065524408107,224.28348368659752","2,1,6,5,4,3,2,1","WHEAT CROP,WHEAT CROP,CORN CROP,CORN CROP,CORN CROP,CORN CROP,CORN CROP,CORN CROP","120,161.25334397357614,194.6414106194084,207.11175322980864,191.70759969244344,193.7512237773312,207.99357979048068,203.98782969361426","8,7,6,5,4,3,2,1","THISTLE WEED,THISTLE WEED,THISTLE WEED,THISTLE WEED,THISTLE WEED,THISTLE WEED,THISTLE WEED,THISTLE WEED","20,20,20,20,20,20,20,20","20,20,20,20,20,20,20,20","10,10,10,10,10,10,10,10","20,20,20,20,20,20,20,20","0,0,0,0,0,0,0,0","20,20,20,20,20,20,20,20","20,20,20,20,20,20,20,20","20,20,20,20,20,20,20,20","10,10,10,10,10,10,10,10","20,20,20,20,20,20,20,20","0,0,0,0,0,0,0,0","20,20,20,20,20,20,20,20","0,1,1,0,0,0,1,1","2907,2205,5275,1084,704,595,2994,919","42.009535084425536,-20.51200584099826,1.0488670378828389,34.46565583991159,20.70876099606823,36.917371370218405,-8.857171557483543,-28.51847484888392","41.25334397357613,33.388066645832254,12.470342610400243,-15.404153537365204,2.043624084887764,14.242356013149484,-4.005750096866431,-23.38490722032086","0","0"
"837","86","text","0","47","779361","0-0","","","","","","","","","","","","","","","","","","","","","","","","","","","","","","","","","","","","",""
"","","plant-game","0","48","801257","0-0","","200","190","8","WHEAT CROP","Right","200","160","8","THISTLE WEED","experimental","11","1,2,3,4,5,6,7,8","160,148.12918642843402,173.54930635735246,208.44215937920882,254.29846114506012,236.20592305792232,251.475215415734,264.7500679605011","8,7,6,5,4,3,2,1","THISTLE WEED,THISTLE WEED,THISTLE WEED,THISTLE WEED,THISTLE WEED,THISTLE WEED,THISTLE WEED,THISTLE WEED","190,204.02334876875162,260.12126761114365,265.4003381126963,281.9732959575045,295.4265269527517,322.4600739924713,312.90134854096004","8,7,6,5,4,3,2,1","WHEAT CROP,WHEAT CROP,WHEAT CROP,WHEAT CROP,WHEAT CROP,WHEAT CROP,WHEAT CROP,WHEAT CROP","0,0,0,0,0,0,0,0","20,20,20,20,20,20,20,20","10,10,10,10,10,10,10,10","20,20,20,20,20,20,20,20","20,20,20,20,20,20,20,20","20,20,20,20,20,20,20,20","0,0,0,0,0,0,0,0","20,20,20,20,20,20,20,20","10,10,10,10,10,10,10,10","20,20,20,20,20,20,20,20","20,20,20,20,20,20,20,20","20,20,20,20,20,20,20,20","1,1,1,1,0,0,0,0","6642,1747,2193,1765,712,726,835,783","-11.87081357156596,25.420119928918442,34.892853021856354,45.856301765851306,-18.092538087137793,15.26929235781167,13.274852544767093,34.250628902188424","14.02334876875162,56.09791884239202,5.2790705015526935,16.572957844808194,13.453230995247239,27.033547039719572,-9.558725451511242,-6.606247212509072","0","0"
"577","86","text","0","49","801974","0-0","","","","","","","","","","","","","","","","","","","","","","","","","","","","","","","","","","","","",""
"","","plant-game","0","50","836839","0-0","","200","190","1","WHEAT CROP","Left","200","160","8","THISTLE WEED","experimental","12","1,2,3,4,5,6,7,8","190,130,144.57606431721086,166.0292362797774,185.2670335087037,227.20677348159066,258.4095879019889,237.94357538016243","1,7,6,5,4,3,2,1","WHEAT CROP,CORN CROP,CORN CROP,CORN CROP,CORN CROP,CORN CROP,CORN CROP,CORN CROP","160,196.1976240024977,198.38103188662356,197.7152267732351,226.3338259182123,235.7535296001492,273.9925254010291,243.6200802712332","8,7,6,5,4,3,2,1","THISTLE WEED,THISTLE WEED,THISTLE WEED,THISTLE WEED,THISTLE WEED,THISTLE WEED,THISTLE WEED,THISTLE WEED","20,20,20,20,20,20,20,20","20,20,20,20,20,20,20,20","10,10,10,10,10,10,10,10","20,20,20,20,20,20,20,20","0,0,0,0,0,0,0,0","20,20,20,20,20,20,20,20","20,20,20,20,20,20,20,20","20,20,20,20,20,20,20,20","10,10,10,10,10,10,10,10","20,20,20,20,20,20,20,20","0,0,0,0,0,0,0,0","20,20,20,20,20,20,20,20","0,1,1,0,0,1,1,1","5187,6235,4570,4668,2710,1193,1309,1504","10.94897642137511,14.576064317210859,21.453171962566525,19.23779722892629,41.93973997288696,31.202814420398237,-20.466012521826492,4.8326281998926754","36.19762400249768,2.183407884125879,-0.6658051133884858,28.618599144977217,9.41970368193688,38.238995800879955,-30.372445129795928,5.688913332262372","0","0"
"510","86","text","0","51","837479","0-0","","","","","","","","","","","","","","","","","","","","","","","","","","","","","","","","","","","","",""
"","","plant-game","0","52","856649","0-0","","200","190","2","CORN CROP","Right","200","190","1","NETTLE WEED","experimental","13","1,2","190,190","1,1","NETTLE WEED,THISTLE WEED","190,176.58362364464168","2,1","CORN CROP,CORN CROP","0,0","20,20","10,10","20,20","20,20","20,20","0,0","20,20","10,10","20,20","20,20","20,20","0,1","4105,7331","48.28300546672037,28.583549628757225","-13.416376355358334,-11.316686162298012","0","0"
"516","86","text","0","53","857262","0-0","","","","","","","","","","","","","","","","","","","","","","","","","","","","","","","","","","","","",""
"","","plant-game","0","54","871164","0-0","","200","120","2","WHEAT CROP","Left","200","190","2","THISTLE WEED","experimental","14","1,2","120,124.50143932175865","2,1","WHEAT CROP,WHEAT CROP","190,188.90805491065746","2,1","THISTLE WEED,THISTLE WEED","20,20","20,20","10,10","20,20","0,0","20,20","20,20","20,20","10,10","20,20","0,0","20,20","0,1","4227,5421","4.501439321758657,0.5174565751228491","-1.0919450893425449,-20.088094840557737","1","0"
"595","86","text","0","55","871884","0-0","","","","","","","","","","","","","","","","","","","","","","","","","","","","","","","","","","","","",""
"","","plant-game","0","56","901273","0-0","","200","160","4","WHEAT CROP","Right","200","160","8","NETTLE WEED","experimental","15","1,2,3,4,5,6,7,8","160,189.74498757463866,210.38177855299946,269.97792795045166,280.1042500951594,277.3552788243815,271.7168902164152,275.63381829125456","8,7,6,5,4,3,2,1","NETTLE WEED,NETTLE WEED,NETTLE WEED,NETTLE WEED,NETTLE WEED,NETTLE WEED,NETTLE WEED,NETTLE WEED","160,181.4163780868446,215.5788570776046,270.29981372148717,160,147.26527977389034,110.89070318204938,116.14732175763145","4,3,2,1,4,3,2,1","WHEAT CROP,WHEAT CROP,WHEAT CROP,WHEAT CROP,CORN CROP,CORN CROP,CORN CROP,CORN CROP","0,0,0,0,0,0,0,0","20,20,20,20,20,20,20,20","10,10,10,10,10,10,10,10","20,20,20,20,20,20,20,20","20,20,20,20,20,20,20,20","20,20,20,20,20,20,20,20","0,0,0,0,0,0,0,0","20,20,20,20,20,20,20,20","10,10,10,10,10,10,10,10","20,20,20,20,20,20,20,20","20,20,20,20,20,20,20,20","20,20,20,20,20,20,20,20","1,1,1,0,0,0,0,0","5963,955,2291,1035,5007,1865,2606,1498","29.744987574638657,20.636790978360818,59.59614939745217,10.1263221447077,-2.7489712707778597,-5.638388607966325,3.9169280748393365,13.166353818761337","21.416378086844578,34.16247899076002,54.720956643882595,-4.150018616101409,-12.734720226109664,-36.37457659184097,5.256618575582061,-23.481110763920615","0","0"
"478","86","text","0","57","901844","0-0","","","","","","","","","","","","","","","","","","","","","","","","","","","","","","","","","","","","",""
"","","plant-game","0","58","923081","0-0","","200","190","8","CORN CROP","Left","200","190","1","NETTLE WEED","experimental","16","1,2,3,4,5,6,7,8","190,197.75027142963327,238.2082668785772,228.57941838500585,229.43324900265577,261.3718389504789,294.02718078300256,307.29504478989287","8,7,6,5,4,3,2,1","CORN CROP,CORN CROP,CORN CROP,CORN CROP,CORN CROP,CORN CROP,CORN CROP,CORN CROP","190,130,137.65175273067263,139.30071473239272,170.31193856896215,182.1415909285189,151.98733837411555,155.16752939646685","1,7,6,5,4,3,2,1","NETTLE WEED,THISTLE WEED,THISTLE WEED,THISTLE WEED,THISTLE WEED,THISTLE WEED,THISTLE WEED,THISTLE WEED","20,20,20,20,20,20,20,20","20,20,20,20,20,20,20,20","10,10,10,10,10,10,10,10","20,20,20,20,20,20,20,20","0,0,0,0,0,0,0,0","20,20,20,20,20,20,20,20","20,20,20,20,20,20,20,20","20,20,20,20,20,20,20,20","10,10,10,10,10,10,10,10","20,20,20,20,20,20,20,20","0,0,0,0,0,0,0,0","20,20,20,20,20,20,20,20","1,0,1,1,1,1,1,1","4965,2997,1518,598,1495,1712,917,351","7.750271429633279,40.457995448943926,-9.628848493571367,0.8538306176499243,31.938589947823132,32.65534183252369,13.267864006890306,-9.065267419031679","11.77370611754365,7.651752730672623,1.6489620017200866,31.011223836569442,11.82965235955675,-30.15425255440335,3.1801910223513086,-11.350498299471422","0","0"
"410","86","text","0","59","923611","0-0","","","","","","","","","","","","","","","","","","","","","","","","","","","","","","","","","","","","",""
"","","plant-game","0","60","939374","0-0","","200","190","2","CORN CROP","Right","200","120","1","NETTLE WEED","experimental","17","1,2","120,190","1,1","NETTLE WEED,THISTLE WEED","190,206.82774794646645","2,1","CORN CROP,CORN CROP","0,0","20,20","10,10","20,20","20,20","20,20","0,0","20,20","10,10","20,20","20,20","20,20","1,0","6326,4064","-8.73880538236159,3.0751527244895023","16.827747946466438,-31.79626775878518","0","0"
"526","86","text","0","61","940020","0-0","","","","","","","","","","","","","","","","","","","","","","","","","","","","","","","","","","","","",""
"","","plant-game","0","62","961907","0-0","","200","160","1","CORN CROP","Left","200","120","4","THISTLE WEED","experimental","18","1,2,3,4","160,170,198.28532448047156,232.09259420695474","1,3,2,1","CORN CROP,WHEAT CROP,WHEAT CROP,WHEAT CROP","120,149.13911425320322,148.04660352897517,200.00034673240984","4,3,2,1","THISTLE WEED,THISTLE WEED,THISTLE WEED,THISTLE WEED","20,20,20,20","20,20,20,20","10,10,10,10","20,20,20,20","0,0,0,0","20,20,20,20","20,20,20,20","20,20,20,20","10,10,10,10","20,20,20,20","0,0,0,0","20,20,20,20","0,0,0,1","6608,3702,1442,2996","-2.902715178711503,28.285324480471566,33.807269726483185,5.675986804417495","29.139114253203214,-1.0925107242280454,51.95374320343467,-37.400191122316635","0","0"
"487","86","text","0","63","962544","0-0","","","","","","","","","","","","","","","","","","","","","","","","","","","","","","","","","","","","",""
"","","plant-game","0","64","983808","0-0","","200","160","8","WHEAT CROP","Right","200","190","2","THISTLE WEED","experimental","19","1,2,3,4,5,6,7,8","190,189.87612169962537,140,162.56807348707702,182.93943550373717,185.4348112707225,193.47157213506608,185.77055175865002","2,1,6,5,4,3,2,1","THISTLE WEED,THISTLE WEED,NETTLE WEED,NETTLE WEED,NETTLE WEED,NETTLE WEED,NETTLE WEED,NETTLE WEED","160,154.51335769192158,154.92561981270617,141.72930832213586,136.43323755121511,155.04292597903446,132.3708314429536,171.97560148594056","8,7,6,5,4,3,2,1","WHEAT CROP,WHEAT CROP,WHEAT CROP,WHEAT CROP,WHEAT CROP,WHEAT CROP,WHEAT CROP,WHEAT CROP","0,0,0,0,0,0,0,0","20,20,20,20,20,20,20,20","10,10,10,10,10,10,10,10","20,20,20,20,20,20,20,20","20,20,20,20,20,20,20,20","20,20,20,20,20,20,20,20","0,0,0,0,0,0,0,0","20,20,20,20,20,20,20,20","10,10,10,10,10,10,10,10","20,20,20,20,20,20,20,20","20,20,20,20,20,20,20,20","20,20,20,20,20,20,20,20","0,0,1,1,0,0,1,1","5033,2890,2048,1011,1301,354,1407,921","-0.12387830037462826,5.30320192355095,22.568073487077026,20.371362016660143,2.495375766985321,8.036760864343588,-7.701020376416054,10.802384895887311","-5.486642308078412,0.4122621207845957,-13.196311490570295,-5.296070770920739,18.609688427819354,-22.672094536080852,39.60477004298696,-2.6836134548201898","0","0"
"648","86","text","0","65","984612","0-0","","","","","","","","","","","","","","","","","","","","","","","","","","","","","","","","","","","","",""
"","","plant-game","0","66","1010311","0-0","","200","190","8","WHEAT CROP","Right","200","160","4","THISTLE WEED","experimental","20","1,2,3,4,5,6,7,8","160,174.12515729404012,192.2748484169481,169.75493193809214,160,170.0187567152394,229.4681403819358,245.34899921985385","4,3,2,1,4,3,2,1","THISTLE WEED,THISTLE WEED,THISTLE WEED,THISTLE WEED,NETTLE WEED,NETTLE WEED,NETTLE WEED,NETTLE WEED","190,187.16710900963022,151.74089574769295,147.27908121733674,131.67254709803177,120.67242466264655,133.57738143149885,161.94502207762028","8,7,6,5,4,3,2,1","WHEAT CROP,WHEAT CROP,WHEAT CROP,WHEAT CROP,WHEAT CROP,WHEAT CROP,WHEAT CROP,WHEAT CROP","0,0,0,0,0,0,0,0","20,20,20,20,20,20,20,20","10,10,10,10,10,10,10,10","20,20,20,20,20,20,20,20","20,20,20,20,20,20,20,20","20,20,20,20,20,20,20,20","0,0,0,0,0,0,0,0","20,20,20,20,20,20,20,20","10,10,10,10,10,10,10,10","20,20,20,20,20,20,20,20","20,20,20,20,20,20,20,20","20,20,20,20,20,20,20,20","0,0,0,0,0,1,1,1","3499,1945,1371,751,8585,2015,653,262","14.12515729404011,18.14969112290798,-22.519916478855947,51.13082513227538,10.018756715239386,59.449383666696406,15.88085883791806,5.306353164683422","-2.832890990369786,-35.42621326193728,-4.461814530356203,-15.60653411930496,-11.00012243538522,12.904956768852301,28.36764064612144,46.67186961439124","0","0"
"787","86","text","0","67","1011242","0-0","","","","","","","","","","","","","","","","","","","","","","","","","","","","","","","","","","","","",""
"","","plant-game","0","68","1030731","0-0","","200","120","8","WHEAT CROP","Left","200","190","4","NETTLE WEED","experimental","21","1,2,3,4,5,6,7,8","120,115.10164898367718,64.83064393716185,97.49284845470513,94.36212070690924,118.62825430769841,100.85137580696524,79.76692606395727","8,7,6,5,4,3,2,1","WHEAT CROP,WHEAT CROP,WHEAT CROP,WHEAT CROP,WHEAT CROP,WHEAT CROP,WHEAT CROP,WHEAT CROP","190,203.10874048036285,181.20716553848158,153.61010798583487,160,156.33089068114322,167.00650493303908,157.09988305526653","4,3,2,1,4,3,2,1","NETTLE WEED,NETTLE WEED,NETTLE WEED,NETTLE WEED,THISTLE WEED,THISTLE WEED,THISTLE WEED,THISTLE WEED","20,20,20,20,20,20,20,20","20,20,20,20,20,20,20,20","10,10,10,10,10,10,10,10","20,20,20,20,20,20,20,20","0,0,0,0,0,0,0,0","20,20,20,20,20,20,20,20","20,20,20,20,20,20,20,20","20,20,20,20,20,20,20,20","10,10,10,10,10,10,10,10","20,20,20,20,20,20,20,20","0,0,0,0,0,0,0,0","20,20,20,20,20,20,20,20","1,1,1,1,1,1,1,0","2264,3511,1445,1510,1380,1278,428,1451","-4.898351016322819,-50.27100504651533,32.66220451754328,-3.130727747795881,24.26613360078917,-17.776878500733176,-21.08444974300796,18.15923138812091","13.108740480362846,-21.901574941881275,-27.597057552646692,-19.265439623727044,-3.6691093188567865,10.67561425189588,-9.906621877772547,9.492404121440341","0","0"
"630","86","text","0","69","1031491","0-0","","","","","","","","","","","","","","","","","","","","","","","","","","","","","","","","","","","","",""
"","","plant-game","0","70","1052646","0-0","","200","120","8","CORN CROP","Right","200","120","4","THISTLE WEED","experimental","22","1,2,3,4,5,6,7,8","120,143.487491529553,121.1835532432616,144.04319579431512,160,134.5329527480596,165.75106516969157,159.92008885036168","4,3,2,1,4,3,2,1","THISTLE WEED,THISTLE WEED,THISTLE WEED,THISTLE WEED,NETTLE WEED,NETTLE WEED,NETTLE WEED,NETTLE WEED","120,103.36389111142415,120.06132181683665,137.73437498192794,180.64844784839488,189.46520630745755,204.0454432208777,221.58889761346833","8,7,6,5,4,3,2,1","CORN CROP,CORN CROP,CORN CROP,CORN CROP,CORN CROP,CORN CROP,CORN CROP,CORN CROP","0,0,0,0,0,0,0,0","20,20,20,20,20,20,20,20","10,10,10,10,10,10,10,10","20,20,20,20,20,20,20,20","20,20,20,20,20,20,20,20","20,20,20,20,20,20,20,20","0,0,0,0,0,0,0,0","20,20,20,20,20,20,20,20","10,10,10,10,10,10,10,10","20,20,20,20,20,20,20,20","20,20,20,20,20,20,20,20","20,20,20,20,20,20,20,20","0,0,0,0,0,0,0,0","3626,1764,868,1420,2026,1759,1461,2042","23.48749152955302,-22.303938286291405,22.85964255105352,-8.155242923154631,-25.467047251940397,31.218112421631954,-5.8309763193299,-15.004918879327512","-16.636108888575848,16.697430705412508,17.6730531650913,42.914072866466945,8.816758459062678,14.580236913420158,17.543454392590636,37.048119641946116","0","0"
"531","86","text","0","71","1053297","0-0","","","","","","","","","","","","","","","","","","","","","","","","","","","","","","","","","","","","",""
"","","plant-game","0","72","1068670","0-0","","200","180","1","WHEAT CROP","Left","200","180","2","NETTLE WEED","experimental","23","1,2","180,190","1,1","WHEAT CROP,CORN CROP","180,141.2059046610649","2,1","NETTLE WEED,NETTLE WEED","20,20","20,20","10,10","20,20","0,0","20,20","20,20","20,20","10,10","20,20","0,0","20,20","1,0","4334,3794","-19.26848051575326,-12.239697750402357","-38.7940953389351,10.244001906298571","0","0"
"747","86","text","0","73","1069573","0-0","","","","","","","","","","","","","","","","","","","","","","","","","","","","","","","","","","","","",""
"","","plant-game","0","74","1098230","0-0","","200","190","1","WHEAT CROP","Right","200","190","8","NETTLE WEED","experimental","24","1,2,3,4,5,6,7,8","190,209.8520850542319,190.0681481972334,172.03643402920764,163.86422311687318,156.44150150504066,145.49253434410863,164.9451998306835","8,7,6,5,4,3,2,1","NETTLE WEED,NETTLE WEED,NETTLE WEED,NETTLE WEED,NETTLE WEED,NETTLE WEED,NETTLE WEED,NETTLE WEED","190,130,145.4175040480862,132.38760073568452,115.91832374166367,110.68765428310469,121.86597202273737,151.39719842943427","1,7,6,5,4,3,2,1","WHEAT CROP,CORN CROP,CORN CROP,CORN CROP,CORN CROP,CORN CROP,CORN CROP,CORN CROP","0,0,0,0,0,0,0,0","20,20,20,20,20,20,20,20","10,10,10,10,10,10,10,10","20,20,20,20,20,20,20,20","20,20,20,20,20,20,20,20","20,20,20,20,20,20,20,20","0,0,0,0,0,0,0,0","20,20,20,20,20,20,20,20","10,10,10,10,10,10,10,10","20,20,20,20,20,20,20,20","20,20,20,20,20,20,20,20","20,20,20,20,20,20,20,20","1,0,0,0,0,0,1,1","10237,3788,299,356,2429,2259,1533,1189","19.852085054231893,-19.783936856998515,-18.03171416802575,-8.172210912334458,-7.422721611832505,-10.948967160932026,19.452665486574862,5.42192196005775","-11.924822365784902,15.4175040480862,-13.029903312401672,-16.46927699402085,-5.2306694585589755,11.178317739632668,29.531226406696895,28.675230890152434","0","0"
"501","86","text","0","75","1098872","0-0","","","","","","","","","","","","","","","","","","","","","","","","","","","","","","","","","","","","",""
"","","plant-game","0","76","1108732","0-0","","200","190","4","CORN CROP","Right","200","160","4","NETTLE WEED","experimental","25","1,2,3,4","160,190.2846988175115,205.22597563312297,204.1344466744056","4,3,2,1","NETTLE WEED,NETTLE WEED,NETTLE WEED,NETTLE WEED","190,189.20870387492548,222.28005781204553,220.4775367522217","4,3,2,1","CORN CROP,CORN CROP,CORN CROP,CORN CROP","0,0,0,0","20,20,20,20","10,10,10,10","20,20,20,20","20,20,20,20","20,20,20,20","0,0,0,0","20,20,20,20","10,10,10,10","20,20,20,20","20,20,20,20","20,20,20,20","1,0,0,0","2705,1303,1135,777","30.284698817511494,14.941276815611488,-1.0915289587173735,-15.430017511699308","-0.7912961250745241,33.071353937120065,-1.802521059823812,-4.782112678511719","0","0"
"516","86","text","0","77","1109368","0-0","","","","","","","","","","","","","","","","","","","","","","","","","","","","","","","","","","","","",""
"","","plant-game","0","78","1125726","0-0","","200","190","1","WHEAT CROP","Right","200","120","4","NETTLE WEED","experimental","26","1,2,3,4","120,142.59531486665736,137.8711654030456,165.63154225443978","4,3,2,1","NETTLE WEED,NETTLE WEED,NETTLE WEED,NETTLE WEED","190,170,186.4737665716902,188.3724125331108","1,3,2,1","WHEAT CROP,CORN CROP,CORN CROP,CORN CROP","0,0,0,0","20,20,20,20","10,10,10,10","20,20,20,20","20,20,20,20","20,20,20,20","0,0,0,0","20,20,20,20","10,10,10,10","20,20,20,20","20,20,20,20","20,20,20,20","1,0,1,1","3953,2476,896,3414","22.595314866657347,-4.7241494636117585,27.76037685139416,17.522436068486456","52.79936266044737,16.4737665716902,1.8986459614206055,38.05870081339093","0","0"
"412","86","text","0","79","1126278","0-0","","","","","","","","","","","","","","","","","","","","","","","","","","","","","","","","","","","","",""
"","","plant-game","0","80","1132964","0-0","","200","180","2","CORN CROP","Right","200","160","2","THISTLE WEED","experimental","27","1,2","160,145.68350904006365","2,1","THISTLE WEED,THISTLE WEED","180,193.2644650147153","2,1","CORN CROP,CORN CROP","0,0","20,20","10,10","20,20","20,20","20,20","0,0","20,20","10,10","20,20","20,20","20,20","1,1","2267,792","-14.316490959936353,39.148257859341605","13.264465014715306,28.21794055127643","0","0"
"450","86","text","0","81","1133524","0-0","","","","","","","","","","","","","","","","","","","","","","","","","","","","","","","","","","","","",""
"","","plant-game","0","82","1139791","0-0","","200","190","2","CORN CROP","Right","200","160","2","THISTLE WEED","experimental","28","1,2","160,163.35305674066606","2,1","THISTLE WEED,THISTLE WEED","190,221.57798090295205","2,1","CORN CROP,CORN CROP","0,0","20,20","10,10","20,20","20,20","20,20","0,0","20,20","10,10","20,20","20,20","20,20","1,0","1669,1583","3.353056740666055,-10.330515032667119","31.577980902952056,-1.9823264684549473","0","0"
"203","86","text","0","83","1140104","0-0","","","","","","","","","","","","","","","","","","","","","","","","","","","","","","","","","","","","",""
"","","plant-game","0","84","1150017","0-0","","200","190","1","CORN CROP","Right","200","190","1","NETTLE WEED","experimental","29","1","190","1","NETTLE WEED","190","1","CORN CROP","0","20","10","20","20","20","0","20","10","20","20","20","0","7005","-20.673467546441607","10.511555014149907","0","0"
"497","86","text","0","85","1150634","0-0","","","","","","","","","","","","","","","","","","","","","","","","","","","","","","","","","","","","",""
"","","plant-game","0","86","1167306","0-0","","200","180","4","WHEAT CROP","Left","200","160","1","NETTLE WEED","experimental","30","1,2,3,4","180,185.9548148128422,166.91500308843737,177.93817542309927","4,3,2,1","WHEAT CROP,WHEAT CROP,WHEAT CROP,WHEAT CROP","160,170,174.87952542051158,177.09166892243778","1,3,2,1","NETTLE WEED,THISTLE WEED,THISTLE WEED,THISTLE WEED","20,20,20,20","20,20,20,20","10,10,10,10","20,20,20,20","0,0,0,0","20,20,20,20","20,20,20,20","20,20,20,20","10,10,10,10","20,20,20,20","0,0,0,0","20,20,20,20","0,1,1,1","6296,3438,1091,711","5.954814812842191,-19.039811724404824,11.023172334661899,36.642975774751115","29.795220018399725,4.879525420511574,2.2121435019262012,3.1631348269341943","0","0"
"397","86","text","0","87","1167833","0-0","","","","","","","","","","","","","","","","","","","","","","","","","","","","","","","","","","","","",""
"","","plant-game","0","88","1176992","0-0","","200","160","2","WHEAT CROP","Left","200","180","1","NETTLE WEED","experimental","31","1,2","160,138.6846205398449","2,1","WHEAT CROP,WHEAT CROP","180,190","1,1","NETTLE WEED,THISTLE WEED","20,20","20,20","10,10","20,20","0,0","20,20","20,20","20,20","10,10","20,20","0,0","20,20","0,1","2840,917","-21.3153794601551,-22.373193597347264","16.280633524291872,13.717802221679472","0","0"
"594","86","text","0","89","1177736","0-0","","","","","","","","","","","","","","","","","","","","","","","","","","","","","","","","","","","","",""
"","","plant-game","0","90","1189436","0-0","","200","180","2","WHEAT CROP","Right","200","180","1","NETTLE WEED","experimental","32","1,2","180,190","1,1","NETTLE WEED,THISTLE WEED","180,185.56958095492314","2,1","WHEAT CROP,WHEAT CROP","0,0","20,20","10,10","20,20","20,20","20,20","0,0","20,20","10,10","20,20","20,20","20,20","0,1","3289,3704","8.078606411085897,14.50200747343633","5.569580954923145,2.5263703452535715","0","0"
"7862","86","text","0","91","1197418","0-0","","","","","","","","","","","","","","","","","","","","","","","","","","","","","","","","","","","","",""
"","","plant-game","0","92","1215491","0-0","","200","120","4","CORN CROP","Left","200","120","2","THISTLE WEED","experimental","33","1,2,3,4","120,153.9483932457419,149.80049614892212,150.97320854897856","4,3,2,1","CORN CROP,CORN CROP,CORN CROP,CORN CROP","120,169.3306085892802,180,191.1061743861937","2,1,2,1","THISTLE WEED,THISTLE WEED,NETTLE WEED,NETTLE WEED","20,20,20,20","20,20,20,20","10,10,10,10","20,20,20,20","0,0,0,0","20,20,20,20","20,20,20,20","20,20,20,20","10,10,10,10","20,20,20,20","0,0,0,0","20,20,20,20","0,1,1,1","3360,1798,3868,991","33.94839324574189,-4.1478970968197775,1.172712400056449,18.91243464970302","49.33060858928019,-12.780145969680913,11.106174386193688,18.950311895220462","0","0"
"574","86","text","0","93","1216180","0-0","","","","","","","","","","","","","","","","","","","","","","","","","","","","","","","","","","","","",""
"","","plant-game","0","94","1233351","0-0","","200","120","8","CORN CROP","Right","200","160","1","THISTLE WEED","experimental","34","1,2,3,4,5,6,7,8","160,130,81.7280935236074,79.08183736262107,55.70274512154184,50.0982197445104,36.266588731924195,76.33701257570453","1,7,6,5,4,3,2,1","THISTLE WEED,NETTLE WEED,NETTLE WEED,NETTLE WEED,NETTLE WEED,NETTLE WEED,NETTLE WEED,NETTLE WEED","120,144.3268243570078,151.11593422518354,138.25875558695736,140.92013649699453,145.67538783073823,154.42334382936852,155.26927418655697","8,7,6,5,4,3,2,1","CORN CROP,CORN CROP,CORN CROP,CORN CROP,CORN CROP,CORN CROP,CORN CROP,CORN CROP","0,0,0,0,0,0,0,0","20,20,20,20,20,20,20,20","10,10,10,10,10,10,10,10","20,20,20,20,20,20,20,20","20,20,20,20,20,20,20,20","20,20,20,20,20,20,20,20","0,0,0,0,0,0,0,0","20,20,20,20,20,20,20,20","10,10,10,10,10,10,10,10","20,20,20,20,20,20,20,20","20,20,20,20,20,20,20,20","20,20,20,20,20,20,20,20","0,0,0,0,0,0,1,1","2673,2303,1357,1052,1216,824,575,610","6.544968318832952,-48.2719064763926,-2.6462561609863227,-23.37909224107923,-5.60452537703144,-13.83163101258621,40.07042384378033,28.676947892275134","24.326824357007798,6.78910986817573,-12.857178638226177,2.6613809100371553,4.755251333743699,8.747955998630282,0.8459303571884504,-4.897022331831195","0","0"
"561","86","text","0","95","1234053","0-0","","","","","","","","","","","","","","","","","","","","","","","","","","","","","","","","","","","","",""
"","","plant-game","0","96","1259754","0-0","","200","190","2","CORN CROP","Left","200","160","8","THISTLE WEED","experimental","35","1,2,3,4,5,6,7,8","190,229.62721632408758,140,179.36992501369113,210.02837417005404,219.49934155630126,232.4774020216011,254.8133819326248","2,1,6,5,4,3,2,1","CORN CROP,CORN CROP,WHEAT CROP,WHEAT CROP,WHEAT CROP,WHEAT CROP,WHEAT CROP,WHEAT CROP","160,123.730687288578,142.40646016852855,179.42713035401533,187.94115063426054,179.02651283837048,180.85288672301564,188.37452448395246","8,7,6,5,4,3,2,1","THISTLE WEED,THISTLE WEED,THISTLE WEED,THISTLE WEED,THISTLE WEED,THISTLE WEED,THISTLE WEED,THISTLE WEED","20,20,20,20,20,20,20,20","20,20,20,20,20,20,20,20","10,10,10,10,10,10,10,10","20,20,20,20,20,20,20,20","0,0,0,0,0,0,0,0","20,20,20,20,20,20,20,20","20,20,20,20,20,20,20,20","20,20,20,20,20,20,20,20","10,10,10,10,10,10,10,10","20,20,20,20,20,20,20,20","0,0,0,0,0,0,0,0","20,20,20,20,20,20,20,20","1,0,0,0,1,1,1,1","5030,2422,2840,2964,1755,1438,1166,654","39.62721632408758,59.35458590810147,39.36992501369113,30.6584491563629,9.470967386247239,12.978060465299837,22.33597991102367,-26.141267848061126","-36.269312711422,18.675772879950568,37.02067018548678,8.514020280245198,-8.91463779589005,1.8263738846451698,7.521637760936807,14.224940202006522","0","0"
"912","86","text","0","97","1260811","0-0","","","","","","","","","","","","","","","","","","","","","","","","","","","","","","","","","","","","",""
"","","plant-game","0","98","1279871","0-0","","200","180","2","CORN CROP","Right","200","180","8","THISTLE WEED","experimental","36","1,2,3,4,5,6,7,8","180,167.88742431139542,179.8844487421517,206.04867653388257,225.84276306257337,211.98066517455953,239.39402504635854,261.15018750944233","8,7,6,5,4,3,2,1","THISTLE WEED,THISTLE WEED,THISTLE WEED,THISTLE WEED,THISTLE WEED,THISTLE WEED,THISTLE WEED,THISTLE WEED","180,231.37170446596946,140,120.16131547561977,112.00218052622708,128.47288623574775,151.7769234699462,174.99913845252638","2,1,6,5,4,3,2,1","CORN CROP,CORN CROP,WHEAT CROP,WHEAT CROP,WHEAT CROP,WHEAT CROP,WHEAT CROP,WHEAT CROP","0,0,0,0,0,0,0,0","20,20,20,20,20,20,20,20","10,10,10,10,10,10,10,10","20,20,20,20,20,20,20,20","20,20,20,20,20,20,20,20","20,20,20,20,20,20,20,20","0,0,0,0,0,0,0,0","20,20,20,20,20,20,20,20","10,10,10,10,10,10,10,10","20,20,20,20,20,20,20,20","20,20,20,20,20,20,20,20","20,20,20,20,20,20,20,20","1,1,0,0,0,0,0,0","4237,711,1496,646,2290,802,798,2782","-12.11257568860458,11.997024430756273,26.16422779173086,19.794086528690787,-13.862097888013823,27.413359871799017,21.75616246308381,23.995130472641264","51.371704465969465,20.635028500990312,-19.83868452438023,-8.1591349493927,16.470705709520676,23.304037234198447,23.222214982580173,10.163323834978005","0","0"
"383","86","text","0","99","1280384","0-0","","","","","","","","","","","","","","","","","","","","","","","","","","","","","","","","","","","","",""
"","","plant-game","0","100","1299577","0-0","","200","180","4","WHEAT CROP","Right","200","190","1","THISTLE WEED","experimental","37","1,2,3,4","190,170,142.1718032955179,189.93966675198828","1,3,2,1","THISTLE WEED,NETTLE WEED,NETTLE WEED,NETTLE WEED","180,233.05759156924478,207.8814987074876,220.25589320616336","4,3,2,1","WHEAT CROP,WHEAT CROP,WHEAT CROP,WHEAT CROP","0,0,0,0","20,20,20,20","10,10,10,10","20,20,20,20","20,20,20,20","20,20,20,20","0,0,0,0","20,20,20,20","10,10,10,10","20,20,20,20","20,20,20,20","20,20,20,20","0,0,1,0","4345,2721,953,825","-29.869746425244816,-27.828196704482117,47.767863456470394,23.389940985937937","53.057591569244764,-25.17609286175717,12.37439449867578,-26.517467379616075","0","0"
"603","86","text","0","101","1300290","0-0","","","","","","","","","","","","","","","","","","","","","","","","","","","","","","","","","","","","",""
"","","plant-game","0","102","1318546","0-0","","200","120","4","CORN CROP","Right","200","190","2","THISTLE WEED","experimental","38","1,2,3,4","190,165.99893506077143,180,186.21928842570222","2,1,2,1","THISTLE WEED,THISTLE WEED,NETTLE WEED,NETTLE WEED","120,104.86455805184501,121.5966574380495,141.67377708907733","4,3,2,1","CORN CROP,CORN CROP,CORN CROP,CORN CROP","0,0,0,0","20,20,20,20","10,10,10,10","20,20,20,20","20,20,20,20","20,20,20,20","0,0,0,0","20,20,20,20","10,10,10,10","20,20,20,20","20,20,20,20","20,20,20,20","0,0,0,0","5283,537,6765,1085","-24.001064939228577,10.571999967677993,6.2192884257022065,-4.431501388400463","-15.135441948154986,16.73209938620449,20.07711965102782,25.072899675820818","0","0"
"549","86","text","0","103","1319220","0-0","","","","","","","","","","","","","","","","","","","","","","","","","","","","","","","","","","","","",""
"","","plant-game","0","104","1331008","0-0","","200","120","2","CORN CROP","Left","200","120","1","THISTLE WEED","experimental","39","1,2","120,87.61437523455452","2,1","CORN CROP,CORN CROP","120,190","1,1","THISTLE WEED,NETTLE WEED","20,20","20,20","10,10","20,20","0,0","20,20","20,20","20,20","10,10","20,20","0,0","20,20","1,0","2174,2448","-32.385624765445485,28.327521066663024","4.53897307789542,39.53685077600569","0","0"
"510","86","text","0","105","1331638","0-0","","","","","","","","","","","","","","","","","","","","","","","","","","","","","","","","","","","","",""
"","","plant-game","0","106","1356981","0-0","","200","160","8","WHEAT CROP","Right","200","190","4","NETTLE WEED","experimental","40","1,2,3,4,5,6,7,8","190,186.51205189378615,176.4312795216044,179.36845182235857,160,207.65702595767274,220.80925681281977,216.38905104539543","4,3,2,1,4,3,2,1","NETTLE WEED,NETTLE WEED,NETTLE WEED,NETTLE WEED,THISTLE WEED,THISTLE WEED,THISTLE WEED,THISTLE WEED","160,168.00479563126626,174.03347733611687,188.28142195655374,221.34380302326505,226.96127676429722,217.98584073046322,248.992632645511","8,7,6,5,4,3,2,1","WHEAT CROP,WHEAT CROP,WHEAT CROP,WHEAT CROP,WHEAT CROP,WHEAT CROP,WHEAT CROP,WHEAT CROP","0,0,0,0,0,0,0,0","20,20,20,20,20,20,20,20","10,10,10,10,10,10,10,10","20,20,20,20,20,20,20,20","20,20,20,20,20,20,20,20","20,20,20,20,20,20,20,20","0,0,0,0,0,0,0,0","20,20,20,20,20,20,20,20","10,10,10,10,10,10,10,10","20,20,20,20,20,20,20,20","20,20,20,20,20,20,20,20","20,20,20,20,20,20,20,20","0,0,0,0,1,0,0,0","8553,865,845,1630,2544,1414,525,533","-3.4879481062138513,-10.080772372181752,2.9371723007541473,29.878564328828574,47.657025957672744,13.152230855147028,-4.42020576742433,-19.55552730545131","8.004795631266274,6.028681704850618,14.247944620436854,33.06238106671131,5.617473741032166,-8.975436033833999,31.006791915047778,-21.331591267067886","1","0"
"526","86","text","0","107","1357647","0-0","","","","","","","","","","","","","","","","","","","","","","","","","","","","","","","","","","","","",""
"","","plant-game","0","108","1367554","0-0","","200","160","1","CORN CROP","Left","200","180","2","NETTLE WEED","experimental","41","1,2","160,190","1,1","CORN CROP,WHEAT CROP","180,183.34632667677351","2,1","NETTLE WEED,NETTLE WEED","20,20","20,20","10,10","20,20","0,0","20,20","20,20","20,20","10,10","20,20","0,0","20,20","0,1","2585,1128","-11.663540716321297,-25.2726473960534","3.3463266767735185,-3.283309574212362","0","0"
"457","86","text","0","109","1368151","0-0","","","","","","","","","","","","","","","","","","","","","","","","","","","","","","","","","","","","",""
"","","plant-game","0","110","1383204","0-0","","200","120","2","CORN CROP","Left","200","160","4","THISTLE WEED","experimental","42","1,2,3,4","120,170.780190314075,180,165.25347681718875","2,1,2,1","CORN CROP,CORN CROP,WHEAT CROP,WHEAT CROP","160,152.5382300252601,185.24100906793987,166.53365044600596","4,3,2,1","THISTLE WEED,THISTLE WEED,THISTLE WEED,THISTLE WEED","20,20,20,20","20,20,20,20","10,10,10,10","20,20,20,20","0,0,0,0","20,20,20,20","20,20,20,20","20,20,20,20","10,10,10,10","20,20,20,20","0,0,0,0","20,20,20,20","0,0,1,1","6396,679,1254,1559","50.780190314075,0.7428968918133485,-14.746523182811258,8.504297147814356","-7.461769974739884,32.70277904267976,-18.707358621933896,-48.15328719748188","0","0"
"400","86","text","0","111","1383744","0-0","","","","","","","","","","","","","","","","","","","","","","","","","","","","","","","","","","","","",""
"","","plant-game","0","112","1394371","0-0","","200","180","1","CORN CROP","Right","200","160","2","THISTLE WEED","experimental","43","1,2","160,212.7706581560339","2,1","THISTLE WEED,THISTLE WEED","180,190","1,1","CORN CROP,WHEAT CROP","0,0","20,20","10,10","20,20","20,20","20,20","0,0","20,20","10,10","20,20","20,20","20,20","1,0","2426,1949","52.77065815603391,-18.195383385753573","36.87534428623768,16.233452453759778","0","0"
"474","86","text","0","113","1394975","0-0","","","","","","","","","","","","","","","","","","","","","","","","","","","","","","","","","","","","",""
"","","plant-game","0","114","1406944","0-0","","200","180","1","WHEAT CROP","Left","200","190","2","NETTLE WEED","experimental","44","1,2","180,190","1,1","WHEAT CROP,CORN CROP","190,206.911213263847","2,1","NETTLE WEED,NETTLE WEED","20,20","20,20","10,10","20,20","0,0","20,20","20,20","20,20","10,10","20,20","0,0","20,20","0,1","3479,2925","-5.963137409152999,39.481516214523914","16.911213263847017,23.333145691616114","0","0"
"527","86","text","0","115","1407550","0-0","","","","","","","","","","","","","","","","","","","","","","","","","","","","","","","","","","","","",""
"","","plant-game","0","116","1426782","0-0","","200","190","4","CORN CROP","Right","200","120","8","NETTLE WEED","experimental","45","1,2,3,4,5,6,7,8","120,157.64632398842582,173.95518104610514,200.69572374204918,214.76855021258874,232.5393831074839,237.8546584974981,236.03904681751084","8,7,6,5,4,3,2,1","NETTLE WEED,NETTLE WEED,NETTLE WEED,NETTLE WEED,NETTLE WEED,NETTLE WEED,NETTLE WEED,NETTLE WEED","190,240.40815332145678,260.07489269879613,305.75766245557213,160,197.6108352582769,191.9998967095296,204.72079285287137","4,3,2,1,4,3,2,1","CORN CROP,CORN CROP,CORN CROP,CORN CROP,WHEAT CROP,WHEAT CROP,WHEAT CROP,WHEAT CROP","0,0,0,0,0,0,0,0","20,20,20,20,20,20,20,20","10,10,10,10,10,10,10,10","20,20,20,20,20,20,20,20","20,20,20,20,20,20,20,20","20,20,20,20,20,20,20,20","0,0,0,0,0,0,0,0","20,20,20,20,20,20,20,20","10,10,10,10,10,10,10,10","20,20,20,20,20,20,20,20","20,20,20,20,20,20,20,20","20,20,20,20,20,20,20,20","1,1,1,0,0,0,0,0","2390,2770,1668,957,2400,1050,911,853","37.64632398842582,16.308857057679322,26.740542695944047,14.072826470539558,17.770832894895157,5.315275390014202,-1.8156116799872615,5.512524936463144","50.408153321456794,19.666739377339347,45.68276975677598,-20.312087687614856,37.61083525827691,-5.610938548747303,12.720896143341767,52.68068769703916","0","0"
"442","86","text","0","117","1427358","0-0","","","","","","","","","","","","","","","","","","","","","","","","","","","","","","","","","","","","",""
"","","plant-game","0","118","1447223","0-0","","200","180","4","WHEAT CROP","Left","200","120","8","NETTLE WEED","experimental","46","1,2,3,4,5,6,7,8","180,218.3058625262928,235.61458075798785,199.41505006986483,160,140.83932252784618,168.25759730184438,202.8598880928342","4,3,2,1,4,3,2,1","WHEAT CROP,WHEAT CROP,WHEAT CROP,WHEAT CROP,CORN CROP,CORN CROP,CORN CROP,CORN CROP","120,164.68892585099536,166.45443759629643,184.53905685874867,178.52960585221388,192.53997163864818,204.1666455396655,171.06490705983603","8,7,6,5,4,3,2,1","NETTLE WEED,NETTLE WEED,NETTLE WEED,NETTLE WEED,NETTLE WEED,NETTLE WEED,NETTLE WEED,NETTLE WEED","20,20,20,20,20,20,20,20","20,20,20,20,20,20,20,20","10,10,10,10,10,10,10,10","20,20,20,20,20,20,20,20","0,0,0,0,0,0,0,0","20,20,20,20,20,20,20,20","20,20,20,20,20,20,20,20","20,20,20,20,20,20,20,20","10,10,10,10,10,10,10,10","20,20,20,20,20,20,20,20","0,0,0,0,0,0,0,0","20,20,20,20,20,20,20,20","0,0,1,0,1,1,1,0","2064,733,1152,1920,3088,1231,621,3175","38.305862526292785,17.308718231695053,-36.19953068812303,30.681507538762197,-19.160677472153814,27.418274773998192,34.602290790989834,50.81414771747442","44.688925850995346,1.7655117453010831,18.08461926245223,-6.009451006534778,14.010365786434292,11.626673901017304,-33.10173847982946,10.02089520315788","0","0"
"597","86","text","0","119","1447950","0-0","","","","","","","","","","","","","","","","","","","","","","","","","","","","","","","","","","","","",""
"","","plant-game","0","120","1453300","0-0","","200","160","2","CORN CROP","Right","200","120","2","THISTLE WEED","experimental","47","1,2","120,88.97682402049753","2,1","THISTLE WEED,THISTLE WEED","160,179.1003699241031","2,1","CORN CROP,CORN CROP","0,0","20,20","10,10","20,20","20,20","20,20","0,0","20,20","10,10","20,20","20,20","20,20","1,1","1624,509","-31.023175979502476,24.72544628912932","19.10036992410309,33.560326098838644","0","0"
"486","86","text","0","121","1453906","0-0","","","","","","","","","","","","","","","","","","","","","","","","","","","","","","","","","","","","",""
"","","plant-game","0","122","1464310","0-0","","200","180","2","WHEAT CROP","Left","200","120","4","THISTLE WEED","experimental","48","1,2,3,4","180,219.9595621801057,180,196.9249104683972","2,1,2,1","WHEAT CROP,WHEAT CROP,CORN CROP,CORN CROP","120,124.19896117788014,139.17898353862637,170.13251897674317","4,3,2,1","THISTLE WEED,THISTLE WEED,THISTLE WEED,THISTLE WEED","20,20,20,20","20,20,20,20","10,10,10,10","20,20,20,20","0,0,0,0","20,20,20,20","20,20,20,20","20,20,20,20","10,10,10,10","20,20,20,20","0,0,0,0","20,20,20,20","0,0,0,0","1906,1942,1155,416","39.95956218010571,41.48978394571067,16.924910468397208,33.750203808131246","4.198961177880129,14.980022360746231,30.953535438116813,-14.56096399892327","0","0"
"1368","86","text","0","123","1465812","0-0","","","","","","","","","","","","","","","","","","","","","","","","","","","","","","","","","","","","",""
"","","plant-game","0","124","1482227","0-0","","200","180","8","WHEAT CROP","Left","200","120","1","THISTLE WEED","experimental","49","1,2,3,4,5,6,7,8","180,244.8199935404323,220.31340532732602,293.1305528448111,274.7092686551663,298.46337467711123,295.080521618411,282.44606303415753","8,7,6,5,4,3,2,1","WHEAT CROP,WHEAT CROP,WHEAT CROP,WHEAT CROP,WHEAT CROP,WHEAT CROP,WHEAT CROP,WHEAT CROP","120,130,194.62998016232362,217.45510845769164,204.0740834423936,211.16821756476654,198.11241385355,209.94945596318632","1,7,6,5,4,3,2,1","THISTLE WEED,NETTLE WEED,NETTLE WEED,NETTLE WEED,NETTLE WEED,NETTLE WEED,NETTLE WEED,NETTLE WEED","20,20,20,20,20,20,20,20","20,20,20,20,20,20,20,20","10,10,10,10,10,10,10,10","20,20,20,20,20,20,20,20","0,0,0,0,0,0,0,0","20,20,20,20,20,20,20,20","20,20,20,20,20,20,20,20","20,20,20,20,20,20,20,20","10,10,10,10,10,10,10,10","20,20,20,20,20,20,20,20","0,0,0,0,0,0,0,0","20,20,20,20,20,20,20,20","0,0,0,1,1,1,1,1","3172,1437,1063,834,670,796,656,1676","64.8199935404323,-24.50658821310629,72.8171475174851,-18.421284189644844,23.754106021944924,-3.3828530587002077,-12.634458584253458,4.956744980612236","19.807404880236803,64.62998016232362,22.825128295368017,-13.381025015298032,7.094134122372924,-13.055803711216516,11.83704210963632,3.596357165318074","0","0"
"488","86","text","0","125","1482819","0-0","","","","","","","","","","","","","","","","","","","","","","","","","","","","","","","","","","","","",""
"","","plant-game","0","126","1500442","0-0","","200","190","8","CORN CROP","Right","200","180","1","THISTLE WEED","experimental","50","1,2,3,4,5,6,7,8","180,130,165.29421685028615,161.53071191469556,84.05803304124306,115.23828344416853,106.8125577695762,134.25427281518088","1,7,6,5,4,3,2,1","THISTLE WEED,NETTLE WEED,NETTLE WEED,NETTLE WEED,NETTLE WEED,NETTLE WEED,NETTLE WEED,NETTLE WEED","190,194.96617525709158,209.81434162482023,229.86373887955344,224.44905373883307,252.3318009509154,257.66506389280323,260.9077960967441","8,7,6,5,4,3,2,1","CORN CROP,CORN CROP,CORN CROP,CORN CROP,CORN CROP,CORN CROP,CORN CROP,CORN CROP","0,0,0,0,0,0,0,0","20,20,20,20,20,20,20,20","10,10,10,10,10,10,10,10","20,20,20,20,20,20,20,20","20,20,20,20,20,20,20,20","20,20,20,20,20,20,20,20","0,0,0,0,0,0,0,0","20,20,20,20,20,20,20,20","10,10,10,10,10,10,10,10","20,20,20,20,20,20,20,20","20,20,20,20,20,20,20,20","20,20,20,20,20,20,20,20","0,1,1,0,0,0,0,0","4807,1427,548,1910,714,642,841,572","-10.69574561807821,35.29421685028615,-3.763504935590589,-77.4726788734525,31.18025040292547,-8.425725674592329,27.441715045604692,-7.7136988481810045","4.966175257091583,14.848166367728663,20.049397254733197,-5.41468514072037,27.882747212082343,5.333262941887802,3.2427322039408883,8.463059128380392","2","0"
"633","86","text","0","127","1501175","0-0","","","","","","","","","","","","","","","","","","","","","","","","","","","","","","","","","","","","",""
"","","plant-game","0","128","1519553","0-0","","200","190","8","CORN CROP","Right","200","190","2","NETTLE WEED","experimental","51","1,2,3,4,5,6,7,8","190,150.671322628596,140,163.51601380576713,177.78864243147956,196.29933504587032,191.06158042740805,197.44674858213224","2,1,6,5,4,3,2,1","NETTLE WEED,NETTLE WEED,THISTLE WEED,THISTLE WEED,THISTLE WEED,THISTLE WEED,THISTLE WEED,THISTLE WEED","190,173.6652706645978,180.30604913347787,184.8995493848309,215.97875802370123,240.04211044854696,194.0198610616785,171.4887741067846","8,7,6,5,4,3,2,1","CORN CROP,CORN CROP,CORN CROP,CORN CROP,CORN CROP,CORN CROP,CORN CROP,CORN CROP","0,0,0,0,0,0,0,0","20,20,20,20,20,20,20,20","10,10,10,10,10,10,10,10","20,20,20,20,20,20,20,20","20,20,20,20,20,20,20,20","20,20,20,20,20,20,20,20","0,0,0,0,0,0,0,0","20,20,20,20,20,20,20,20","10,10,10,10,10,10,10,10","20,20,20,20,20,20,20,20","20,20,20,20,20,20,20,20","20,20,20,20,20,20,20,20","0,0,0,0,0,0,0,0","2344,2067,1968,1063,1103,926,865,1630","-39.32867737140401,-1.8206757012678607,23.516013805767138,14.272628625712427,18.510692614390763,-5.237754618462274,6.3851681547241945,6.155879357417904","-16.334729335402187,6.640778468880063,4.593500251353025,31.079208638870345,24.063352424845746,-46.02224938686845,-22.531086954893897,-67.80330987064056","1","0"
"598","86","text","0","129","1520321","0-0","","","","","","","","","","","","","","","","","","","","","","","","","","","","","","","","","","","","",""
"","","plant-game","0","130","1529549","0-0","","200","190","2","WHEAT CROP","Right","200","180","2","THISTLE WEED","experimental","52","1,2","180,162.35583878789646","2,1","THISTLE WEED,THISTLE WEED","190,190.61608777042937","2,1","WHEAT CROP,WHEAT CROP","0,0","20,20","10,10","20,20","20,20","20,20","0,0","20,20","10,10","20,20","20,20","20,20","1,1","4187,862","-17.64416121210354,32.79055811914874","0.6160877704293881,-3.4973878603620108","1","0"
"517","86","text","0","131","1530246","0-0","","","","","","","","","","","","","","","","","","","","","","","","","","","","","","","","","","","","",""
"","","plant-game","0","132","1546543","0-0","","200","190","8","WHEAT CROP","Right","200","160","1","THISTLE WEED","experimental","53","1,2,3,4,5,6,7,8","160,130,126.52530006647125,100.33079058784489,125.0100509163121,128.50278810962692,131.71169164166483,148.4187708186138","1,7,6,5,4,3,2,1","THISTLE WEED,NETTLE WEED,NETTLE WEED,NETTLE WEED,NETTLE WEED,NETTLE WEED,NETTLE WEED,NETTLE WEED","190,199.79726296585787,228.68808309689555,223.72299200545868,232.7020958541251,251.37842089792522,222.02548548429502,236.06594392970038","8,7,6,5,4,3,2,1","WHEAT CROP,WHEAT CROP,WHEAT CROP,WHEAT CROP,WHEAT CROP,WHEAT CROP,WHEAT CROP,WHEAT CROP","0,0,0,0,0,0,0,0","20,20,20,20,20,20,20,20","10,10,10,10,10,10,10,10","20,20,20,20,20,20,20,20","20,20,20,20,20,20,20,20","20,20,20,20,20,20,20,20","0,0,0,0,0,0,0,0","20,20,20,20,20,20,20,20","10,10,10,10,10,10,10,10","20,20,20,20,20,20,20,20","20,20,20,20,20,20,20,20","20,20,20,20,20,20,20,20","0,1,0,0,0,0,0,0","4560,2215,1117,957,1103,634,489,250","21.191597340854717,-3.4746999335287576,-26.194509478626358,24.679260328467212,3.492737193314813,3.2089035320379002,16.70707917694897,3.6155632796450403","9.79726296585788,28.890820131037685,-4.965091091436873,8.979103848666414,18.676325043800112,-29.352935413630192,14.040458445405353,16.620658895436428","0","0"
"493","86","text","0","133","1547166","0-0","","","","","","","","","","","","","","","","","","","","","","","","","","","","","","","","","","","","",""
"","","plant-game","0","134","1562139","0-0","","200","190","8","WHEAT CROP","Left","200","180","2","THISTLE WEED","experimental","54","1,2,3,4,5,6,7,8","190,216.8378931088108,219.59138613199408,226.53459638632205,256.45385358410897,244.58976326316892,241.7316551646634,288.63465351968557","8,7,6,5,4,3,2,1","WHEAT CROP,WHEAT CROP,WHEAT CROP,WHEAT CROP,WHEAT CROP,WHEAT CROP,WHEAT CROP,WHEAT CROP","180,184.86974979295871,140,152.190673528281,150.63732871061023,119.36976559385175,151.8932809795125,204.1446243641315","2,1,6,5,4,3,2,1","THISTLE WEED,THISTLE WEED,NETTLE WEED,NETTLE WEED,NETTLE WEED,NETTLE WEED,NETTLE WEED,NETTLE WEED","20,20,20,20,20,20,20,20","20,20,20,20,20,20,20,20","10,10,10,10,10,10,10,10","20,20,20,20,20,20,20,20","0,0,0,0,0,0,0,0","20,20,20,20,20,20,20,20","20,20,20,20,20,20,20,20","20,20,20,20,20,20,20,20","10,10,10,10,10,10,10,10","20,20,20,20,20,20,20,20","0,0,0,0,0,0,0,0","20,20,20,20,20,20,20,20","1,0,0,0,0,0,0,0","1995,1172,1879,515,422,232,595,1160","26.83789310881079,2.7534930231833066,6.943210254327967,29.919257197786905,-11.864090320940054,-2.8581080985055216,46.90299835502214,-6.330047558256844","4.869749792958703,29.012126564573904,12.190673528281001,-1.5533448176707694,-31.267563116758488,32.52351538566075,52.251343384619,38.69264118415925","0","0"
"499","86","text","0","135","1562808","0-0","","","","","","","","","","","","","","","","","","","","","","","","","","","","","","","","","","","","",""
"","","plant-game","0","136","1579956","0-0","","200","180","1","CORN CROP","Right","200","160","4","THISTLE WEED","experimental","55","1,2,3,4","160,149.25109943849867,171.81484239737466,222.77921412972256","4,3,2,1","THISTLE WEED,THISTLE WEED,THISTLE WEED,THISTLE WEED","180,170,196.700345390568,211.96928316390216","1,3,2,1","CORN CROP,WHEAT CROP,WHEAT CROP,WHEAT CROP","0,0,0,0","20,20,20,20","10,10,10,10","20,20,20,20","20,20,20,20","20,20,20,20","0,0,0,0","20,20,20,20","10,10,10,10","20,20,20,20","20,20,20,20","20,20,20,20","1,1,1,0","4790,4101,1710,1102","-10.748900561501333,22.563742958876002,50.9643717323479,15.683610297191578","-20.76118978294511,26.700345390567996,15.268937773334144,-5.588497510295248","0","0"
"336","86","text","0","137","1580439","0-0","","","","","","","","","","","","","","","","","","","","","","","","","","","","","","","","","","","","",""
"","","plant-game","0","138","1595369","0-0","","200","120","8","WHEAT CROP","Right","200","180","1","NETTLE WEED","experimental","56","1,2,3,4,5,6,7,8","180,130,157.46932428951015,167.55570973267862,205.8467235357166,201.1956809662004,161.87196335240992,195.460418931171","1,7,6,5,4,3,2,1","NETTLE WEED,THISTLE WEED,THISTLE WEED,THISTLE WEED,THISTLE WEED,THISTLE WEED,THISTLE WEED,THISTLE WEED","120,165.1684816435621,211.29559746184214,190.87403326828752,192.5050369715363,182.63723704018895,239.4192066860614,199.5993768803227","8,7,6,5,4,3,2,1","WHEAT CROP,WHEAT CROP,WHEAT CROP,WHEAT CROP,WHEAT CROP,WHEAT CROP,WHEAT CROP,WHEAT CROP","0,0,0,0,0,0,0,0","20,20,20,20,20,20,20,20","10,10,10,10,10,10,10,10","20,20,20,20,20,20,20,20","20,20,20,20,20,20,20,20","20,20,20,20,20,20,20,20","0,0,0,0,0,0,0,0","20,20,20,20,20,20,20,20","10,10,10,10,10,10,10,10","20,20,20,20,20,20,20,20","20,20,20,20,20,20,20,20","20,20,20,20,20,20,20,20","1,1,1,1,1,1,0,1","1444,1109,1718,1199,1030,364,833,886","14.068925637545671,27.469324289510144,10.086385443168455,38.291013803037956,-4.651042569516193,-39.323717613790464,33.58845557876108,-1.3067816085959265","45.16848164356211,46.127115818280046,-20.421564193554616,1.631003703248787,-9.867799931347342,56.781969645872444,-39.81982980573869,-9.990150348018624","0","0"
"496","86","text","0","139","1595995","0-0","","","","","","","","","","","","","","","","","","","","","","","","","","","","","","","","","","","","",""
"","","plant-game","0","140","1602308","0-0","","200","190","1","CORN CROP","Right","200","160","1","THISTLE WEED","experimental","57","1","160","1","THISTLE WEED","190","1","CORN CROP","0","20","10","20","20","20","0","20","10","20","20","20","1","3265","-11.150902923149566","40.49361904987323","0","0"
"525","86","text","0","141","1602983","0-0","","","","","","","","","","","","","","","","","","","","","","","","","","","","","","","","","","","","",""
"","","plant-game","0","142","1618765","0-0","","200","120","8","WHEAT CROP","Right","200","120","2","NETTLE WEED","experimental","58","1,2,3,4,5,6,7,8","120,105.89007357525148,140,138.57172102013567,173.47178340991417,161.29577262989838,207.68481815563013,187.3106371566135","2,1,6,5,4,3,2,1","NETTLE WEED,NETTLE WEED,THISTLE WEED,THISTLE WEED,THISTLE WEED,THISTLE WEED,THISTLE WEED,THISTLE WEED","120,114.3736314253558,152.6222074375829,151.87373777633852,152.22674095031923,141.7519199465795,138.02463350941775,144.41469916922648","8,7,6,5,4,3,2,1","WHEAT CROP,WHEAT CROP,WHEAT CROP,WHEAT CROP,WHEAT CROP,WHEAT CROP,WHEAT CROP,WHEAT CROP","0,0,0,0,0,0,0,0","20,20,20,20,20,20,20,20","10,10,10,10,10,10,10,10","20,20,20,20,20,20,20,20","20,20,20,20,20,20,20,20","20,20,20,20,20,20,20,20","0,0,0,0,0,0,0,0","20,20,20,20,20,20,20,20","10,10,10,10,10,10,10,10","20,20,20,20,20,20,20,20","20,20,20,20,20,20,20,20","20,20,20,20,20,20,20,20","1,1,0,0,0,1,0,0","3225,660,2160,887,641,693,750,1208","-14.10992642474853,23.33901153557209,-1.4282789798643245,34.90006238977851,-12.176010780015785,46.38904552573175,-20.374180999016637,-10.258445703142447","-5.6263685746441965,38.2485760122271,-0.7484696612443642,0.35300317398069825,-10.474821003739708,-3.7272864371617445,6.390065659808739,-20.877802997826294","0","0"
"443","86","text","0","143","1619352","0-0","","","","","","","","","","","","","","","","","","","","","","","","","","","","","","","","","","","","",""
"","","plant-game","0","144","1636106","0-0","","200","180","4","WHEAT CROP","Right","200","180","8","THISTLE WEED","experimental","59","1,2,3,4,5,6,7,8","180,190.72794979529772,156.43927494387458,207.10003079352714,238.11213450133081,290.4749778428856,326.4852303292844,387.0933312464912","8,7,6,5,4,3,2,1","THISTLE WEED,THISTLE WEED,THISTLE WEED,THISTLE WEED,THISTLE WEED,THISTLE WEED,THISTLE WEED,THISTLE WEED","180,158.30097350814967,183.17102209043253,200.12068595084986,160,218.54691536539582,252.62583787575284,236.85021363075998","4,3,2,1,4,3,2,1","WHEAT CROP,WHEAT CROP,WHEAT CROP,WHEAT CROP,CORN CROP,CORN CROP,CORN CROP,CORN CROP","0,0,0,0,0,0,0,0","20,20,20,20,20,20,20,20","10,10,10,10,10,10,10,10","20,20,20,20,20,20,20,20","20,20,20,20,20,20,20,20","20,20,20,20,20,20,20,20","0,0,0,0,0,0,0,0","20,20,20,20,20,20,20,20","10,10,10,10,10,10,10,10","20,20,20,20,20,20,20,20","20,20,20,20,20,20,20,20","20,20,20,20,20,20,20,20","0,1,1,1,1,1,1,1","2095,1444,175,700,4343,916,379,331","10.72794979529771,-34.28867485142315,50.660755849652546,31.012103707803682,52.36284334155481,36.01025248639875,60.6081009172068,32.55176931165454","-21.699026491850336,24.87004858228285,16.94966386041732,-2.2500274427389897,58.54691536539583,34.07892251035701,-15.775624244992855,31.37449183097966","0","0"
"566","86","text","0","145","1636812","0-0","","","","","","","","","","","","","","","","","","","","","","","","","","","","","","","","","","","","",""
"","","plant-game","0","146","1651519","0-0","","200","180","4","CORN CROP","Left","200","190","8","THISTLE WEED","experimental","60","1,2,3,4,5,6,7,8","180,166.52944617156226,178.6719672368928,190.9520757601343,160,179.45559605819943,224.88886793488194,218.31843794173727","4,3,2,1,4,3,2,1","CORN CROP,CORN CROP,CORN CROP,CORN CROP,WHEAT CROP,WHEAT CROP,WHEAT CROP,WHEAT CROP","190,220.55516627654103,219.92782494821404,213.61146647060963,241.43649207002605,234.6835132489736,194.92852015094883,225.08262978745708","8,7,6,5,4,3,2,1","THISTLE WEED,THISTLE WEED,THISTLE WEED,THISTLE WEED,THISTLE WEED,THISTLE WEED,THISTLE WEED,THISTLE WEED","20,20,20,20,20,20,20,20","20,20,20,20,20,20,20,20","10,10,10,10,10,10,10,10","20,20,20,20,20,20,20,20","0,0,0,0,0,0,0,0","20,20,20,20,20,20,20,20","20,20,20,20,20,20,20,20","20,20,20,20,20,20,20,20","10,10,10,10,10,10,10,10","20,20,20,20,20,20,20,20","0,0,0,0,0,0,0,0","20,20,20,20,20,20,20,20","1,1,1,1,0,0,0,0","3374,492,384,380,1771,340,1017,836","-13.470553828437737,12.142521065330554,12.280108523241502,0.2708952881635274,19.455596058199426,45.433271876682525,-6.570429993144682,13.549407450553275","30.55516627654102,-0.6273413283269966,-6.316358477604416,27.825025599416424,-6.752978821052448,-39.75499309802479,30.15410963650825,6.29366712706457","0","0"
"359","86","text","0","147","1652010","0-0","","","","","","","","","","","","","","","","","","","","","","","","","","","","","","","","","","","","",""
"","","plant-game","0","148","1659624","0-0","","200","180","2","CORN CROP","Left","200","120","2","THISTLE WEED","experimental","61","1,2","180,175.8593816759847","2,1","CORN CROP,CORN CROP","120,141.75709505980112","2,1","THISTLE WEED,THISTLE WEED","20,20","20,20","10,10","20,20","0,0","20,20","20,20","20,20","10,10","20,20","0,0","20,20","1,0","1834,1541","-4.140618324015294,36.57484188592409","21.757095059801117,-17.731641460411012","0","0"
"567","86","text","0","149","1660288","0-0","","","","","","","","","","","","","","","","","","","","","","","","","","","","","","","","","","","","",""
"","","plant-game","0","150","1692801","0-0","","200","160","8","WHEAT CROP","Right","200","160","4","THISTLE WEED","experimental","62","1,2,3,4,5,6,7,8","160,163.61251520888513,165.00620523959452,176.57321575540072,160,183.7908257243426,200.16514762731725,263.51312616538274","4,3,2,1,4,3,2,1","THISTLE WEED,THISTLE WEED,THISTLE WEED,THISTLE WEED,NETTLE WEED,NETTLE WEED,NETTLE WEED,NETTLE WEED","160,139.18474173452938,121.70866587467569,133.48796428899334,146.07210371900845,170.89809518298281,173.60395321336804,178.8640087473985","8,7,6,5,4,3,2,1","WHEAT CROP,WHEAT CROP,WHEAT CROP,WHEAT CROP,WHEAT CROP,WHEAT CROP,WHEAT CROP,WHEAT CROP","0,0,0,0,0,0,0,0","20,20,20,20,20,20,20,20","10,10,10,10,10,10,10,10","20,20,20,20,20,20,20,20","20,20,20,20,20,20,20,20","20,20,20,20,20,20,20,20","0,0,0,0,0,0,0,0","20,20,20,20,20,20,20,20","10,10,10,10,10,10,10,10","20,20,20,20,20,20,20,20","20,20,20,20,20,20,20,20","20,20,20,20,20,20,20,20","0,0,0,0,0,1,1,1","18877,648,446,1318,2126,2347,385,333","3.612515208885141,1.3936900307093905,11.567010515806189,-2.7511192071123167,23.79082572434259,16.374321902974653,63.3479785380655,-2.179017378326268","-20.815258265470607,-17.476075859853687,11.779298414317655,12.58413943001511,24.82599146397436,2.7058580303852366,5.260055534030453,38.09521419548719","1","0"
"391","86","text","0","151","1693332","0-0","","","","","","","","","","","","","","","","","","","","","","","","","","","","","","","","","","","","",""
"","","plant-game","0","152","1710769","0-0","","200","180","2","WHEAT CROP","Left","200","190","4","NETTLE WEED","experimental","63","1,2,3,4","180,185.02762907942414,180,203.7324674116962","2,1,2,1","WHEAT CROP,WHEAT CROP,CORN CROP,CORN CROP","190,204.9116592569888,197.16752591651084,220.34267072385666","4,3,2,1","NETTLE WEED,NETTLE WEED,NETTLE WEED,NETTLE WEED","20,20,20,20","20,20,20,20","10,10,10,10","20,20,20,20","0,0,0,0","20,20,20,20","20,20,20,20","20,20,20,20","10,10,10,10","20,20,20,20","0,0,0,0","20,20,20,20","1,1,1,1","2712,1229,5803,377","5.027629079424143,29.61361868804839,23.732467411696213,-18.839017414503267","14.911659256988806,-7.7441333404779495,23.17514480734583,-16.862685943287342","0","0"
"817","86","text","0","153","1711726","0-0","","","","","","","","","","","","","","","","","","","","","","","","","","","","","","","","","","","","",""
"","","plant-game","0","154","1725660","0-0","","200","180","4","WHEAT CROP","Right","200","180","4","NETTLE WEED","experimental","64","1,2,3,4","180,205.72924493534146,243.19829398523962,286.3431630629765","4,3,2,1","NETTLE WEED,NETTLE WEED,NETTLE WEED,NETTLE WEED","180,181.09691639741231,188.82362068608438,200.56309133478038","4,3,2,1","WHEAT CROP,WHEAT CROP,WHEAT CROP,WHEAT CROP","0,0,0,0","20,20,20,20","10,10,10,10","20,20,20,20","20,20,20,20","20,20,20,20","0,0,0,0","20,20,20,20","10,10,10,10","20,20,20,20","20,20,20,20","20,20,20,20","1,1,1,1","4332,633,511,4676","25.729244935341445,37.469049049898175,43.144869077736885,16.593755552878818","1.0969163974123113,7.726704288672064,11.739470648695987,58.75293403253286","0","0"
"1373","86","text","0","155","1727183","0-0","","","","","","","","","","","","","","","","","","","","","","","","","","","","","","","","","","","","",""
"","","plant-game","0","156","1749093","0-0","","200","180","1","WHEAT CROP","Left","200","180","8","NETTLE WEED","experimental","65","1,2,3,4,5,6,7,8","180,130,162.97438415742306,134.41450072533743,133.71291991538385,128.50683169194122,120.91005030848872,139.2770036111997","1,7,6,5,4,3,2,1","WHEAT CROP,CORN CROP,CORN CROP,CORN CROP,CORN CROP,CORN CROP,CORN CROP,CORN CROP","180,217.125623119711,229.2945869522213,193.33853364193496,201.17269192478463,209.67789824098537,197.77922575546592,181.66484961109666","8,7,6,5,4,3,2,1","NETTLE WEED,NETTLE WEED,NETTLE WEED,NETTLE WEED,NETTLE WEED,NETTLE WEED,NETTLE WEED,NETTLE WEED","20,20,20,20,20,20,20,20","20,20,20,20,20,20,20,20","10,10,10,10,10,10,10,10","20,20,20,20,20,20,20,20","0,0,0,0,0,0,0,0","20,20,20,20,20,20,20,20","20,20,20,20,20,20,20,20","20,20,20,20,20,20,20,20","10,10,10,10,10,10,10,10","20,20,20,20,20,20,20,20","0,0,0,0,0,0,0,0","20,20,20,20,20,20,20,20","0,1,1,1,1,1,1,1","3793,1721,5000,938,763,2415,738,1213","61.03902006964182,32.97438415742305,-28.559883432085638,-0.7015808099535694,-5.206088223442648,-7.5967813834525,18.36695330271096,-14.4163700933671","37.12562311971101,12.16896383251029,-35.956053310286336,7.834158282849664,8.505206316200743,-11.898672485519459,-16.11437614436925,-4.848415996045697","0","0"
"316","86","text","0","157","1749539","0-0","","","","","","","","","","","","","","","","","","","","","","","","","","","","","","","","","","","","",""
"","","plant-game","0","158","1756893","0-0","","200","190","2","CORN CROP","Right","200","120","2","THISTLE WEED","experimental","66","1,2","120,136.90284588357883","2,1","THISTLE WEED,THISTLE WEED","190,191.24897499792226","2,1","CORN CROP,CORN CROP","0,0","20,20","10,10","20,20","20,20","20,20","0,0","20,20","10,10","20,20","20,20","20,20","1,1","2940,1216","16.90284588357882,-15.566406324119143","1.2489749979222573,12.441176294345501","0","0"
"409","86","text","0","159","1757442","0-0","","","","","","","","","","","","","","","","","","","","","","","","","","","","","","","","","","","","",""
"","","plant-game","0","160","1764209","0-0","","200","160","1","WHEAT CROP","Right","200","120","1","THISTLE WEED","experimental","67","1","120","1","THISTLE WEED","160","1","WHEAT CROP","0","20","10","20","20","20","0","20","10","20","20","20","1","2182","45.76319942607951","-2.0852658543533025","0","0"
"542","86","text","0","161","1764881","0-0","","","","","","","","","","","","","","","","","","","","","","","","","","","","","","","","","","","","",""
"","","plant-game","0","162","1791403","0-0","","200","190","8","WHEAT CROP","Right","200","180","4","NETTLE WEED","experimental","68","1,2,3,4,5,6,7,8","180,202.05097326354962,187.51085183613066,208.78340032645275,160,179.31026967899646,170.25083026007619,156.14708581186207","4,3,2,1,4,3,2,1","NETTLE WEED,NETTLE WEED,NETTLE WEED,NETTLE WEED,THISTLE WEED,THISTLE WEED,THISTLE WEED,THISTLE WEED","190,205.59150050073578,196.09116009948985,182.92557170336937,187.39579115879627,188.71970459205554,233.5100610053551,257.2169353251557","8,7,6,5,4,3,2,1","WHEAT CROP,WHEAT CROP,WHEAT CROP,WHEAT CROP,WHEAT CROP,WHEAT CROP,WHEAT CROP,WHEAT CROP","0,0,0,0,0,0,0,0","20,20,20,20,20,20,20,20","10,10,10,10,10,10,10,10","20,20,20,20,20,20,20,20","20,20,20,20,20,20,20,20","20,20,20,20,20,20,20,20","0,0,0,0,0,0,0,0","20,20,20,20,20,20,20,20","10,10,10,10,10,10,10,10","20,20,20,20,20,20,20,20","20,20,20,20,20,20,20,20","20,20,20,20,20,20,20,20","1,0,0,0,1,1,0,0","2986,4752,1866,1519,3021,1040,1214,578","22.05097326354961,-14.540121427418962,21.272548490322094,-7.740998150442383,19.31026967899646,-9.059439418920277,-14.103744448214126,23.511332414604688","15.591500500735783,-9.500340401245932,-13.16558839612048,4.470219455426913,1.3239134332592712,44.79035641329958,23.706874319800608,9.481622832207742","0","0"
"1446","86","text","0","163","1792939","0-0","","","","","","","","","","","","","","","","","","","","","","","","","","","","","","","","","","","","",""
"","","plant-game","0","164","1804390","0-0","","200","120","8","CORN CROP","Right","200","180","4","THISTLE WEED","experimental","69","1,2,3,4,5,6,7,8","180,161.5619412956963,199.3746495139476,186.92092459553075,160,160.68341026831308,172.2889523131644,178.8200447035008","4,3,2,1,4,3,2,1","THISTLE WEED,THISTLE WEED,THISTLE WEED,THISTLE WEED,NETTLE WEED,NETTLE WEED,NETTLE WEED,NETTLE WEED","120,134.69900106287645,119.6503383603777,121.38232470452569,160.90194768014476,193.82223410625423,240.06916879444117,210.75556003387086","8,7,6,5,4,3,2,1","CORN CROP,CORN CROP,CORN CROP,CORN CROP,CORN CROP,CORN CROP,CORN CROP,CORN CROP","0,0,0,0,0,0,0,0","20,20,20,20,20,20,20,20","10,10,10,10,10,10,10,10","20,20,20,20,20,20,20,20","20,20,20,20,20,20,20,20","20,20,20,20,20,20,20,20","0,0,0,0,0,0,0,0","20,20,20,20,20,20,20,20","10,10,10,10,10,10,10,10","20,20,20,20,20,20,20,20","20,20,20,20,20,20,20,20","20,20,20,20,20,20,20,20","0,0,0,0,1,1,0,0","2036,725,747,598,761,434,650,730","-18.438058704303696,37.8127082182513,-12.453724918416851,10.337717700376711,0.6834102683130929,11.605542044851319,6.531092390336388,1.2136052061088642","14.699001062876459,-15.04866270249874,1.7319863441479886,39.519622975619086,32.92028642610947,46.246934688186954,-29.313608760570308,25.166583469866378","0","0"
"418","86","text","0","165","1804938","0-0","","","","","","","","","","","","","","","","","","","","","","","","","","","","","","","","","","","","",""
"","","plant-game","0","166","1818281","0-0","","200","120","1","WHEAT CROP","Left","200","180","4","NETTLE WEED","experimental","70","1,2,3,4","120,170,155.4680843830241,176.04309482428383","1,3,2,1","WHEAT CROP,CORN CROP,CORN CROP,CORN CROP","180,198.78922151093028,182.81419688745342,178.74837785418939","4,3,2,1","NETTLE WEED,NETTLE WEED,NETTLE WEED,NETTLE WEED","20,20,20,20","20,20,20,20","10,10,10,10","20,20,20,20","0,0,0,0","20,20,20,20","20,20,20,20","20,20,20,20","10,10,10,10","20,20,20,20","0,0,0,0","20,20,20,20","0,1,1,1","4149,3219,722,540","6.201849723929211,-14.531915616975919,20.575010441259746,-45.74326213503036","18.789221510930282,-15.975024623476852,-4.065819033264047,-16.169967387223995","0","0"
"381","86","text","0","167","1818803","0-0","","","","","","","","","","","","","","","","","","","","","","","","","","","","","","","","","","","","",""
"","","plant-game","0","168","1826704","0-0","","200","180","4","CORN CROP","Left","200","160","4","THISTLE WEED","experimental","71","1,2,3,4","180,221.09687772993695,236.29383659618844,280.6223215855516","4,3,2,1","CORN CROP,CORN CROP,CORN CROP,CORN CROP","160,180.33094890412042,161.61381733846707,140.37412216543953","4,3,2,1","THISTLE WEED,THISTLE WEED,THISTLE WEED,THISTLE WEED","20,20,20,20","20,20,20,20","10,10,10,10","20,20,20,20","0,0,0,0","20,20,20,20","20,20,20,20","20,20,20,20","10,10,10,10","20,20,20,20","0,0,0,0","20,20,20,20","0,1,1,1","1756,995,1353,845","41.09687772993695,15.196958866251482,44.3284849893632,-12.12330513035953","20.330948904120426,-18.717131565653343,-21.239695173027528,-1.5657767413135582","0","0"
"196","86","text","0","169","1827010","0-0","","","","","","","","","","","","","","","","","","","","","","","","","","","","","","","","","","","","",""
"","","plant-game","0","170","1837884","0-0","","200","190","4","CORN CROP","Right","200","180","1","THISTLE WEED","experimental","72","1,2,3,4","180,170,178.49307093833357,196.56048999932773","1,3,2,1","THISTLE WEED,NETTLE WEED,NETTLE WEED,NETTLE WEED","190,208.39975891386416,237.8551290153051,252.98918154738456","4,3,2,1","CORN CROP,CORN CROP,CORN CROP,CORN CROP","0,0,0,0","20,20,20,20","10,10,10,10","20,20,20,20","20,20,20,20","20,20,20,20","0,0,0,0","20,20,20,20","10,10,10,10","20,20,20,20","20,20,20,20","20,20,20,20","1,1,0,0","1871,1977,773,922","26.77688998821763,8.49307093833357,18.06741906099415,16.883411033621048","18.399758913864165,29.45537010144094,15.134052532079457,13.328497742007972","0","0"
"186","86","text","0","171","1838190","0-0","","","","","","","","","","","","","","","","","","","","","","","","","","","","","","","","","","","","",""
"","","plant-game","0","172","1852620","0-0","","200","120","8","CORN CROP","Left","200","160","8","NETTLE WEED","experimental","73","1,2,3,4,5,6,7,8","120,115.77913949946388,85.98570830560737,72.72087957647258,41.1321646560789,40.93513442910009,28.950030770772884,48.156651309030615","8,7,6,5,4,3,2,1","CORN CROP,CORN CROP,CORN CROP,CORN CROP,CORN CROP,CORN CROP,CORN CROP,CORN CROP","160,136.10272358899545,148.51701742870188,134.0599507176239,141.78923388601868,184.4673269320444,149.34268392604923,152.55360501413242","8,7,6,5,4,3,2,1","NETTLE WEED,NETTLE WEED,NETTLE WEED,NETTLE WEED,NETTLE WEED,NETTLE WEED,NETTLE WEED,NETTLE WEED","20,20,20,20,20,20,20,20","20,20,20,20,20,20,20,20","10,10,10,10,10,10,10,10","20,20,20,20,20,20,20,20","0,0,0,0,0,0,0,0","20,20,20,20,20,20,20,20","20,20,20,20,20,20,20,20","20,20,20,20,20,20,20,20","10,10,10,10,10,10,10,10","20,20,20,20,20,20,20,20","0,0,0,0,0,0,0,0","20,20,20,20,20,20,20,20","1,1,0,1,1,1,1,1","1694,519,1295,4184,452,536,1221,393","-4.220860500536123,-29.793431193856502,-13.264828729134798,-31.588714920393688,-0.1970302269788129,-11.985103658327205,19.20662053825773,2.543101685156286","-23.89727641100457,12.414293839706422,-14.457066711077985,7.729283168394784,42.678093046025694,-35.12464300599517,3.2109210880831722,10.059021905487786","0","0"
"2512","86","text","0","173","1855256","0-0","","","","","","","","","","","","","","","","","","","","","","","","","","","","","","","","","","","","",""
"","","plant-game","0","174","1866613","0-0","","200","190","1","WHEAT CROP","Left","200","160","2","THISTLE WEED","experimental","74","1,2","190,190","1,1","WHEAT CROP,CORN CROP","160,159.76982240475036","2,1","THISTLE WEED,THISTLE WEED","20,20","20,20","10,10","20,20","0,0","20,20","20,20","20,20","10,10","20,20","0,0","20,20","0,1","4702,1308","14.57311628251519,-6.137222073170702","-0.23017759524964987,14.355888065733316","0","0"
"596","86","text","0","175","1867349","0-0","","","","","","","","","","","","","","","","","","","","","","","","","","","","","","","","","","","","",""
"","","plant-game","0","176","1879556","0-0","","200","180","4","CORN CROP","Left","200","120","2","NETTLE WEED","experimental","75","1,2,3,4","180,183.87835092519035,228.465631828629,219.4784777901144","4,3,2,1","CORN CROP,CORN CROP,CORN CROP,CORN CROP","120,156.32528231884282,180,198.71724129973765","2,1,2,1","NETTLE WEED,NETTLE WEED,THISTLE WEED,THISTLE WEED","20,20,20,20","20,20,20,20","10,10,10,10","20,20,20,20","0,0,0,0","20,20,20,20","20,20,20,20","20,20,20,20","10,10,10,10","20,20,20,20","0,0,0,0","20,20,20,20","0,0,1,1","2609,1184,2249,1229","3.878350925190336,44.58728090343865,-8.98715403851461,-23.765565830957883","36.32528231884282,31.55539882100251,18.717241299737662,-48.89541481819063","0","0"
"539","86","text","0","177","1880225","0-0","","","","","","","","","","","","","","","","","","","","","","","","","","","","","","","","","","","","",""
"","","plant-game","0","178","1889141","0-0","","200","120","2","CORN CROP","Left","200","190","1","THISTLE WEED","experimental","76","1,2","120,143.92090550194266","2,1","CORN CROP,CORN CROP","190,190","1,1","THISTLE WEED,NETTLE WEED","20,20","20,20","10,10","20,20","0,0","20,20","20,20","20,20","10,10","20,20","0,0","20,20","0,0","1941,1027","23.920905501942666,32.896006895464","-6.255379203775053,35.621404270883055","0","0"
"587","86","text","0","179","1889866","0-0","","","","","","","","","","","","","","","","","","","","","","","","","","","","","","","","","","","","",""
"","","plant-game","0","180","1914148","0-0","","200","190","4","WHEAT CROP","Right","200","190","8","NETTLE WEED","experimental","77","1,2,3,4,5,6,7,8","190,216.76789432662957,264.21547796060116,242.49655806663839,304.8783748755316,349.09596213792327,360.84120030074837,376.18249659889585","8,7,6,5,4,3,2,1","NETTLE WEED,NETTLE WEED,NETTLE WEED,NETTLE WEED,NETTLE WEED,NETTLE WEED,NETTLE WEED,NETTLE WEED","190,176.5932559702923,158.08152119648608,176.93088211823084,160,153.33752843259936,148.22593877923634,131.4241837089019","4,3,2,1,4,3,2,1","WHEAT CROP,WHEAT CROP,WHEAT CROP,WHEAT CROP,CORN CROP,CORN CROP,CORN CROP,CORN CROP","0,0,0,0,0,0,0,0","20,20,20,20,20,20,20,20","10,10,10,10,10,10,10,10","20,20,20,20,20,20,20,20","20,20,20,20,20,20,20,20","20,20,20,20,20,20,20,20","0,0,0,0,0,0,0,0","20,20,20,20,20,20,20,20","10,10,10,10,10,10,10,10","20,20,20,20,20,20,20,20","20,20,20,20,20,20,20,20","20,20,20,20,20,20,20,20","1,1,1,1,0,0,1,1","6326,4350,877,568,1985,577,3194,98","26.767894326629573,47.44758363397159,-21.718919893962784,62.381816808893255,44.21758726239162,11.745238162825114,15.341296298147487,44.02039259858341","-13.40674402970771,-18.511734773806218,18.849360921744747,44.539435912270264,-6.662471567400657,-5.111589653363024,-16.80175507033445,-8.146154170335347","0","0"
"449","86","text","0","181","1914767","0-0","","","","","","","","","","","","","","","","","","","","","","","","","","","","","","","","","","","","",""
"","","plant-game","0","182","1951580","0-0","","200","160","2","WHEAT CROP","Left","200","160","1","THISTLE WEED","experimental","78","1,2","160,162.76922144430708","2,1","WHEAT CROP,WHEAT CROP","160,190","1,1","THISTLE WEED,NETTLE WEED","20,20","20,20","10,10","20,20","0,0","20,20","20,20","20,20","10,10","20,20","0,0","20,20","1,1","27510,4434","2.769221444307065,-10.459934651905943","24.870806307067667,-13.658276000349524","0","0"
"798","86","text","0","183","1952518","0-0","","","","","","","","","","","","","","","","","","","","","","","","","","","","","","","","","","","","",""
"","","plant-game","0","184","1989459","0-0","","200","180","2","CORN CROP","Right","200","190","8","NETTLE WEED","experimental","79","1,2,3,4,5,6,7,8","190,185.88818474920663,212.21256754753335,257.58877330126353,236.73585294445377,229.02603514372845,209.84253000283286,211.86073276410474","8,7,6,5,4,3,2,1","NETTLE WEED,NETTLE WEED,NETTLE WEED,NETTLE WEED,NETTLE WEED,NETTLE WEED,NETTLE WEED,NETTLE WEED","180,211.61469483411855,140,133.64309907462973,152.22273587449638,164.12477091226887,132.89436589167642,134.70391049641782","2,1,6,5,4,3,2,1","CORN CROP,CORN CROP,WHEAT CROP,WHEAT CROP,WHEAT CROP,WHEAT CROP,WHEAT CROP,WHEAT CROP","0,0,0,0,0,0,0,0","20,20,20,20,20,20,20,20","10,10,10,10,10,10,10,10","20,20,20,20,20,20,20,20","20,20,20,20,20,20,20,20","20,20,20,20,20,20,20,20","0,0,0,0,0,0,0,0","20,20,20,20,20,20,20,20","10,10,10,10,10,10,10,10","20,20,20,20,20,20,20,20","20,20,20,20,20,20,20,20","20,20,20,20,20,20,20,20","1,1,0,0,0,0,0,0","23987,363,3329,625,356,317,416,416","-4.111815250793384,26.324382798326717,45.3762057537302,-20.852920356809776,-7.7098178007253075,-19.18350514089558,2.018202761271872,11.458134278739529","31.614694834118556,8.653414732001078,-6.356900925370265,18.57963679986665,11.902035037772498,-31.230405020592464,1.809544604741404,17.621995511810404","0","0"
"429","86","text","0","185","1990048","0-0","","","","","","","","","","","","","","","","","","","","","","","","","","","","","","","","","","","","",""
"","","plant-game","0","186","1997143","0-0","","200","120","1","WHEAT CROP","Left","200","120","1","THISTLE WEED","experimental","80","1","120","1","WHEAT CROP","120","1","THISTLE WEED","20","20","10","20","0","20","20","20","10","20","0","20","0","3766","10.521852134981607","58.08032055397994","0","0"
"943","86","text","0","187","1998257","0-0","","","","","","","","","","","","","","","","","","","","","","","","","","","","","","","","","","","","",""
"","","plant-game","0","188","2013227","0-0","","200","120","1","WHEAT CROP","Left","200","120","4","NETTLE WEED","experimental","81","1,2,3,4","120,170,206.23652158076789,226.96757175881658","1,3,2,1","WHEAT CROP,CORN CROP,CORN CROP,CORN CROP","120,148.96278969156373,243.84909893878947,256.019188192837","4,3,2,1","NETTLE WEED,NETTLE WEED,NETTLE WEED,NETTLE WEED","20,20,20,20","20,20,20,20","10,10,10,10","20,20,20,20","0,0,0,0","20,20,20,20","20,20,20,20","20,20,20,20","10,10,10,10","20,20,20,20","0,0,0,0","20,20,20,20","0,0,1,0","4702,1585,1769,2403","60.68551220213611,36.236521580767885,20.731050178048697,23.896815094099487","28.962789691563724,94.88630924722574,12.170089254047543,-0.9488869401709188","0","0"
"646","86","text","0","189","2013993","0-0","","","","","","","","","","","","","","","","","","","","","","","","","","","","","","","","","","","","",""
"","","plant-game","0","190","2020602","0-0","","200","120","2","WHEAT CROP","Left","200","160","2","THISTLE WEED","experimental","82","1,2","120,118.98476667866825","2,1","WHEAT CROP,WHEAT CROP","160,152.41675607261118","2,1","THISTLE WEED,THISTLE WEED","20,20","20,20","10,10","20,20","0,0","20,20","20,20","20,20","10,10","20,20","0,0","20,20","0,0","3269,340","-1.0152333213317561,20.7683257620754","-7.583243927388814,38.020219563304444","0","0"
"542","86","text","0","191","2021284","0-0","","","","","","","","","","","","","","","","","","","","","","","","","","","","","","","","","","","","",""
"","","plant-game","0","192","2027831","0-0","","200","190","2","WHEAT CROP","Left","200","190","2","THISTLE WEED","experimental","83","1,2","190,204.21388424908153","2,1","WHEAT CROP,WHEAT CROP","190,220.5352395497492","2,1","THISTLE WEED,THISTLE WEED","20,20","20,20","10,10","20,20","0,0","20,20","20,20","20,20","10,10","20,20","0,0","20,20","0,0","2867,289","14.213884249081538,-7.788212381142387","30.535239549749214,4.992892736328976","0","0"
"537","86","text","0","193","2028488","0-0","","","","","","","","","","","","","","","","","","","","","","","","","","","","","","","","","","","","",""
