"rt","key_press","trial_type","trial_index","trial_index_global","time_elapsed","internal_chunk_id","responses","experimental_goal_height","experimental_start_height","experimental_weeks_total","experimental_crop_type","experimental_crop_side","fixed_goal_height","fixed_start_height","fixed_weeks_total","fixed_crop_type","trial_kind","trial_number","stage","left_current_height","left_weeks_remaining","left_crop_type","right_current_height","right_weeks_remaining","right_crop_type","mean_left_growth_given_left","sd_left_growth_given_left","mean_left_growth_given_middle","sd_left_growth_given_middle","mean_left_growth_given_right","sd_left_growth_given_right","mean_right_growth_given_left","sd_right_growth_given_left","mean_right_growth_given_middle","sd_right_growth_given_middle","mean_right_growth_given_right","sd_right_growth_given_right","response","response_time","left_growth","right_growth","other_key_pressed","mouse_clicked"
"5975672","77","text","0","0","5975768","0-0","","","","","","","","","","","","","","","","","","","","","","","","","","","","","","","","","","","","",""
"10374","","survey-text","0","1","5987177","0-0","{""Q0"":""19""}","","","","","","","","","","","","","","","","","","","","","","","","","","","","","","","","","","","",""
"4359","86","text","0","2","4484","0-0","","","","","","","","","","","","","","","","","","","","","","","","","","","","","","","","","","","","",""
"","","plant-game","0","3","80253","0-0","","200","120","8","WHEAT CROP","Left","200","120","8","THISTLE WEED","practice","1","1,2,3,4,5,6,7,8","120,193.49479789386137,146.40063630837503,131.70555139127316,133.9642588652041,139.018174646829,179.77797490622373,171.72852188525997","8,7,6,5,4,3,2,1","WHEAT CROP,WHEAT CROP,WHEAT CROP,WHEAT CROP,WHEAT CROP,WHEAT CROP,WHEAT CROP,WHEAT CROP","120,136.82472466907723,165.0518118883175,199.59154526945483,170.29707963582706,181.26949806748706,166.85313227654004,181.2268640247023","8,7,6,5,4,3,2,1","THISTLE WEED,THISTLE WEED,THISTLE WEED,THISTLE WEED,THISTLE WEED,THISTLE WEED,THISTLE WEED,THISTLE WEED","20,20,20,20,20,20,20,20","20,20,20,20,20,20,20,20","10,10,10,10,10,10,10,10","20,20,20,20,20,20,20,20","0,0,0,0,0,0,0,0","20,20,20,20,20,20,20,20","20,20,20,20,20,20,20,20","20,20,20,20,20,20,20,20","10,10,10,10,10,10,10,10","20,20,20,20,20,20,20,20","0,0,0,0,0,0,0,0","20,20,20,20,20,20,20,20","0,1,1,1,1,1,1,0","10835,8008,5222,5498,3613,3257,4819,2923","73.49479789386137,-47.09416158548635,-14.695084917101877,2.2587074739309396,5.053915781624907,40.75980025939474,-8.049453020963753,11.319764242443707","16.82472466907722,28.227087219240275,34.53973338113733,-29.294465633627752,10.97241843166,-14.416365790947017,14.373731748162275,18.97499795472585","0","0"
"1001","86","text","0","4","81414","0-0","","","","","","","","","","","","","","","","","","","","","","","","","","","","","","","","","","","","",""
"","","plant-game","0","5","107087","0-0","","200","160","4","WHEAT CROP","Left","200","160","4","NETTLE WEED","practice","2","1,2,3,4","160,160.41450790021563,198.80026806250225,181.3132496952506","4,3,2,1","WHEAT CROP,WHEAT CROP,WHEAT CROP,WHEAT CROP","160,193.96413676506864,241.67361256363876,265.76533086848156","4,3,2,1","NETTLE WEED,NETTLE WEED,NETTLE WEED,NETTLE WEED","20,20,20,20","20,20,20,20","10,10,10,10","20,20,20,20","0,0,0,0","20,20,20,20","20,20,20,20","20,20,20,20","10,10,10,10","20,20,20,20","0,0,0,0","20,20,20,20","0,1,1,1","3295,1670,4210,2219","0.414507900215618,38.385760162286616,-17.487018367251668,-12.389549048525135","33.964136765068645,47.709475798570125,24.09171830484277,9.81819744954442","0","0"
"638","86","text","0","6","107875","0-0","","","","","","","","","","","","","","","","","","","","","","","","","","","","","","","","","","","","",""
"","","plant-game","0","7","133950","0-0","","200","180","2","CORN CROP","Right","200","180","2","THISTLE WEED","practice","3","1,2","180,213.88786955831966","2,1","THISTLE WEED,THISTLE WEED","180,190.28348199041403","2,1","CORN CROP,CORN CROP","0,0","20,20","10,10","20,20","20,20","20,20","0,0","20,20","10,10","20,20","20,20","20,20","1,0","673,1920","33.88786955831965,5.291628352922146","10.283481990414025,14.526101134481088","0","0"
"575","86","text","0","8","134695","0-0","","","","","","","","","","","","","","","","","","","","","","","","","","","","","","","","","","","","",""
"","","plant-game","0","9","150304","0-0","","200","190","1","WHEAT CROP","Left","200","190","1","NETTLE WEED","practice","4","1","190","1","WHEAT CROP","190","1","NETTLE WEED","20","20","10","20","0","20","20","20","10","20","0","20","0","595","15.287753553093639","39.03832685035745","0","0"
"510","86","text","0","10","150984","0-0","","","","","","","","","","","","","","","","","","","","","","","","","","","","","","","","","","","","",""
"","","plant-game","0","11","170560","0-0","","200","120","8","CORN CROP","Left","200","160","8","THISTLE WEED","practice","5","1,2,3,4,5,6,7,8","120,143.9361445693534,171.3564679869891,208.2544417217691,173.4326685113608,195.18831349384027,210.3835110199822,207.63865896508244","8,7,6,5,4,3,2,1","CORN CROP,CORN CROP,CORN CROP,CORN CROP,CORN CROP,CORN CROP,CORN CROP,CORN CROP","160,122.27588351605145,164.79692377156294,208.945981707699,211.84072270963196,235.15549307372984,275.0651874201797,336.0683755681662","8,7,6,5,4,3,2,1","THISTLE WEED,THISTLE WEED,THISTLE WEED,THISTLE WEED,THISTLE WEED,THISTLE WEED,THISTLE WEED,THISTLE WEED","20,20,20,20,20,20,20,20","20,20,20,20,20,20,20,20","10,10,10,10,10,10,10,10","20,20,20,20,20,20,20,20","0,0,0,0,0,0,0,0","20,20,20,20,20,20,20,20","20,20,20,20,20,20,20,20","20,20,20,20,20,20,20,20","10,10,10,10,10,10,10,10","20,20,20,20,20,20,20,20","0,0,0,0,0,0,0,0","20,20,20,20,20,20,20,20","1,0,0,1,0,0,0,0","379,1372,439,2640,1057,531,1566,305","23.93614456935339,27.420323417635693,36.89797373478001,-34.82177321040832,21.755644982479467,15.195197526141929,-2.7448520548997557,15.281387528515172","-37.72411648394855,42.521040255511494,44.14905793613606,2.8947410019329722,23.31477036409787,39.90969434644988,61.00318814798644,27.418151185080287","0","0"
"501","86","text","0","12","171251","0-0","","","","","","","","","","","","","","","","","","","","","","","","","","","","","","","","","","","","",""
"","","plant-game","0","13","185715","0-0","","200","180","4","CORN CROP","Right","200","160","4","THISTLE WEED","practice","6","1,2,3,4","160,165.42683926129249,194.84884291293343,213.55380691078858","4,3,2,1","THISTLE WEED,THISTLE WEED,THISTLE WEED,THISTLE WEED","180,160.97202300332003,175.68528853733469,160.9538032904165","4,3,2,1","CORN CROP,CORN CROP,CORN CROP,CORN CROP","0,0,0,0","20,20,20,20","10,10,10,10","20,20,20,20","20,20,20,20","20,20,20,20","0,0,0,0","20,20,20,20","10,10,10,10","20,20,20,20","20,20,20,20","20,20,20,20","0,1,0,0","2131,1172,3058,1858","5.426839261292487,29.422003651640935,18.70496399785514,16.0578283015882","-19.02797699667996,14.713265534014662,-14.731485246918206,-1.2099684156527495","0","0"
"112","86","text","0","14","185998","0-0","","","","","","","","","","","","","","","","","","","","","","","","","","","","","","","","","","","","",""
"","","plant-game","0","15","197249","0-0","","200","180","2","CORN CROP","Left","200","190","2","THISTLE WEED","practice","7","1,2","180,225.2639277718589","2,1","CORN CROP,CORN CROP","190,229.0959686413815","2,1","THISTLE WEED,THISTLE WEED","20,20","20,20","10,10","20,20","0,0","20,20","20,20","20,20","10,10","20,20","0,0","20,20","0,0","2591,3113","45.26392777185889,-0.7061953540063328","39.095968641381475,29.305928836215973","0","0"
"404","86","text","0","16","197833","0-0","","","","","","","","","","","","","","","","","","","","","","","","","","","","","","","","","","","","",""
"","","plant-game","0","17","229453","0-0","","200","120","4","WHEAT CROP","Left","200","120","8","NETTLE WEED","practice","8","1,2,3,4,5,6,7,8","120,119.15774525574784,113.38531805934365,154.7579119242024,160,174.55035242085162,193.58252606891693,241.97696526852164","4,3,2,1,4,3,2,1","WHEAT CROP,WHEAT CROP,WHEAT CROP,WHEAT CROP,CORN CROP,CORN CROP,CORN CROP,CORN CROP","120,143.33133816970786,149.26100511195705,173.92605137539172,197.73544946279196,232.75914281481423,238.13143579829014,261.00968071297154","8,7,6,5,4,3,2,1","NETTLE WEED,NETTLE WEED,NETTLE WEED,NETTLE WEED,NETTLE WEED,NETTLE WEED,NETTLE WEED,NETTLE WEED","20,20,20,20,20,20,20,20","20,20,20,20,20,20,20,20","10,10,10,10,10,10,10,10","20,20,20,20,20,20,20,20","0,0,0,0,0,0,0,0","20,20,20,20,20,20,20,20","20,20,20,20,20,20,20,20","20,20,20,20,20,20,20,20","10,10,10,10,10,10,10,10","20,20,20,20,20,20,20,20","0,0,0,0,0,0,0,0","20,20,20,20,20,20,20,20","1,1,0,0,0,0,0,0","4797,1531,1597,742,6412,1349,2888,2646","-0.8422547442521549,-5.772427196404192,41.37259386485877,39.43520295292214,14.550352420851613,19.032173648065324,48.394439199604705,22.283172327837807","23.331338169707866,5.929666942249182,24.665046263434668,23.80939808740024,35.02369335202227,5.372292983475921,22.878244914681417,1.5390937514994398","0","0"
"471","86","text","0","18","230105","0-0","","","","","","","","","","","","","","","","","","","","","","","","","","","","","","","","","","","","",""
"","","plant-game","0","19","253473","0-0","","200","160","4","WHEAT CROP","Left","200","160","2","NETTLE WEED","practice","9","1,2,3,4","160,209.61817843259945,212.1956338033978,190.97776057281123","4,3,2,1","WHEAT CROP,WHEAT CROP,WHEAT CROP,WHEAT CROP","160,159.48456614857596,180,112.79508171531002","2,1,2,1","NETTLE WEED,NETTLE WEED,THISTLE WEED,THISTLE WEED","20,20,20,20","20,20,20,20","10,10,10,10","20,20,20,20","0,0,0,0","20,20,20,20","20,20,20,20","20,20,20,20","10,10,10,10","20,20,20,20","0,0,0,0","20,20,20,20","0,1,1,0","3188,1580,4345,1281","49.61817843259946,2.5774553707983756,-21.21787323058659,47.419568610097706","-0.5154338514240386,-13.927893149420383,-67.20491828468998,15.425153279001567","0","0"
"841","86","text","0","20","254494","0-0","","","","","","","","","","","","","","","","","","","","","","","","","","","","","","","","","","","","",""
"","","plant-game","0","21","280231","0-0","","200","180","2","CORN CROP","Right","200","180","1","NETTLE WEED","practice","10","1,2","180,190","1,1","NETTLE WEED,THISTLE WEED","180,188.08569779246017","2,1","CORN CROP,CORN CROP","0,0","20,20","10,10","20,20","20,20","20,20","0,0","20,20","10,10","20,20","20,20","20,20","0,1","571,1186","-8.095976688680821,31.438884572858353","8.085697792460174,27.58674174214364","0","0"
"418","86","text","0","22","280839","0-0","","","","","","","","","","","","","","","","","","","","","","","","","","","","","","","","","","","","",""
"","","plant-game","0","23","312276","0-0","","200","120","8","WHEAT CROP","Right","200","160","4","THISTLE WEED","practice","11","1,2,3,4,5,6,7,8","160,165.5392562210184,158.9705484837024,140.64050252601206,160,154.70040171139163,108.27860348723216,130.52315631540336","4,3,2,1,4,3,2,1","THISTLE WEED,THISTLE WEED,THISTLE WEED,THISTLE WEED,NETTLE WEED,NETTLE WEED,NETTLE WEED,NETTLE WEED","120,140.1839427065906,141.12564047686413,151.6973993282903,114.76664909195289,150.0662284993508,153.40970628633306,201.8812269491297","8,7,6,5,4,3,2,1","WHEAT CROP,WHEAT CROP,WHEAT CROP,WHEAT CROP,WHEAT CROP,WHEAT CROP,WHEAT CROP,WHEAT CROP","0,0,0,0,0,0,0,0","20,20,20,20,20,20,20,20","10,10,10,10,10,10,10,10","20,20,20,20,20,20,20,20","20,20,20,20,20,20,20,20","20,20,20,20,20,20,20,20","0,0,0,0,0,0,0,0","20,20,20,20,20,20,20,20","10,10,10,10,10,10,10,10","20,20,20,20,20,20,20,20","20,20,20,20,20,20,20,20","20,20,20,20,20,20,20,20","0,0,0,0,1,1,1,1","918,2282,1144,1633,1075,1616,939,1875","5.539256221018412,-6.568707737316012,-18.330045957690345,-12.846321787629691,-5.299598288608372,-46.421798224159474,22.24455282817121,26.680988166059542","20.183942706590624,0.941697770273527,10.571758851426154,-36.9307502363374,35.299579407397914,3.3434777869822554,48.47152066279666,15.689819845274263","0","0"
"655","86","text","0","24","313101","0-0","","","","","","","","","","","","","","","","","","","","","","","","","","","","","","","","","","","","",""
"","","plant-game","0","25","342917","0-0","","200","180","2","CORN CROP","Right","200","160","4","NETTLE WEED","practice","12","1,2,3,4","160,175.56579492717498,193.55203331314357,232.1422475125855","4,3,2,1","NETTLE WEED,NETTLE WEED,NETTLE WEED,NETTLE WEED","180,220.34235986791114,180,210.61202127051885","2,1,2,1","CORN CROP,CORN CROP,WHEAT CROP,WHEAT CROP","0,0,0,0","20,20,20,20","10,10,10,10","20,20,20,20","20,20,20,20","20,20,20,20","0,0,0,0","20,20,20,20","10,10,10,10","20,20,20,20","20,20,20,20","20,20,20,20","1,0,1,0","987,2217,7697,5187","15.565794927174977,17.986238385968598,38.59021419944194,-2.6497217914823596","40.34235986791114,-11.447618959505503,30.612021270518852,16.241774912478725","0","0"
"2327","86","text","0","26","345384","0-0","","","","","","","","","","","","","","","","","","","","","","","","","","","","","","","","","","","","",""
"14793","86","text","0","27","361403","0-0","","","","","","","","","","","","","","","","","","","","","","","","","","","","","","","","","","","","",""
"","","plant-game","0","28","373012","0-0","","200","180","4","WHEAT CROP","Left","200","160","4","THISTLE WEED","experimental","1","1,2,3,4","180,194.27191905449297,222.250626930295,205.27608454568488","4,3,2,1","WHEAT CROP,WHEAT CROP,WHEAT CROP,WHEAT CROP","160,183.13294655860952,201.4125459002608,185.10230356851673","4,3,2,1","THISTLE WEED,THISTLE WEED,THISTLE WEED,THISTLE WEED","20,20,20,20","20,20,20,20","10,10,10,10","20,20,20,20","0,0,0,0","20,20,20,20","20,20,20,20","20,20,20,20","10,10,10,10","20,20,20,20","0,0,0,0","20,20,20,20","0,0,1,1","2927,987,1219,2183","14.271919054492956,27.978707875802023,-16.974542384610107,-2.5617026924685633","23.132946558609518,18.27959934165129,-16.310242331744053,0.2448406511266142","0","0"
"414","86","text","0","29","373586","0-0","","","","","","","","","","","","","","","","","","","","","","","","","","","","","","","","","","","","",""
"","","plant-game","0","30","389670","0-0","","200","160","4","WHEAT CROP","Right","200","160","1","THISTLE WEED","experimental","2","1,2,3,4","160,170,191.1591462107001,207.68215158320095","1,3,2,1","THISTLE WEED,NETTLE WEED,NETTLE WEED,NETTLE WEED","160,160.04441908133276,192.8431147407987,200.87108970881664","4,3,2,1","WHEAT CROP,WHEAT CROP,WHEAT CROP,WHEAT CROP","0,0,0,0","20,20,20,20","10,10,10,10","20,20,20,20","20,20,20,20","20,20,20,20","0,0,0,0","20,20,20,20","10,10,10,10","20,20,20,20","20,20,20,20","20,20,20,20","1,1,0,0","1774,3103,3098,1534","8.598249677375389,21.159146210700104,16.52300537250085,-18.968360828423258","0.04441908133276584,32.798695659465956,8.027974968017942,21.343361455628454","0","0"
"468","86","text","0","31","390287","0-0","","","","","","","","","","","","","","","","","","","","","","","","","","","","","","","","","","","","",""
"","","plant-game","0","32","407919","0-0","","200","180","1","CORN CROP","Right","200","160","4","NETTLE WEED","experimental","3","1,2,3,4","160,156.695852272262,167.46326812027164,182.81864463254402","4,3,2,1","NETTLE WEED,NETTLE WEED,NETTLE WEED,NETTLE WEED","180,170,213.53288813577214,200.39759373304395","1,3,2,1","CORN CROP,WHEAT CROP,WHEAT CROP,WHEAT CROP","0,0,0,0","20,20,20,20","10,10,10,10","20,20,20,20","20,20,20,20","20,20,20,20","0,0,0,0","20,20,20,20","10,10,10,10","20,20,20,20","20,20,20,20","20,20,20,20","1,1,0,0","3197,3559,1800,3458","-3.304147727738016,10.767415848009657,15.355376512272372,-2.35593479953081","16.105612853889202,43.53288813577213,-13.135294402728183,-0.371523954306029","0","0"
"511","86","text","0","33","408580","0-0","","","","","","","","","","","","","","","","","","","","","","","","","","","","","","","","","","","","",""
"","","plant-game","0","34","418404","0-0","","200","160","1","CORN CROP","Left","200","120","1","NETTLE WEED","experimental","4","1","160","1","CORN CROP","120","1","NETTLE WEED","20","20","10","20","0","20","20","20","10","20","0","20","0","6021","22.767637618242883","45.99050551549679","0","0"
"574","86","text","0","35","419134","0-0","","","","","","","","","","","","","","","","","","","","","","","","","","","","","","","","","","","","",""
"","","plant-game","0","36","440550","0-0","","200","120","8","WHEAT CROP","Right","200","160","1","THISTLE WEED","experimental","5","1,2,3,4,5,6,7,8","160,130,114.55865354550131,110.16704729729076,155.524061620059,177.52023868306074,191.44180719428164,230.94526391107757","1,7,6,5,4,3,2,1","THISTLE WEED,NETTLE WEED,NETTLE WEED,NETTLE WEED,NETTLE WEED,NETTLE WEED,NETTLE WEED,NETTLE WEED","120,117.9313052189579,126.05168665528922,160.2376051148883,180.82161367460384,166.25968862349663,162.25168736479046,195.64677738445477","8,7,6,5,4,3,2,1","WHEAT CROP,WHEAT CROP,WHEAT CROP,WHEAT CROP,WHEAT CROP,WHEAT CROP,WHEAT CROP,WHEAT CROP","0,0,0,0,0,0,0,0","20,20,20,20,20,20,20,20","10,10,10,10,10,10,10,10","20,20,20,20,20,20,20,20","20,20,20,20,20,20,20,20","20,20,20,20,20,20,20,20","0,0,0,0,0,0,0,0","20,20,20,20,20,20,20,20","10,10,10,10,10,10,10,10","20,20,20,20,20,20,20,20","20,20,20,20,20,20,20,20","20,20,20,20,20,20,20,20","0,0,0,0,0,1,1,1","3571,2621,754,497,1301,2720,3422,314","-24.440551919810662,-15.441346454498689,-4.3916062482105485,45.35701432276823,21.99617706300173,13.921568511220897,39.503456716795924,10.78764859282056","-2.0686947810420926,8.120381436331318,34.185918459599094,20.58400855971554,-14.561925051107199,-4.008001258706166,33.395090019664295,14.997080196400978","0","0"
"469","86","text","0","37","441169","0-0","","","","","","","","","","","","","","","","","","","","","","","","","","","","","","","","","","","","",""
"","","plant-game","0","38","453680","0-0","","200","160","2","CORN CROP","Right","200","180","1","THISTLE WEED","experimental","6","1,2","180,190","1,1","THISTLE WEED,NETTLE WEED","160,178.9962131645162","2,1","CORN CROP,CORN CROP","0,0","20,20","10,10","20,20","20,20","20,20","0,0","20,20","10,10","20,20","20,20","20,20","0,0","1818,5064","-0.6510380228349513,-22.281348182145692","18.99621316451621,26.351442102827747","0","0"
"529","86","text","0","39","454405","0-0","","","","","","","","","","","","","","","","","","","","","","","","","","","","","","","","","","","","",""
"","","plant-game","0","40","467492","0-0","","200","180","8","WHEAT CROP","Right","200","180","8","THISTLE WEED","experimental","7","1,2,3,4,5,6,7,8","180,196.84412499932776,177.90774941764258,167.8594762023193,193.41991626232632,191.18929220249956,185.67976480758603,180.80123674805768","8,7,6,5,4,3,2,1","THISTLE WEED,THISTLE WEED,THISTLE WEED,THISTLE WEED,THISTLE WEED,THISTLE WEED,THISTLE WEED,THISTLE WEED","180,215.33750507533574,222.57548113153055,226.95546767538525,233.8388468033627,256.0881267240378,230.41958326299584,218.9912292661996","8,7,6,5,4,3,2,1","WHEAT CROP,WHEAT CROP,WHEAT CROP,WHEAT CROP,WHEAT CROP,WHEAT CROP,WHEAT CROP,WHEAT CROP","0,0,0,0,0,0,0,0","20,20,20,20,20,20,20,20","10,10,10,10,10,10,10,10","20,20,20,20,20,20,20,20","20,20,20,20,20,20,20,20","20,20,20,20,20,20,20,20","0,0,0,0,0,0,0,0","20,20,20,20,20,20,20,20","10,10,10,10,10,10,10,10","20,20,20,20,20,20,20,20","20,20,20,20,20,20,20,20","20,20,20,20,20,20,20,20","1,0,0,0,0,0,0,0","2423,2781,542,303,156,976,585,216","16.844124999327764,-18.936375581685176,-10.04827321532326,25.56044006000702,-2.2306240598267686,-5.509527394913533,-4.87852805952835,-21.249110662323652","35.337505075335756,7.237976056194811,4.379986543854706,6.883379127977454,22.249279920675068,-25.668543461041963,-11.428353996796233,-16.048690526584735","0","0"
"593","86","text","0","41","468265","0-0","","","","","","","","","","","","","","","","","","","","","","","","","","","","","","","","","","","","",""
"","","plant-game","0","42","480488","0-0","","200","160","8","WHEAT CROP","Right","200","180","8","NETTLE WEED","experimental","8","1,2,3,4,5,6,7,8","180,134.98042129432875,147.21264207932512,182.6898750596668,167.46933590987422,157.584686076441,145.86553015422592,140.123392842981","8,7,6,5,4,3,2,1","NETTLE WEED,NETTLE WEED,NETTLE WEED,NETTLE WEED,NETTLE WEED,NETTLE WEED,NETTLE WEED,NETTLE WEED","160,151.88683945750284,141.42631155674022,125.17667016625019,136.6031506839358,148.10960962209077,156.98946513848026,199.52509685974317","8,7,6,5,4,3,2,1","WHEAT CROP,WHEAT CROP,WHEAT CROP,WHEAT CROP,WHEAT CROP,WHEAT CROP,WHEAT CROP,WHEAT CROP","0,0,0,0,0,0,0,0","20,20,20,20,20,20,20,20","10,10,10,10,10,10,10,10","20,20,20,20,20,20,20,20","20,20,20,20,20,20,20,20","20,20,20,20,20,20,20,20","0,0,0,0,0,0,0,0","20,20,20,20,20,20,20,20","10,10,10,10,10,10,10,10","20,20,20,20,20,20,20,20","20,20,20,20,20,20,20,20","20,20,20,20,20,20,20,20","0,0,0,0,0,0,1,1","4908,77,75,89,607,831,766,910","-45.01957870567126,12.232220784996372,35.47723298034167,-15.220539149792582,-9.884649833433231,-11.719155922215062,-5.742137311244942,30.877762404582263","-8.113160542497157,-10.460527900762628,-16.249641390490027,11.426480517685624,11.506458938154962,8.87985551638947,42.53563172126292,36.579806562710814","0","0"
"419","86","text","0","43","481057","0-0","","","","","","","","","","","","","","","","","","","","","","","","","","","","","","","","","","","","",""
"","","plant-game","0","44","489282","0-0","","200","190","1","CORN CROP","Left","200","180","1","NETTLE WEED","experimental","9","1","190","1","CORN CROP","180","1","NETTLE WEED","20","20","10","20","0","20","20","20","10","20","0","20","0","4117","23.21675179507388","30.409251615297123","0","0"
"399","86","text","0","45","489844","0-0","","","","","","","","","","","","","","","","","","","","","","","","","","","","","","","","","","","","",""
"","","plant-game","0","46","501700","0-0","","200","190","2","WHEAT CROP","Left","200","190","1","THISTLE WEED","experimental","10","1,2","190,177.9316349581115","2,1","WHEAT CROP,WHEAT CROP","190,190","1,1","THISTLE WEED,NETTLE WEED","20,20","20,20","10,10","20,20","0,0","20,20","20,20","20,20","10,10","20,20","0,0","20,20","1,0","3682,3290","-12.068365041888518,-21.145220303169403","10.782975694900756,26.347867353922624","0","0"
"590","86","text","0","47","502450","0-0","","","","","","","","","","","","","","","","","","","","","","","","","","","","","","","","","","","","",""
"","","plant-game","0","48","511991","0-0","","200","190","8","CORN CROP","Left","200","120","8","NETTLE WEED","experimental","11","1,2,3,4,5,6,7,8","190,205.82655778435523,202.87614309232515,185.54367378967564,141.01027772359856,122.72050818611291,162.59753066957708,199.64216850373515","8,7,6,5,4,3,2,1","CORN CROP,CORN CROP,CORN CROP,CORN CROP,CORN CROP,CORN CROP,CORN CROP,CORN CROP","120,119.95888557035357,100.55749515147188,78.03599130626463,94.147905504706,86.53531816468498,97.74491017105339,109.85484512573409","8,7,6,5,4,3,2,1","NETTLE WEED,NETTLE WEED,NETTLE WEED,NETTLE WEED,NETTLE WEED,NETTLE WEED,NETTLE WEED,NETTLE WEED","20,20,20,20,20,20,20,20","20,20,20,20,20,20,20,20","10,10,10,10,10,10,10,10","20,20,20,20,20,20,20,20","0,0,0,0,0,0,0,0","20,20,20,20,20,20,20,20","20,20,20,20,20,20,20,20","20,20,20,20,20,20,20,20","10,10,10,10,10,10,10,10","20,20,20,20,20,20,20,20","0,0,0,0,0,0,0,0","20,20,20,20,20,20,20,20","1,1,1,1,1,0,0,0","3018,1562,82,74,78,963,55,78","15.82655778435522,-2.9504146920300744,-17.332469302649518,-44.53339606607706,-18.28976953748565,39.877022483464174,37.04463783415807,16.096546704331537","-0.04111442964643294,-19.401390418881693,-22.521503845207253,16.111914198441372,-7.612587340021029,11.209592006368407,12.109934954680691,-23.47239238119179","0","0"
"410","86","text","0","49","512551","0-0","","","","","","","","","","","","","","","","","","","","","","","","","","","","","","","","","","","","",""
"","","plant-game","0","50","518957","0-0","","200","180","2","WHEAT CROP","Left","200","160","2","THISTLE WEED","experimental","12","1,2","180,227.83327873402294","2,1","WHEAT CROP,WHEAT CROP","160,196.95845757417584","2,1","THISTLE WEED,THISTLE WEED","20,20","20,20","10,10","20,20","0,0","20,20","20,20","20,20","10,10","20,20","0,0","20,20","0,1","1759,1209","47.83327873402294,3.0776140533497176","36.958457574175824,28.867432427727806","0","0"
"406","86","text","0","51","519533","0-0","","","","","","","","","","","","","","","","","","","","","","","","","","","","","","","","","","","","",""
"","","plant-game","0","52","538321","0-0","","200","160","4","CORN CROP","Right","200","190","8","NETTLE WEED","experimental","13","1,2,3,4,5,6,7,8","190,225.62983706614384,222.54858200490958,211.95202466958264,233.49125894014622,208.91110076645796,177.10055568846033,181.26896371004764","8,7,6,5,4,3,2,1","NETTLE WEED,NETTLE WEED,NETTLE WEED,NETTLE WEED,NETTLE WEED,NETTLE WEED,NETTLE WEED,NETTLE WEED","160,190.5954277345924,189.54254662013088,182.42843353179003,160,160.02096708879932,170.44098391643934,202.1537996039492","4,3,2,1,4,3,2,1","CORN CROP,CORN CROP,CORN CROP,CORN CROP,WHEAT CROP,WHEAT CROP,WHEAT CROP,WHEAT CROP","0,0,0,0,0,0,0,0","20,20,20,20,20,20,20,20","10,10,10,10,10,10,10,10","20,20,20,20,20,20,20,20","20,20,20,20,20,20,20,20","20,20,20,20,20,20,20,20","0,0,0,0,0,0,0,0","20,20,20,20,20,20,20,20","10,10,10,10,10,10,10,10","20,20,20,20,20,20,20,20","20,20,20,20,20,20,20,20","20,20,20,20,20,20,20,20","1,0,0,0,0,0,1,1","4011,2670,385,267,1722,408,1622,1536","35.62983706614384,-3.0812550612342653,-10.596557335326937,21.539234270563583,-24.580158173688268,-31.81054507799763,4.1684080215873,38.17687867125265","30.595427734592388,-1.052881114461525,-7.114113088340844,6.901677883687267,0.020967088799319994,10.420016827640005,31.712815687509874,19.07314581657191","0","0"
"252","86","text","0","53","538693","0-0","","","","","","","","","","","","","","","","","","","","","","","","","","","","","","","","","","","","",""
"","","plant-game","0","54","549071","0-0","","200","120","8","WHEAT CROP","Right","200","180","8","NETTLE WEED","experimental","14","1,2,3,4,5,6,7,8","180,252.15027319297562,252.68859129339532,284.96702347714245,287.048101424256,287.7290365907714,291.33604489330236,278.19450306260893","8,7,6,5,4,3,2,1","NETTLE WEED,NETTLE WEED,NETTLE WEED,NETTLE WEED,NETTLE WEED,NETTLE WEED,NETTLE WEED,NETTLE WEED","120,133.88397930934727,178.62476128580153,143.36797780203028,142.30740293735704,135.70176790869883,133.72445271725206,79.1680720409528","8,7,6,5,4,3,2,1","WHEAT CROP,WHEAT CROP,WHEAT CROP,WHEAT CROP,WHEAT CROP,WHEAT CROP,WHEAT CROP,WHEAT CROP","0,0,0,0,0,0,0,0","20,20,20,20,20,20,20,20","10,10,10,10,10,10,10,10","20,20,20,20,20,20,20,20","20,20,20,20,20,20,20,20","20,20,20,20,20,20,20,20","0,0,0,0,0,0,0,0","20,20,20,20,20,20,20,20","10,10,10,10,10,10,10,10","20,20,20,20,20,20,20,20","20,20,20,20,20,20,20,20","20,20,20,20,20,20,20,20","1,1,1,0,0,0,0,1","1983,43,53,2266,229,90,156,1495","72.15027319297562,0.5383181004197084,32.27843218374711,2.0810779471135445,0.6809351665153939,3.6070083025309687,-13.141541830693452,12.256522752028243","13.883979309347279,44.740781976454244,-35.25678348377124,-1.0605748646732451,-6.605635028658206,-1.9773151914467633,-54.55638067629927,2.545929827388143","0","0"
"415","86","text","0","55","549626","0-0","","","","","","","","","","","","","","","","","","","","","","","","","","","","","","","","","","","","",""
"","","plant-game","0","56","561727","0-0","","200","160","1","CORN CROP","Right","200","180","2","THISTLE WEED","experimental","15","1,2","180,201.14688157615217","2,1","THISTLE WEED,THISTLE WEED","160,190","1,1","CORN CROP,WHEAT CROP","0,0","20,20","10,10","20,20","20,20","20,20","0,0","20,20","10,10","20,20","20,20","20,20","0,0","2024,2380","21.146881576152175,15.300172640166927","4.941867127730512,3.5568972797350566","1","0"
"529","86","text","0","57","562436","0-0","","","","","","","","","","","","","","","","","","","","","","","","","","","","","","","","","","","","",""
"","","plant-game","0","58","573347","0-0","","200","180","2","CORN CROP","Left","200","190","2","NETTLE WEED","experimental","16","1,2","180,205.54634482338471","2,1","CORN CROP,CORN CROP","190,192.2675029731759","2,1","NETTLE WEED,NETTLE WEED","20,20","20,20","10,10","20,20","0,0","20,20","20,20","20,20","10,10","20,20","0,0","20,20","0,1","6076,1696","25.546344823384707,-2.4100660643093113","2.267502973175908,-36.67905074503741","0","0"
"211","86","text","0","59","573725","0-0","","","","","","","","","","","","","","","","","","","","","","","","","","","","","","","","","","","","",""
"","","plant-game","0","60","585979","0-0","","200","160","1","WHEAT CROP","Left","200","190","4","NETTLE WEED","experimental","17","1,2,3,4","160,170,188.29099697094117,180.7338499537895","1,3,2,1","WHEAT CROP,CORN CROP,CORN CROP,CORN CROP","190,155.08209618870168,120.99107508620762,137.60735205662655","4,3,2,1","NETTLE WEED,NETTLE WEED,NETTLE WEED,NETTLE WEED","20,20,20,20","20,20,20,20","10,10,10,10","20,20,20,20","0,0,0,0","20,20,20,20","20,20,20,20","20,20,20,20","10,10,10,10","20,20,20,20","0,0,0,0","20,20,20,20","1,1,1,1","4242,1154,547,988","9.321116769406633,18.29099697094117,-7.557147017151674,20.00185594577296","-34.917903811298316,-34.091021102494075,16.61627697041894,-21.103228713808896","0","0"
"235","86","text","0","61","586364","0-0","","","","","","","","","","","","","","","","","","","","","","","","","","","","","","","","","","","","",""
"","","plant-game","0","62","594715","0-0","","200","160","1","CORN CROP","Left","200","120","4","THISTLE WEED","experimental","18","1,2,3,4","160,170,171.96905378228496,173.194210012869","1,3,2,1","CORN CROP,WHEAT CROP,WHEAT CROP,WHEAT CROP","120,135.91482077286253,135.06099633447178,158.9122255145609","4,3,2,1","THISTLE WEED,THISTLE WEED,THISTLE WEED,THISTLE WEED","20,20,20,20","20,20,20,20","10,10,10,10","20,20,20,20","0,0,0,0","20,20,20,20","20,20,20,20","20,20,20,20","10,10,10,10","20,20,20,20","0,0,0,0","20,20,20,20","0,0,0,0","1279,1080,315,313","31.28546053336558,1.9690537822849663,1.2251562305840444,27.494345796702767","15.914820772862537,-0.8538244383907347,23.851229180089128,24.352970683670733","0","0"
"416","86","text","0","63","595291","0-0","","","","","","","","","","","","","","","","","","","","","","","","","","","","","","","","","","","","",""
"","","plant-game","0","64","609658","0-0","","200","120","4","CORN CROP","Left","200","180","1","NETTLE WEED","experimental","19","1,2,3,4","120,104.50993711979959,121.06403274215694,121.28105961557849","4,3,2,1","CORN CROP,CORN CROP,CORN CROP,CORN CROP","180,170,210.2464527042354,209.7510133231362","1,3,2,1","NETTLE WEED,THISTLE WEED,THISTLE WEED,THISTLE WEED","20,20,20,20","20,20,20,20","10,10,10,10","20,20,20,20","0,0,0,0","20,20,20,20","20,20,20,20","20,20,20,20","10,10,10,10","20,20,20,20","0,0,0,0","20,20,20,20","1,0,0,0","3220,5607,74,73","-15.490062880200417,16.55409562235736,0.21702687342154903,32.16173432056229","6.376964918645655,40.246452704235395,-0.49543938109919594,41.74772548424893","0","0"
"396","86","text","0","65","610224","0-0","","","","","","","","","","","","","","","","","","","","","","","","","","","","","","","","","","","","",""
"","","plant-game","0","66","625959","0-0","","200","120","2","WHEAT CROP","Left","200","120","4","THISTLE WEED","experimental","20","1,2,3,4","120,142.54600201867524,180,160.3247700157613","2,1,2,1","WHEAT CROP,WHEAT CROP,CORN CROP,CORN CROP","120,103.16409635582312,136.66819269472253,150.72728578768516","4,3,2,1","THISTLE WEED,THISTLE WEED,THISTLE WEED,THISTLE WEED","20,20,20,20","20,20,20,20","10,10,10,10","20,20,20,20","0,0,0,0","20,20,20,20","20,20,20,20","20,20,20,20","10,10,10,10","20,20,20,20","0,0,0,0","20,20,20,20","0,0,0,0","6536,489,2595,735","22.546002018675246,9.490135058811266,-19.67522998423871,40.34741315995003","-16.83590364417688,33.50409633889942,14.05909309296262,24.74096325988917","1","0"
"461","86","text","0","67","626560","0-0","","","","","","","","","","","","","","","","","","","","","","","","","","","","","","","","","","","","",""
"","","plant-game","0","68","648378","0-0","","200","180","8","CORN CROP","Left","200","190","8","THISTLE WEED","experimental","21","1,2,3,4,5,6,7,8","180,213.1908531717865,230.04243491607704,210.9675339839163,186.26058959419572,203.63278329468693,231.78759674600124,195.9013160234249","8,7,6,5,4,3,2,1","CORN CROP,CORN CROP,CORN CROP,CORN CROP,CORN CROP,CORN CROP,CORN CROP,CORN CROP","190,217.16583124862896,172.27893101221557,159.70553820984065,146.65313434306495,191.82369089889374,227.81342353691625,237.20488043781117","8,7,6,5,4,3,2,1","THISTLE WEED,THISTLE WEED,THISTLE WEED,THISTLE WEED,THISTLE WEED,THISTLE WEED,THISTLE WEED,THISTLE WEED","20,20,20,20,20,20,20,20","20,20,20,20,20,20,20,20","10,10,10,10,10,10,10,10","20,20,20,20,20,20,20,20","0,0,0,0,0,0,0,0","20,20,20,20,20,20,20,20","20,20,20,20,20,20,20,20","20,20,20,20,20,20,20,20","10,10,10,10,10,10,10,10","20,20,20,20,20,20,20,20","0,0,0,0,0,0,0,0","20,20,20,20,20,20,20,20","0,1,1,1,0,1,1,0","2537,2835,3152,1109,2037,1397,3168,1255","33.190853171786486,16.851581744290534,-19.074900932160734,-24.706944389720565,17.3721937004912,28.154813451314308,-35.88628072257634,18.89714810731495","27.165831248628965,-44.886900236413396,-12.573392802374903,-13.052403866775709,45.17055655582881,35.98973263802251,9.391456900894926,39.768466716718265","1","0"
"150","86","text","0","69","648658","0-0","","","","","","","","","","","","","","","","","","","","","","","","","","","","","","","","","","","","",""
"","","plant-game","0","70","660787","0-0","","200","180","1","WHEAT CROP","Left","200","160","2","THISTLE WEED","experimental","22","1,2","180,190","1,1","WHEAT CROP,CORN CROP","160,172.332514384306","2,1","THISTLE WEED,THISTLE WEED","20,20","20,20","10,10","20,20","0,0","20,20","20,20","20,20","10,10","20,20","0,0","20,20","0,0","1553,4612","52.457490546040894,12.167728244779196","12.33251438430599,4.388207243551545","2","0"
"598","86","text","0","71","661535","0-0","","","","","","","","","","","","","","","","","","","","","","","","","","","","","","","","","","","","",""
"","","plant-game","0","72","676715","0-0","","200","160","8","WHEAT CROP","Right","200","120","8","THISTLE WEED","experimental","23","1,2,3,4,5,6,7,8","120,120.46307584968066,120.8063909868267,122.07794239034142,137.32594943404774,132.59092027108935,115.06713377472263,68.47857416987806","8,7,6,5,4,3,2,1","THISTLE WEED,THISTLE WEED,THISTLE WEED,THISTLE WEED,THISTLE WEED,THISTLE WEED,THISTLE WEED,THISTLE WEED","160,213.14815431182657,205.98764249981718,245.83964376959085,253.04605891435676,248.67391021074607,291.4426244703558,308.7672477759018","8,7,6,5,4,3,2,1","WHEAT CROP,WHEAT CROP,WHEAT CROP,WHEAT CROP,WHEAT CROP,WHEAT CROP,WHEAT CROP,WHEAT CROP","0,0,0,0,0,0,0,0","20,20,20,20,20,20,20,20","10,10,10,10,10,10,10,10","20,20,20,20,20,20,20,20","20,20,20,20,20,20,20,20","20,20,20,20,20,20,20,20","0,0,0,0,0,0,0,0","20,20,20,20,20,20,20,20","10,10,10,10,10,10,10,10","20,20,20,20,20,20,20,20","20,20,20,20,20,20,20,20","20,20,20,20,20,20,20,20","1,0,0,0,0,0,0,0","2901,5072,353,532,453,528,456,402","0.46307584968066706,0.34331513714603346,1.2715514035147233,15.248007043706318,-4.735029162958389,-17.523786496366704,-46.588559604844576,10.663109262438088","53.14815431182658,-7.160511812009382,39.852001269773666,7.206415144765907,-4.372148703610697,42.76871425960973,17.32462330554604,24.381099818185284","0","0"
"453","86","text","0","73","677378","0-0","","","","","","","","","","","","","","","","","","","","","","","","","","","","","","","","","","","","",""
"","","plant-game","0","74","687505","0-0","","200","120","4","CORN CROP","Right","200","120","2","THISTLE WEED","experimental","24","1,2,3,4","120,141.81914180457795,180,184.92342001533655","2,1,2,1","THISTLE WEED,THISTLE WEED,NETTLE WEED,NETTLE WEED","120,134.70883518334117,121.08159734110365,115.28322377389755","4,3,2,1","CORN CROP,CORN CROP,CORN CROP,CORN CROP","0,0,0,0","20,20,20,20","10,10,10,10","20,20,20,20","20,20,20,20","20,20,20,20","0,0,0,0","20,20,20,20","10,10,10,10","20,20,20,20","20,20,20,20","20,20,20,20","0,0,0,0","2745,224,2881,132","21.81914180457795,10.79383938569215,4.923420015336543,1.2069587406538402","14.70883518334116,-13.627237842237516,-5.798373567206099,-14.989109010742856","0","0"
"471","86","text","0","75","688116","0-0","","","","","","","","","","","","","","","","","","","","","","","","","","","","","","","","","","","","",""
"","","plant-game","0","76","699090","0-0","","200","180","2","WHEAT CROP","Left","200","120","4","THISTLE WEED","experimental","25","1,2,3,4","180,205.9390362215994,180,217.8096209210833","2,1,2,1","WHEAT CROP,WHEAT CROP,CORN CROP,CORN CROP","120,114.27470357671922,122.60277211760878,156.38427645562575","4,3,2,1","THISTLE WEED,THISTLE WEED,THISTLE WEED,THISTLE WEED","20,20,20,20","20,20,20,20","10,10,10,10","20,20,20,20","0,0,0,0","20,20,20,20","20,20,20,20","20,20,20,20","10,10,10,10","20,20,20,20","0,0,0,0","20,20,20,20","0,0,0,0","2898,2033,1103,429","25.9390362215994,1.0036362193453066,37.80962092108332,34.60461293869071","-5.725296423280774,8.328068540889559,33.78150433801699,22.989021255512768","0","0"
"423","86","text","0","77","699653","0-0","","","","","","","","","","","","","","","","","","","","","","","","","","","","","","","","","","","","",""
"","","plant-game","0","78","715665","0-0","","200","190","4","CORN CROP","Right","200","190","2","NETTLE WEED","experimental","26","1,2,3,4","190,198.1147833567968,180,203.67253900456885","2,1,2,1","NETTLE WEED,NETTLE WEED,THISTLE WEED,THISTLE WEED","190,216.63720422992682,194.43549888851513,212.12978629280067","4,3,2,1","CORN CROP,CORN CROP,CORN CROP,CORN CROP","0,0,0,0","20,20,20,20","10,10,10,10","20,20,20,20","20,20,20,20","20,20,20,20","0,0,0,0","20,20,20,20","10,10,10,10","20,20,20,20","20,20,20,20","20,20,20,20","1,0,0,0","2958,4280,3539,56","8.11478335679681,13.360767211584202,23.672539004568854,24.459021732625974","26.637204229926812,-22.201705341411696,17.69428740428555,12.415311911410445","2","0"
"567","86","text","0","79","716362","0-0","","","","","","","","","","","","","","","","","","","","","","","","","","","","","","","","","","","","",""
"","","plant-game","0","80","726782","0-0","","200","160","1","CORN CROP","Left","200","160","2","NETTLE WEED","experimental","27","1,2","160,190","1,1","CORN CROP,WHEAT CROP","160,174.03227411999686","2,1","NETTLE WEED,NETTLE WEED","20,20","20,20","10,10","20,20","0,0","20,20","20,20","20,20","10,10","20,20","0,0","20,20","0,0","2810,3180","14.91168151147357,20.607250042373803","14.03227411999685,10.556480435810494","0","0"
"413","86","text","0","81","727365","0-0","","","","","","","","","","","","","","","","","","","","","","","","","","","","","","","","","","","","",""
"","","plant-game","0","82","741009","0-0","","200","180","8","CORN CROP","Right","200","190","1","NETTLE WEED","experimental","28","1,2,3,4,5,6,7,8","190,130,126.36008371624548,134.35347341325146,119.24718578133064,130.4664106800078,183.28323664155874,207.31586996192016","1,7,6,5,4,3,2,1","NETTLE WEED,THISTLE WEED,THISTLE WEED,THISTLE WEED,THISTLE WEED,THISTLE WEED,THISTLE WEED,THISTLE WEED","180,167.5140707671938,158.80948505394252,164.9546856813924,188.9588708333901,160.19291316534304,194.16276285807538,214.3102141200129","8,7,6,5,4,3,2,1","CORN CROP,CORN CROP,CORN CROP,CORN CROP,CORN CROP,CORN CROP,CORN CROP,CORN CROP","0,0,0,0,0,0,0,0","20,20,20,20,20,20,20,20","10,10,10,10,10,10,10,10","20,20,20,20,20,20,20,20","20,20,20,20,20,20,20,20","20,20,20,20,20,20,20,20","0,0,0,0,0,0,0,0","20,20,20,20,20,20,20,20","10,10,10,10,10,10,10,10","20,20,20,20,20,20,20,20","20,20,20,20,20,20,20,20","20,20,20,20,20,20,20,20","1,0,0,0,0,1,1,1","2584,3894,342,265,438,722,91,70","15.26014609179475,-3.6399162837545163,7.993389697005968,-15.106287631920823,11.219224898677162,52.81682596155095,24.0326333203614,15.685060479502791","-12.485929232806193,-8.70458571325128,6.145200627449872,24.004185151997717,-28.76595766804705,33.969849692732325,20.147451261937515,-2.8128213550810344","0","0"
"497","86","text","0","83","741656","0-0","","","","","","","","","","","","","","","","","","","","","","","","","","","","","","","","","","","","",""
"","","plant-game","0","84","750547","0-0","","200","190","4","WHEAT CROP","Right","200","160","4","THISTLE WEED","experimental","29","1,2,3,4","160,152.2102405468436,138.4022822269736,185.12331762937498","4,3,2,1","THISTLE WEED,THISTLE WEED,THISTLE WEED,THISTLE WEED","190,199.11551930358794,211.24631168293982,211.54179284147105","4,3,2,1","WHEAT CROP,WHEAT CROP,WHEAT CROP,WHEAT CROP","0,0,0,0","20,20,20,20","10,10,10,10","20,20,20,20","20,20,20,20","20,20,20,20","0,0,0,0","20,20,20,20","10,10,10,10","20,20,20,20","20,20,20,20","20,20,20,20","0,0,1,0","2761,546,1211,1199","-7.789759453156399,-13.807958319870009,46.72103540240137,-5.3747576189463695","9.115519303587936,12.13079237935187,0.2954811585312278,36.1055398788076","0","0"
"420","86","text","0","85","751137","0-0","","","","","","","","","","","","","","","","","","","","","","","","","","","","","","","","","","","","",""
"","","plant-game","0","86","759491","0-0","","200","160","4","CORN CROP","Left","200","160","4","NETTLE WEED","experimental","30","1,2,3,4","160,193.38444785931335,234.29030493852875,255.63186969488487","4,3,2,1","CORN CROP,CORN CROP,CORN CROP,CORN CROP","160,175.1071343726047,201.18029764491138,218.95734701971557","4,3,2,1","NETTLE WEED,NETTLE WEED,NETTLE WEED,NETTLE WEED","20,20,20,20","20,20,20,20","10,10,10,10","20,20,20,20","0,0,0,0","20,20,20,20","20,20,20,20","20,20,20,20","10,10,10,10","20,20,20,20","0,0,0,0","20,20,20,20","0,0,1,1","1778,169,1893,1488","33.38444785931337,40.905857079215394,21.34156475635613,-20.87477520161015","15.107134372604698,26.073163272306694,17.7770493748042,-15.740275983944782","0","0"
"367","86","text","0","87","760038","0-0","","","","","","","","","","","","","","","","","","","","","","","","","","","","","","","","","","","","",""
"","","plant-game","0","88","770737","0-0","","200","120","4","CORN CROP","Left","200","190","2","NETTLE WEED","experimental","31","1,2,3,4","120,126.70341402515156,102.93196367894944,106.79100945608417","4,3,2,1","CORN CROP,CORN CROP,CORN CROP,CORN CROP","190,183.70650189835084,180,190.08140234889015","2,1,2,1","NETTLE WEED,NETTLE WEED,THISTLE WEED,THISTLE WEED","20,20,20,20","20,20,20,20","10,10,10,10","20,20,20,20","0,0,0,0","20,20,20,20","20,20,20,20","20,20,20,20","10,10,10,10","20,20,20,20","0,0,0,0","20,20,20,20","1,1,1,1","2611,1231,1892,588","6.703414025151564,-23.771450346202123,3.85904577713473,33.452004993715235","-6.293498101649152,-10.984603121395299,10.081402348890144,16.81327707161605","0","0"
"224","86","text","0","89","771081","0-0","","","","","","","","","","","","","","","","","","","","","","","","","","","","","","","","","","","","",""
"","","plant-game","0","90","782807","0-0","","200","180","2","CORN CROP","Right","200","180","1","THISTLE WEED","experimental","32","1,2","180,190","1,1","THISTLE WEED,NETTLE WEED","180,177.0247856307431","2,1","CORN CROP,CORN CROP","0,0","20,20","10,10","20,20","20,20","20,20","0,0","20,20","10,10","20,20","20,20","20,20","0,0","4241,3613","5.739422513141007,-4.0756694945114464","-2.975214369256893,2.4886974937313946","0","0"
"20668","86","text","0","91","803647","0-0","","","","","","","","","","","","","","","","","","","","","","","","","","","","","","","","","","","","",""
"","","plant-game","0","92","823655","0-0","","200","160","8","CORN CROP","Left","200","160","4","NETTLE WEED","experimental","33","1,2,3,4,5,6,7,8","160,174.75223388824082,178.13385289011774,184.08298093805828,166.0397542264785,183.60900939445514,185.59395233023318,231.70284876327722","8,7,6,5,4,3,2,1","CORN CROP,CORN CROP,CORN CROP,CORN CROP,CORN CROP,CORN CROP,CORN CROP,CORN CROP","160,124.24117669541161,138.3661175762045,153.70207874749187,160,200.46068702392364,235.01764134141203,227.92030407011708","4,3,2,1,4,3,2,1","NETTLE WEED,NETTLE WEED,NETTLE WEED,NETTLE WEED,THISTLE WEED,THISTLE WEED,THISTLE WEED,THISTLE WEED","20,20,20,20,20,20,20,20","20,20,20,20,20,20,20,20","10,10,10,10,10,10,10,10","20,20,20,20,20,20,20,20","0,0,0,0,0,0,0,0","20,20,20,20,20,20,20,20","20,20,20,20,20,20,20,20","20,20,20,20,20,20,20,20","10,10,10,10,10,10,10,10","20,20,20,20,20,20,20,20","0,0,0,0,0,0,0,0","20,20,20,20,20,20,20,20","1,1,1,1,0,0,0,0","5247,113,1460,570,870,5774,66,50","14.75223388824082,3.3816190018769228,5.949128047940551,-18.04322671157979,17.569255167976642,1.9849429357780437,46.10889643304404,51.13143512971095","-35.75882330458838,14.124940880792867,15.33596117128738,17.033301463149698,40.46068702392363,34.55695431748839,-7.097337271294958,-4.938143617556992","0","0"
"673","86","text","0","93","824448","0-0","","","","","","","","","","","","","","","","","","","","","","","","","","","","","","","","","","","","",""
"","","plant-game","0","94","831545","0-0","","200","160","2","WHEAT CROP","Left","200","120","2","NETTLE WEED","experimental","34","1,2","160,166.167124711532","2,1","WHEAT CROP,WHEAT CROP","120,165.77551113524828","2,1","NETTLE WEED,NETTLE WEED","20,20","20,20","10,10","20,20","0,0","20,20","20,20","20,20","10,10","20,20","0,0","20,20","0,0","4215,48","6.167124711532004,48.119297632205246","45.775511135248294,25.863112805412847","0","0"
"540","86","text","0","95","832205","0-0","","","","","","","","","","","","","","","","","","","","","","","","","","","","","","","","","","","","",""
"","","plant-game","0","96","862120","0-0","","200","160","8","CORN CROP","Right","200","180","4","THISTLE WEED","experimental","35","1,2,3,4,5,6,7,8","180,193.68169751754291,166.0277350193643,194.9788193345506,160,187.7856413681914,157.80314543137658,146.20588507199022","4,3,2,1,4,3,2,1","THISTLE WEED,THISTLE WEED,THISTLE WEED,THISTLE WEED,NETTLE WEED,NETTLE WEED,NETTLE WEED,NETTLE WEED","160,196.88582403546792,159.45154188142897,169.8914332458629,181.70126473342606,180.81194067625887,198.9826334617175,236.02486320645738","8,7,6,5,4,3,2,1","CORN CROP,CORN CROP,CORN CROP,CORN CROP,CORN CROP,CORN CROP,CORN CROP,CORN CROP","0,0,0,0,0,0,0,0","20,20,20,20,20,20,20,20","10,10,10,10,10,10,10,10","20,20,20,20,20,20,20,20","20,20,20,20,20,20,20,20","20,20,20,20,20,20,20,20","0,0,0,0,0,0,0,0","20,20,20,20,20,20,20,20","10,10,10,10,10,10,10,10","20,20,20,20,20,20,20,20","20,20,20,20,20,20,20,20","20,20,20,20,20,20,20,20","0,0,0,0,0,0,0,0","13712,1353,1151,334,2916,2621,1601,932","13.681697517542915,-27.653962498178643,28.95108431518631,13.221303362405985,27.785641368191392,-29.982495936814825,-11.597260359386361,13.357764574761447","36.88582403546791,-37.43428215403896,10.439891364433958,11.809831487563141,-0.8893240571671969,18.17069278545864,37.042229744739885,14.241083717204258","0","0"
"443","86","text","0","97","862647","0-0","","","","","","","","","","","","","","","","","","","","","","","","","","","","","","","","","","","","",""
"","","plant-game","0","98","878720","0-0","","200","160","2","WHEAT CROP","Right","200","190","2","THISTLE WEED","experimental","36","1,2","190,191.0854328168218","2,1","THISTLE WEED,THISTLE WEED","160,143.34330997367763","2,1","WHEAT CROP,WHEAT CROP","0,0","20,20","10,10","20,20","20,20","20,20","0,0","20,20","10,10","20,20","20,20","20,20","0,0","11841,1299","1.0854328168217802,27.608161595478563","-16.656690026322355,9.559883373646374","0","0"
"472","86","text","0","99","879332","0-0","","","","","","","","","","","","","","","","","","","","","","","","","","","","","","","","","","","","",""
"","","plant-game","0","100","889155","0-0","","200","180","4","CORN CROP","Right","200","180","4","NETTLE WEED","experimental","37","1,2,3,4","180,198.67713383248886,191.23113733519395,179.86882628703313","4,3,2,1","NETTLE WEED,NETTLE WEED,NETTLE WEED,NETTLE WEED","180,222.53713950313204,287.1567630797133,287.3620031413197","4,3,2,1","CORN CROP,CORN CROP,CORN CROP,CORN CROP","0,0,0,0","20,20,20,20","10,10,10,10","20,20,20,20","20,20,20,20","20,20,20,20","0,0,0,0","20,20,20,20","10,10,10,10","20,20,20,20","20,20,20,20","20,20,20,20","1,1,1,1","5484,101,87,93","18.67713383248887,-7.445996497294914,-11.36231104816082,16.193032454766115","42.53713950313205,64.61962357658123,0.20524006160637498,6.57352637161434","0","0"
"384","86","text","0","101","889653","0-0","","","","","","","","","","","","","","","","","","","","","","","","","","","","","","","","","","","","",""
"","","plant-game","0","102","900610","0-0","","200","120","2","CORN CROP","Right","200","120","1","NETTLE WEED","experimental","38","1,2","120,190","1,1","NETTLE WEED,THISTLE WEED","120,157.40083855778352","2,1","CORN CROP,CORN CROP","0,0","20,20","10,10","20,20","20,20","20,20","0,0","20,20","10,10","20,20","20,20","20,20","1,0","3295,3614","44.62927330662576,1.024077129786509","37.40083855778353,-58.425371066891564","0","0"
"581","86","text","0","103","901281","0-0","","","","","","","","","","","","","","","","","","","","","","","","","","","","","","","","","","","","",""
"","","plant-game","0","104","912610","0-0","","200","180","4","WHEAT CROP","Right","200","120","4","NETTLE WEED","experimental","39","1,2,3,4","120,114.58892516876048,87.58321330297426,123.43633112981638","4,3,2,1","NETTLE WEED,NETTLE WEED,NETTLE WEED,NETTLE WEED","180,222.14692665983574,215.6849458512423,213.82455930321746","4,3,2,1","WHEAT CROP,WHEAT CROP,WHEAT CROP,WHEAT CROP","0,0,0,0","20,20,20,20","10,10,10,10","20,20,20,20","20,20,20,20","20,20,20,20","0,0,0,0","20,20,20,20","10,10,10,10","20,20,20,20","20,20,20,20","20,20,20,20","1,0,1,1","3326,3187,787,777","-5.4110748312395245,-27.00571186578623,35.853117826842116,11.831328454165673","42.146926659835735,-6.461980808593443,-1.8603865480248452,22.425963730958898","0","0"
"390","86","text","0","105","913140","0-0","","","","","","","","","","","","","","","","","","","","","","","","","","","","","","","","","","","","",""
"","","plant-game","0","106","930973","0-0","","200","190","2","CORN CROP","Left","200","180","1","THISTLE WEED","experimental","40","1,2","190,229.26627194162435","2,1","CORN CROP,CORN CROP","180,190","1,1","THISTLE WEED,NETTLE WEED","20,20","20,20","10,10","20,20","0,0","20,20","20,20","20,20","10,10","20,20","0,0","20,20","0,1","6335,6143","39.26627194162436,-4.527084810027367","10.816745765729582,35.343830309338806","0","0"
"168","86","text","0","107","931261","0-0","","","","","","","","","","","","","","","","","","","","","","","","","","","","","","","","","","","","",""
"","","plant-game","0","108","946251","0-0","","200","190","1","WHEAT CROP","Left","200","160","8","THISTLE WEED","experimental","41","1,2,3,4,5,6,7,8","190,130,136.2802672693032,159.1467654021347,186.09967728145298,227.33506047641143,266.0874379872842,279.342904080097","1,7,6,5,4,3,2,1","WHEAT CROP,CORN CROP,CORN CROP,CORN CROP,CORN CROP,CORN CROP,CORN CROP,CORN CROP","160,177.12365120889677,194.63339728455034,222.74854611403424,246.95927753411425,260.71606481986186,297.21566746047165,313.1642457473529","8,7,6,5,4,3,2,1","THISTLE WEED,THISTLE WEED,THISTLE WEED,THISTLE WEED,THISTLE WEED,THISTLE WEED,THISTLE WEED,THISTLE WEED","20,20,20,20,20,20,20,20","20,20,20,20,20,20,20,20","10,10,10,10,10,10,10,10","20,20,20,20,20,20,20,20","0,0,0,0,0,0,0,0","20,20,20,20,20,20,20,20","20,20,20,20,20,20,20,20","20,20,20,20,20,20,20,20","10,10,10,10,10,10,10,10","20,20,20,20,20,20,20,20","0,0,0,0,0,0,0,0","20,20,20,20,20,20,20,20","0,0,0,0,0,0,0,0","4285,5234,66,61,74,71,68,764","60.53184483385202,6.280267269303204,22.86649813283148,26.952911879318293,41.23538319495844,38.752377510872755,13.25546609281281,14.131550485592667","17.12365120889679,17.509746075653567,28.1151488294839,24.21073142008001,13.756787285747592,36.49960264060982,15.948578286881236,24.283324201156752","0","0"
"463","86","text","0","109","946814","0-0","","","","","","","","","","","","","","","","","","","","","","","","","","","","","","","","","","","","",""
"","","plant-game","0","110","969989","0-0","","200","190","8","CORN CROP","Right","200","160","2","NETTLE WEED","experimental","42","1,2,3,4,5,6,7,8","160,153.5116346641556,140,132.97040833479934,146.86831816384426,162.12318330411148,191.49590525789145,241.15707603154488","2,1,6,5,4,3,2,1","NETTLE WEED,NETTLE WEED,THISTLE WEED,THISTLE WEED,THISTLE WEED,THISTLE WEED,THISTLE WEED,THISTLE WEED","190,157.97907893850743,153.03910246289092,137.16071002384552,160.33287314889813,163.4476428741986,200.44452526994831,189.17093761129982","8,7,6,5,4,3,2,1","CORN CROP,CORN CROP,CORN CROP,CORN CROP,CORN CROP,CORN CROP,CORN CROP,CORN CROP","0,0,0,0,0,0,0,0","20,20,20,20,20,20,20,20","10,10,10,10,10,10,10,10","20,20,20,20,20,20,20,20","20,20,20,20,20,20,20,20","20,20,20,20,20,20,20,20","0,0,0,0,0,0,0,0","20,20,20,20,20,20,20,20","10,10,10,10,10,10,10,10","20,20,20,20,20,20,20,20","20,20,20,20,20,20,20,20","20,20,20,20,20,20,20,20","0,0,1,1,1,1,1,1","3971,1102,6670,1045,691,1260,3216,946","-6.4883653358443985,-20.480871361776643,-7.029591665200648,13.89790982904491,15.254865140267214,29.372721953779973,49.66117077365344,21.713167259450728","-32.02092106149258,-4.939976475616515,-15.878392439045413,23.172163125052606,3.11476972530048,36.996882395749694,-11.273587658648488,44.35900585576309","0","0"
"436","86","text","0","111","970555","0-0","","","","","","","","","","","","","","","","","","","","","","","","","","","","","","","","","","","","",""
"","","plant-game","0","112","996230","0-0","","200","190","8","CORN CROP","Right","200","180","4","NETTLE WEED","experimental","43","1,2,3,4,5,6,7,8","180,210.11595701056035,246.93992888603586,275.6117660924848,160,157.02649789969138,163.62713861634225,141.5684048003246","4,3,2,1,4,3,2,1","NETTLE WEED,NETTLE WEED,NETTLE WEED,NETTLE WEED,THISTLE WEED,THISTLE WEED,THISTLE WEED,THISTLE WEED","190,208.4067057917035,168.36003980136064,189.34432399351823,241.65817078275637,220.00947404194676,226.7816865985271,202.38924008783047","8,7,6,5,4,3,2,1","CORN CROP,CORN CROP,CORN CROP,CORN CROP,CORN CROP,CORN CROP,CORN CROP,CORN CROP","0,0,0,0,0,0,0,0","20,20,20,20,20,20,20,20","10,10,10,10,10,10,10,10","20,20,20,20,20,20,20,20","20,20,20,20,20,20,20,20","20,20,20,20,20,20,20,20","0,0,0,0,0,0,0,0","20,20,20,20,20,20,20,20","10,10,10,10,10,10,10,10","20,20,20,20,20,20,20,20","20,20,20,20,20,20,20,20","20,20,20,20,20,20,20,20","1,0,0,1,0,0,0,0","1651,2629,7432,2197,5139,508,637,557","30.115957010560336,36.823971875475515,28.67183720644892,21.093952585871637,-2.973502100308632,6.600640716650884,-22.058733816017657,9.698897243415072","18.40670579170351,-40.046665990342866,20.98428419215759,52.313846789238156,-21.64869674080962,6.772212556580337,-24.392446510696622,-5.778548346354244","0","0"
"455","86","text","0","113","996805","0-0","","","","","","","","","","","","","","","","","","","","","","","","","","","","","","","","","","","","",""
"","","plant-game","0","114","1002272","0-0","","200","180","1","CORN CROP","Left","200","120","1","THISTLE WEED","experimental","44","1","180","1","CORN CROP","120","1","THISTLE WEED","20","20","10","20","0","20","20","20","10","20","0","20","0","2151","18.00784130356544","22.149719344351183","0","0"
"564","86","text","0","115","1002976","0-0","","","","","","","","","","","","","","","","","","","","","","","","","","","","","","","","","","","","",""
"","","plant-game","0","116","1024965","0-0","","200","180","4","WHEAT CROP","Left","200","190","8","NETTLE WEED","experimental","45","1,2,3,4,5,6,7,8","180,170.80109191861925,178.50628000466475,200.87094724266018,160,171.04594964601083,171.8119303486131,193.6883952815116","4,3,2,1,4,3,2,1","WHEAT CROP,WHEAT CROP,WHEAT CROP,WHEAT CROP,CORN CROP,CORN CROP,CORN CROP,CORN CROP","190,207.46446354492647,188.66990410409312,212.59044883465964,254.05043895114153,269.9758399617856,280.49999322182646,305.43423451002536","8,7,6,5,4,3,2,1","NETTLE WEED,NETTLE WEED,NETTLE WEED,NETTLE WEED,NETTLE WEED,NETTLE WEED,NETTLE WEED,NETTLE WEED","20,20,20,20,20,20,20,20","20,20,20,20,20,20,20,20","10,10,10,10,10,10,10,10","20,20,20,20,20,20,20,20","0,0,0,0,0,0,0,0","20,20,20,20,20,20,20,20","20,20,20,20,20,20,20,20","20,20,20,20,20,20,20,20","10,10,10,10,10,10,10,10","20,20,20,20,20,20,20,20","0,0,0,0,0,0,0,0","20,20,20,20,20,20,20,20","1,1,0,0,0,0,0,0","3781,1836,2193,4501,4924,73,71,63","-9.198908081380745,7.705188086045496,22.364667237995448,13.324624746438904,11.045949646010838,0.7659807026022776,21.87646493289849,-0.24556071543467084","17.46446354492648,-18.794559440833364,23.920544730566505,41.45999011648189,15.925401010644066,10.524153260040839,24.93424128819891,6.642596343729563","0","0"
"190","86","text","0","117","1025315","0-0","","","","","","","","","","","","","","","","","","","","","","","","","","","","","","","","","","","","",""
"","","plant-game","0","118","1039574","0-0","","200","120","8","WHEAT CROP","Left","200","190","2","NETTLE WEED","experimental","46","1,2,3,4,5,6,7,8","120,111.15436762412916,115.39331225014847,140.3190843612343,150.724491168684,159.22770086851978,183.57297559398452,193.23276083434013","8,7,6,5,4,3,2,1","WHEAT CROP,WHEAT CROP,WHEAT CROP,WHEAT CROP,WHEAT CROP,WHEAT CROP,WHEAT CROP,WHEAT CROP","190,192.5124466214401,140,164.14375001150236,224.95276240632273,181.26269725333594,210.71921638331668,241.32717138368568","2,1,6,5,4,3,2,1","NETTLE WEED,NETTLE WEED,THISTLE WEED,THISTLE WEED,THISTLE WEED,THISTLE WEED,THISTLE WEED,THISTLE WEED","20,20,20,20,20,20,20,20","20,20,20,20,20,20,20,20","10,10,10,10,10,10,10,10","20,20,20,20,20,20,20,20","0,0,0,0,0,0,0,0","20,20,20,20,20,20,20,20","20,20,20,20,20,20,20,20","20,20,20,20,20,20,20,20","10,10,10,10,10,10,10,10","20,20,20,20,20,20,20,20","0,0,0,0,0,0,0,0","20,20,20,20,20,20,20,20","1,1,0,0,0,0,0,0","4368,444,4608,54,76,56,164,135","-8.845632375870832,4.238944626019302,24.925772111085834,10.405406807449713,8.503209699835775,24.345274725464748,9.65978524035561,36.87877851062334","2.512446621440091,0.11443126208343235,24.143750011502355,60.80901239482036,-43.690065152986804,29.456519129980737,30.60795500036901,14.698492796940043","0","0"
"403","86","text","0","119","1040047","0-0","","","","","","","","","","","","","","","","","","","","","","","","","","","","","","","","","","","","",""
"","","plant-game","0","120","1052077","0-0","","200","120","4","CORN CROP","Left","200","180","2","NETTLE WEED","experimental","47","1,2,3,4","120,98.3225699063128,89.88640621636293,87.85926035365956","4,3,2,1","CORN CROP,CORN CROP,CORN CROP,CORN CROP","180,131.44347711159503,180,156.36916218764617","2,1,2,1","NETTLE WEED,NETTLE WEED,THISTLE WEED,THISTLE WEED","20,20,20,20","20,20,20,20","10,10,10,10","20,20,20,20","0,0,0,0","20,20,20,20","20,20,20,20","20,20,20,20","10,10,10,10","20,20,20,20","0,0,0,0","20,20,20,20","1,1,1,1","3905,1714,2388,397","-21.677430093687203,-8.436163689949861,-2.0271458627033647,-17.690177755817697","-48.556522888404956,-7.695164748986462,-23.63083781235382,36.890758672050914","0","0"
"431","86","text","0","121","1052658","0-0","","","","","","","","","","","","","","","","","","","","","","","","","","","","","","","","","","","","",""
"","","plant-game","0","122","1064352","0-0","","200","120","8","WHEAT CROP","Left","200","190","8","THISTLE WEED","experimental","48","1,2,3,4,5,6,7,8","120,116.67051904328261,165.76030172976078,170.31504768052116,194.0772987582701,231.41383939252393,245.00078039323688,305.41518620909966","8,7,6,5,4,3,2,1","WHEAT CROP,WHEAT CROP,WHEAT CROP,WHEAT CROP,WHEAT CROP,WHEAT CROP,WHEAT CROP,WHEAT CROP","190,213.79977147044698,246.3285929719272,244.11092052147887,283.6644995734613,291.8009930357068,331.20392700951373,349.47268008115145","8,7,6,5,4,3,2,1","THISTLE WEED,THISTLE WEED,THISTLE WEED,THISTLE WEED,THISTLE WEED,THISTLE WEED,THISTLE WEED,THISTLE WEED","20,20,20,20,20,20,20,20","20,20,20,20,20,20,20,20","10,10,10,10,10,10,10,10","20,20,20,20,20,20,20,20","0,0,0,0,0,0,0,0","20,20,20,20,20,20,20,20","20,20,20,20,20,20,20,20","20,20,20,20,20,20,20,20","10,10,10,10,10,10,10,10","20,20,20,20,20,20,20,20","0,0,0,0,0,0,0,0","20,20,20,20,20,20,20,20","0,0,0,0,0,0,0,0","7537,80,74,92,87,83,90,687","-3.329480956717383,49.089782686478166,4.554745950760388,23.762251077748942,37.33654063425381,13.586941000712967,60.4144058158628,30.40488948019577","23.799771470446977,32.52882150148022,-2.2176724504483367,39.55357905198244,8.136493462245568,39.402933973806924,18.2687530716377,26.641393222471198","0","0"
"451","86","text","0","123","1064893","0-0","","","","","","","","","","","","","","","","","","","","","","","","","","","","","","","","","","","","",""
"","","plant-game","0","124","1076739","0-0","","200","160","1","WHEAT CROP","Left","200","120","2","NETTLE WEED","experimental","49","1,2","160,190","1,1","WHEAT CROP,CORN CROP","120,155.17899672847167","2,1","NETTLE WEED,NETTLE WEED","20,20","20,20","10,10","20,20","0,0","20,20","20,20","20,20","10,10","20,20","0,0","20,20","0,0","5585,2338","41.370000753146684,27.59781329215243","35.178996728471674,13.449704206441993","0","0"
"491","86","text","0","125","1077370","0-0","","","","","","","","","","","","","","","","","","","","","","","","","","","","","","","","","","","","",""
"","","plant-game","0","126","1099292","0-0","","200","160","8","CORN CROP","Left","200","120","4","NETTLE WEED","experimental","50","1,2,3,4,5,6,7,8","160,197.53406789685522,230.6547967950556,220.07924659606655,183.7316912095794,197.90477428756043,218.1961545936299,223.06458154267187","8,7,6,5,4,3,2,1","CORN CROP,CORN CROP,CORN CROP,CORN CROP,CORN CROP,CORN CROP,CORN CROP,CORN CROP","120,145.73668730871293,186.8871269082928,184.4009461835156,160,144.5458693022108,158.05068823430022,164.15623092594404","4,3,2,1,4,3,2,1","NETTLE WEED,NETTLE WEED,NETTLE WEED,NETTLE WEED,THISTLE WEED,THISTLE WEED,THISTLE WEED,THISTLE WEED","20,20,20,20,20,20,20,20","20,20,20,20,20,20,20,20","10,10,10,10,10,10,10,10","20,20,20,20,20,20,20,20","0,0,0,0,0,0,0,0","20,20,20,20,20,20,20,20","20,20,20,20,20,20,20,20","20,20,20,20,20,20,20,20","10,10,10,10,10,10,10,10","20,20,20,20,20,20,20,20","0,0,0,0,0,0,0,0","20,20,20,20,20,20,20,20","0,0,1,1,1,1,1,1","5472,676,3520,2408,1464,1596,1231,1227","37.53406789685522,33.12072889820039,-10.57555019898906,-36.34755538648716,14.17308307798104,20.291380306069456,4.868426949041968,7.180972043198576","25.73668730871293,41.15043959957987,-2.486180724777193,-9.08298805746093,-15.454130697789202,13.504818932089428,6.105542691643807,20.570927122886623","0","0"
"463","86","text","0","127","1099852","0-0","","","","","","","","","","","","","","","","","","","","","","","","","","","","","","","","","","","","",""
"","","plant-game","0","128","1109260","0-0","","200","160","4","CORN CROP","Right","200","120","4","THISTLE WEED","experimental","51","1,2,3,4","120,107.87353175824545,136.0942489267189,136.9232778483706","4,3,2,1","THISTLE WEED,THISTLE WEED,THISTLE WEED,THISTLE WEED","160,148.5477228478455,173.2764968382046,162.36126933137297","4,3,2,1","CORN CROP,CORN CROP,CORN CROP,CORN CROP","0,0,0,0","20,20,20,20","10,10,10,10","20,20,20,20","20,20,20,20","20,20,20,20","0,0,0,0","20,20,20,20","10,10,10,10","20,20,20,20","20,20,20,20","20,20,20,20","1,1,1,1","2716,490,534,2688","-12.126468241754552,28.22071716847345,0.8290289216516804,19.900375014694607","-11.452277152154494,24.728773990359073,-10.915227506831627,53.43729107571169","0","0"
"336","86","text","0","129","1109776","0-0","","","","","","","","","","","","","","","","","","","","","","","","","","","","","","","","","","","","",""
"","","plant-game","0","130","1123936","0-0","","200","190","4","CORN CROP","Left","200","180","2","THISTLE WEED","experimental","52","1,2,3,4","190,192.4445903837109,238.64300520053106,252.18921416992808","4,3,2,1","CORN CROP,CORN CROP,CORN CROP,CORN CROP","180,204.9048277975849,180,212.62173517472206","2,1,2,1","THISTLE WEED,THISTLE WEED,NETTLE WEED,NETTLE WEED","20,20,20,20","20,20,20,20","10,10,10,10","20,20,20,20","0,0,0,0","20,20,20,20","20,20,20,20","20,20,20,20","10,10,10,10","20,20,20,20","0,0,0,0","20,20,20,20","1,1,1,1","4954,1849,2148,517","2.4445903837108967,46.198414816820154,13.546208969397009,2.2644075727873454","24.90482779758489,1.2333015683447432,32.621735174722055,12.406425929845978","0","0"
"390","86","text","0","131","1124506","0-0","","","","","","","","","","","","","","","","","","","","","","","","","","","","","","","","","","","","",""
"","","plant-game","0","132","1143248","0-0","","200","160","4","WHEAT CROP","Left","200","190","2","THISTLE WEED","experimental","53","1,2,3,4","160,165.99764176689368,159.5709068833146,184.4574728277541","4,3,2,1","WHEAT CROP,WHEAT CROP,WHEAT CROP,WHEAT CROP","190,208.29451570527272,180,211.09622069161526","2,1,2,1","THISTLE WEED,THISTLE WEED,NETTLE WEED,NETTLE WEED","20,20,20,20","20,20,20,20","10,10,10,10","20,20,20,20","0,0,0,0","20,20,20,20","20,20,20,20","20,20,20,20","10,10,10,10","20,20,20,20","0,0,0,0","20,20,20,20","1,1,0,0","5632,535,7738,481","5.997641766893675,-6.426734883579077,24.886565944439504,1.250662202456244","18.294515705272723,-1.0799915804173925,31.096220691615265,11.838705016761725","0","0"
"435","86","text","0","133","1143823","0-0","","","","","","","","","","","","","","","","","","","","","","","","","","","","","","","","","","","","",""
"","","plant-game","0","134","1171794","0-0","","200","160","1","CORN CROP","Left","200","180","8","THISTLE WEED","experimental","54","1,2,3,4,5,6,7,8","160,130,168.45246238911037,183.12870684545064,215.57871131833784,210.4977102791778,191.53821312880712,231.03211289380636","1,7,6,5,4,3,2,1","CORN CROP,WHEAT CROP,WHEAT CROP,WHEAT CROP,WHEAT CROP,WHEAT CROP,WHEAT CROP,WHEAT CROP","180,172.49305723461663,203.58121398553766,213.74710450175152,216.34183926146238,246.84855984734338,267.6366282179409,317.9591279388534","8,7,6,5,4,3,2,1","THISTLE WEED,THISTLE WEED,THISTLE WEED,THISTLE WEED,THISTLE WEED,THISTLE WEED,THISTLE WEED,THISTLE WEED","20,20,20,20,20,20,20,20","20,20,20,20,20,20,20,20","10,10,10,10,10,10,10,10","20,20,20,20,20,20,20,20","0,0,0,0,0,0,0,0","20,20,20,20,20,20,20,20","20,20,20,20,20,20,20,20","20,20,20,20,20,20,20,20","10,10,10,10,10,10,10,10","20,20,20,20,20,20,20,20","0,0,0,0,0,0,0,0","20,20,20,20,20,20,20,20","0,0,0,0,1,0,0,0","13911,5309,108,365,1865,1542,101,91","10.840222757253478,38.452462389110366,14.676244456340275,32.45000447288721,-5.081001039160053,-18.959497150370666,39.49389976499923,37.22006742294817","-7.506942765383386,31.088156750921044,10.165890516213858,2.5947347597108745,30.506720585880988,20.78806837059751,50.32249972091253,-5.7170109730565635","0","0"
"558","86","text","0","135","1172452","0-0","","","","","","","","","","","","","","","","","","","","","","","","","","","","","","","","","","","","",""
"","","plant-game","0","136","1186129","0-0","","200","190","4","CORN CROP","Right","200","190","4","NETTLE WEED","experimental","55","1,2,3,4","190,227.81396075386195,243.18774142540187,236.1670183468465","4,3,2,1","NETTLE WEED,NETTLE WEED,NETTLE WEED,NETTLE WEED","190,188.23487465610577,196.76908673924186,196.37963061283673","4,3,2,1","CORN CROP,CORN CROP,CORN CROP,CORN CROP","0,0,0,0","20,20,20,20","10,10,10,10","20,20,20,20","20,20,20,20","20,20,20,20","0,0,0,0","20,20,20,20","10,10,10,10","20,20,20,20","20,20,20,20","20,20,20,20","1,1,1,1","8334,1648,103,114","37.81396075386194,15.373780671539912,-7.020723078555363,24.24788595747608","-1.7651253438942227,8.534212083136097,-0.38945612640511484,-1.5058417359953395","0","0"
"469","86","text","0","137","1186808","0-0","","","","","","","","","","","","","","","","","","","","","","","","","","","","","","","","","","","","",""
"","","plant-game","0","138","1203117","0-0","","200","190","2","WHEAT CROP","Right","200","190","8","THISTLE WEED","experimental","56","1,2,3,4,5,6,7,8","190,187.49003527149807,222.5963443415796,209.11635987068902,194.3630481263864,194.3805537716383,208.10399900738457,225.0245535976104","8,7,6,5,4,3,2,1","THISTLE WEED,THISTLE WEED,THISTLE WEED,THISTLE WEED,THISTLE WEED,THISTLE WEED,THISTLE WEED,THISTLE WEED","190,211.90605503172196,140,137.63662746890265,142.70652979411796,113.79426371289506,130.2905408873208,93.46660013974406","2,1,6,5,4,3,2,1","WHEAT CROP,WHEAT CROP,CORN CROP,CORN CROP,CORN CROP,CORN CROP,CORN CROP,CORN CROP","0,0,0,0,0,0,0,0","20,20,20,20,20,20,20,20","10,10,10,10,10,10,10,10","20,20,20,20,20,20,20,20","20,20,20,20,20,20,20,20","20,20,20,20,20,20,20,20","0,0,0,0,0,0,0,0","20,20,20,20,20,20,20,20","10,10,10,10,10,10,10,10","20,20,20,20,20,20,20,20","20,20,20,20,20,20,20,20","20,20,20,20,20,20,20,20","1,1,0,0,0,0,0,0","3243,351,2886,422,884,1301,1798,665","-2.509964728501931,35.10630907008153,-13.479984470890578,-14.753311744302628,0.017505645251900424,13.723445235746283,16.92055459022584,-14.067427738094299","21.90605503172197,63.02476925169394,-2.3633725310973634,5.069902325215323,-28.912266081222903,16.496277174425728,-36.82394074757673,-16.151825143369308","0","0"
"435","86","text","0","139","1203622","0-0","","","","","","","","","","","","","","","","","","","","","","","","","","","","","","","","","","","","",""
"","","plant-game","0","140","1224100","0-0","","200","180","8","CORN CROP","Left","200","180","2","THISTLE WEED","experimental","57","1,2,3,4,5,6,7,8","180,155.2391119987732,157.82350006454232,213.21729359207197,213.1498424844945,214.86073073429066,179.32442155290252,190.68784328129874","8,7,6,5,4,3,2,1","CORN CROP,CORN CROP,CORN CROP,CORN CROP,CORN CROP,CORN CROP,CORN CROP,CORN CROP","180,152.45332023298835,140,156.3276996941579,199.68552595990835,204.03088709803416,240.63474484194728,266.3008012482104","2,1,6,5,4,3,2,1","THISTLE WEED,THISTLE WEED,NETTLE WEED,NETTLE WEED,NETTLE WEED,NETTLE WEED,NETTLE WEED,NETTLE WEED","20,20,20,20,20,20,20,20","20,20,20,20,20,20,20,20","10,10,10,10,10,10,10,10","20,20,20,20,20,20,20,20","0,0,0,0,0,0,0,0","20,20,20,20,20,20,20,20","20,20,20,20,20,20,20,20","20,20,20,20,20,20,20,20","10,10,10,10,10,10,10,10","20,20,20,20,20,20,20,20","0,0,0,0,0,0,0,0","20,20,20,20,20,20,20,20","1,1,0,0,1,1,0,0","3151,273,4584,2137,1391,2180,2275,404","-24.760888001226796,2.584388065769114,55.39379352752965,-0.0674511075774511,1.7108882497961517,-35.53630918138813,11.363421728396222,30.97649876305789","-27.546679767011657,4.302699360025011,16.327699694157904,43.35782626575045,4.3453611381258135,36.60385774391312,25.6660564062631,35.39922525160574","0","0"
"230","86","text","0","141","1224420","0-0","","","","","","","","","","","","","","","","","","","","","","","","","","","","","","","","","","","","",""
"","","plant-game","0","142","1234193","0-0","","200","160","4","CORN CROP","Right","200","180","4","THISTLE WEED","experimental","58","1,2,3,4","180,170.724199097476,174.52116034384008,180.24010321488163","4,3,2,1","THISTLE WEED,THISTLE WEED,THISTLE WEED,THISTLE WEED","160,191.07410462686354,227.35386372756017,220.53408934636028","4,3,2,1","CORN CROP,CORN CROP,CORN CROP,CORN CROP","0,0,0,0","20,20,20,20","10,10,10,10","20,20,20,20","20,20,20,20","20,20,20,20","0,0,0,0","20,20,20,20","10,10,10,10","20,20,20,20","20,20,20,20","20,20,20,20","1,1,0,0","4436,430,1136,1137","-9.275800902523983,3.7969612463640665,5.718942871041536,6.976286418649629","31.074104626863555,36.27975910069662,-6.819774381199889,35.16229091764019","0","0"
"392","86","text","0","143","1234725","0-0","","","","","","","","","","","","","","","","","","","","","","","","","","","","","","","","","","","","",""
"","","plant-game","0","144","1241101","0-0","","200","190","2","WHEAT CROP","Right","200","180","2","THISTLE WEED","experimental","59","1,2","180,186.15698045865207","2,1","THISTLE WEED,THISTLE WEED","190,204.89526229312426","2,1","WHEAT CROP,WHEAT CROP","0,0","20,20","10,10","20,20","20,20","20,20","0,0","20,20","10,10","20,20","20,20","20,20","0,0","2366,1024","6.156980458652065,23.94738086226297","14.895262293124258,38.41159867168035","0","0"
"226","86","text","0","145","1241427","0-0","","","","","","","","","","","","","","","","","","","","","","","","","","","","","","","","","","","","",""
"","","plant-game","0","146","1251922","0-0","","200","120","1","CORN CROP","Right","200","160","1","THISTLE WEED","experimental","60","1","160","1","THISTLE WEED","120","1","CORN CROP","0","20","10","20","20","20","0","20","10","20","20","20","0","7338","1.6502273602243918","-33.800464890532595","0","0"
"751","86","text","0","147","1252873","0-0","","","","","","","","","","","","","","","","","","","","","","","","","","","","","","","","","","","","",""
"","","plant-game","0","148","1266386","0-0","","200","180","4","WHEAT CROP","Right","200","180","2","NETTLE WEED","experimental","61","1,2,3,4","180,191.26540480220552,180,182.92852339470244","2,1,2,1","NETTLE WEED,NETTLE WEED,THISTLE WEED,THISTLE WEED","180,157.1755480216966,160.86023828889572,171.88986866207972","4,3,2,1","WHEAT CROP,WHEAT CROP,WHEAT CROP,WHEAT CROP","0,0,0,0","20,20,20,20","10,10,10,10","20,20,20,20","20,20,20,20","20,20,20,20","0,0,0,0","20,20,20,20","10,10,10,10","20,20,20,20","20,20,20,20","20,20,20,20","0,0,0,0","5533,1042,2496,359","11.26540480220552,-0.3409855142942633,2.9285233947024407,-16.934441709347666","-22.824451978303394,3.684690267199111,11.029630373184002,4.619958878408646","0","0"
"174","86","text","0","149","1266700","0-0","","","","","","","","","","","","","","","","","","","","","","","","","","","","","","","","","","","","",""
"","","plant-game","0","150","1278976","0-0","","200","120","1","WHEAT CROP","Left","200","190","2","THISTLE WEED","experimental","62","1,2","120,190","1,1","WHEAT CROP,CORN CROP","190,210.36293555857577","2,1","THISTLE WEED,THISTLE WEED","20,20","20,20","10,10","20,20","0,0","20,20","20,20","20,20","10,10","20,20","0,0","20,20","1,0","4389,3905","-17.8810854202669,40.150285250519765","20.36293555857577,40.95558636455245","0","0"
"423","86","text","0","151","1279529","0-0","","","","","","","","","","","","","","","","","","","","","","","","","","","","","","","","","","","","",""
"","","plant-game","0","152","1287449","0-0","","200","120","2","CORN CROP","Left","200","160","2","THISTLE WEED","experimental","63","1,2","120,147.92897967361898","2,1","CORN CROP,CORN CROP","160,169.0080892618516","2,1","THISTLE WEED,THISTLE WEED","20,20","20,20","10,10","20,20","0,0","20,20","20,20","20,20","10,10","20,20","0,0","20,20","1,1","5534,102","27.928979673618983,-3.8707251746821125","9.00808926185162,-12.462369499183524","0","0"
"204","86","text","0","153","1287793","0-0","","","","","","","","","","","","","","","","","","","","","","","","","","","","","","","","","","","","",""
"","","plant-game","0","154","1309310","0-0","","200","120","1","CORN CROP","Right","200","180","2","THISTLE WEED","experimental","64","1,2","180,187.40813161436606","2,1","THISTLE WEED,THISTLE WEED","120,190","1,1","CORN CROP,WHEAT CROP","0,0","20,20","10,10","20,20","20,20","20,20","0,0","20,20","10,10","20,20","20,20","20,20","0,1","13735,2933","7.408131614366049,31.210611350300407","-40.67784674537707,34.88359558863919","0","0"
"3995","86","text","0","155","1313475","0-0","","","","","","","","","","","","","","","","","","","","","","","","","","","","","","","","","","","","",""
"","","plant-game","0","156","1334590","0-0","","200","120","4","WHEAT CROP","Right","200","180","8","NETTLE WEED","experimental","65","1,2,3,4,5,6,7,8","180,233.21921310810467,232.27073954834597,249.5599127299114,261.2647461653829,292.1522994898851,309.4322334611008,328.43605955499504","8,7,6,5,4,3,2,1","NETTLE WEED,NETTLE WEED,NETTLE WEED,NETTLE WEED,NETTLE WEED,NETTLE WEED,NETTLE WEED,NETTLE WEED","120,153.4654691897284,148.09434151830132,185.70664277405388,160,196.94143761369935,199.15252161439395,192.9825640880613","4,3,2,1,4,3,2,1","WHEAT CROP,WHEAT CROP,WHEAT CROP,WHEAT CROP,CORN CROP,CORN CROP,CORN CROP,CORN CROP","0,0,0,0,0,0,0,0","20,20,20,20,20,20,20,20","10,10,10,10,10,10,10,10","20,20,20,20,20,20,20,20","20,20,20,20,20,20,20,20","20,20,20,20,20,20,20,20","0,0,0,0,0,0,0,0","20,20,20,20,20,20,20,20","10,10,10,10,10,10,10,10","20,20,20,20,20,20,20,20","20,20,20,20,20,20,20,20","20,20,20,20,20,20,20,20","1,1,1,1,1,1,1,1","12851,129,360,768,2076,89,67,337","53.219213108104654,-0.9484735597587068,17.28917318156541,11.704833435471523,30.887553324502186,17.27993397121572,19.003826093894254,-4.654576892083625","33.4654691897284,-5.371127671427082,37.61230125575254,1.8259095844534166,36.94143761369935,2.2110840006945907,-6.169957526332649,1.7967521965217195","0","0"
"469","86","text","0","157","1335229","0-0","","","","","","","","","","","","","","","","","","","","","","","","","","","","","","","","","","","","",""
"","","plant-game","0","158","1349954","0-0","","200","160","1","CORN CROP","Left","200","160","4","THISTLE WEED","experimental","66","1,2,3,4","160,170,197.78914744861635,210.03011408590743","1,3,2,1","CORN CROP,WHEAT CROP,WHEAT CROP,WHEAT CROP","160,131.82102046057625,184.6106551989372,159.44445938910252","4,3,2,1","THISTLE WEED,THISTLE WEED,THISTLE WEED,THISTLE WEED","20,20,20,20","20,20,20,20","10,10,10,10","20,20,20,20","0,0,0,0","20,20,20,20","20,20,20,20","20,20,20,20","10,10,10,10","20,20,20,20","0,0,0,0","20,20,20,20","1,0,0,0","3525,4219,440,2586","14.883329894909805,27.789147448616347,12.240966637291091,-5.687901015203995","-28.17897953942375,52.78963473836093,-25.16619580983467,4.571402560039104","0","0"
"397","86","text","0","159","1350522","0-0","","","","","","","","","","","","","","","","","","","","","","","","","","","","","","","","","","","","",""
"","","plant-game","0","160","1367988","0-0","","200","190","1","CORN CROP","Left","200","190","8","THISTLE WEED","experimental","67","1,2,3,4,5,6,7,8","190,130,151.61762836301804,186.60668312865238,176.16499271993874,145.5353293521386,192.66599106514832,201.67538878419273","1,7,6,5,4,3,2,1","CORN CROP,WHEAT CROP,WHEAT CROP,WHEAT CROP,WHEAT CROP,WHEAT CROP,WHEAT CROP,WHEAT CROP","190,206.14144909495047,203.1716050107144,193.05677409278184,203.71806767607998,218.15651584971877,245.57834964437467,245.73978623478007","8,7,6,5,4,3,2,1","THISTLE WEED,THISTLE WEED,THISTLE WEED,THISTLE WEED,THISTLE WEED,THISTLE WEED,THISTLE WEED,THISTLE WEED","20,20,20,20,20,20,20,20","20,20,20,20,20,20,20,20","10,10,10,10,10,10,10,10","20,20,20,20,20,20,20,20","0,0,0,0,0,0,0,0","20,20,20,20,20,20,20,20","20,20,20,20,20,20,20,20","20,20,20,20,20,20,20,20","10,10,10,10,10,10,10,10","20,20,20,20,20,20,20,20","0,0,0,0,0,0,0,0","20,20,20,20,20,20,20,20","0,1,1,1,1,0,0,0","3985,3536,368,1298,1570,1568,92,86","-25.99806657670588,21.617628363018042,34.989054765634336,-10.441690408713635,-30.62966336780012,47.130661713009715,9.009397719044427,22.34030523880958","16.141449094950485,-2.9698440842360907,-10.11483091793256,10.661293583298146,14.43844817363878,27.421833794655882,0.1614365904054047,14.417735931410636","0","0"
"137","86","text","0","161","1368275","0-0","","","","","","","","","","","","","","","","","","","","","","","","","","","","","","","","","","","","",""
"","","plant-game","0","162","1387326","0-0","","200","160","1","CORN CROP","Left","200","190","8","THISTLE WEED","experimental","68","1,2,3,4,5,6,7,8","160,130,124.46789001680703,174.50040289206143,185.97333041684814,223.82677865332852,200.14992785762573,234.58121023900213","1,7,6,5,4,3,2,1","CORN CROP,WHEAT CROP,WHEAT CROP,WHEAT CROP,WHEAT CROP,WHEAT CROP,WHEAT CROP,WHEAT CROP","190,170.1074095042247,178.7401626247423,191.9636066491969,199.11889181986402,211.30754968776023,223.81645928627356,244.08160197907767","8,7,6,5,4,3,2,1","THISTLE WEED,THISTLE WEED,THISTLE WEED,THISTLE WEED,THISTLE WEED,THISTLE WEED,THISTLE WEED,THISTLE WEED","20,20,20,20,20,20,20,20","20,20,20,20,20,20,20,20","10,10,10,10,10,10,10,10","20,20,20,20,20,20,20,20","0,0,0,0,0,0,0,0","20,20,20,20,20,20,20,20","20,20,20,20,20,20,20,20","20,20,20,20,20,20,20,20","10,10,10,10,10,10,10,10","20,20,20,20,20,20,20,20","0,0,0,0,0,0,0,0","20,20,20,20,20,20,20,20","1,0,0,0,0,1,0,0","6108,5171,95,112,196,1293,1328,821","11.343257655796691,-5.532109983192971,50.0325128752544,11.472927524786712,37.85344823648039,-23.676850795702787,34.4312823813764,5.351726972675957","-19.892590495775288,8.63275312051762,13.223444024454581,7.155285170667117,12.188657867896225,12.508909598513325,20.265142692804123,15.048458048164328","0","0"
"448","86","text","0","163","1387804","0-0","","","","","","","","","","","","","","","","","","","","","","","","","","","","","","","","","","","","",""
"","","plant-game","0","164","1399359","0-0","","200","190","2","WHEAT CROP","Right","200","190","4","THISTLE WEED","experimental","69","1,2,3,4","190,216.361186012365,241.00856249998043,277.05537795974","4,3,2,1","THISTLE WEED,THISTLE WEED,THISTLE WEED,THISTLE WEED","190,225.90639911318937,180,168.0113700810998","2,1,2,1","WHEAT CROP,WHEAT CROP,CORN CROP,CORN CROP","0,0,0,0","20,20,20,20","10,10,10,10","20,20,20,20","20,20,20,20","20,20,20,20","0,0,0,0","20,20,20,20","10,10,10,10","20,20,20,20","20,20,20,20","20,20,20,20","1,1,1,1","2631,1256,2584,318","26.36118601236501,24.647376487615418,36.04681545975956,-45.67292657639568","35.906399113189366,40.616198764124015,-11.988629918900191,1.802022387926833","0","0"
"390","86","text","0","165","1399929","0-0","","","","","","","","","","","","","","","","","","","","","","","","","","","","","","","","","","","","",""
"","","plant-game","0","166","1413818","0-0","","200","180","2","CORN CROP","Left","200","160","8","NETTLE WEED","experimental","70","1,2,3,4,5,6,7,8","180,212.14404268087782,140,167.84787368121016,179.11027842752347,253.81347482794797,254.94570829628822,238.5653979105831","2,1,6,5,4,3,2,1","CORN CROP,CORN CROP,WHEAT CROP,WHEAT CROP,WHEAT CROP,WHEAT CROP,WHEAT CROP,WHEAT CROP","160,184.42389209765446,232.0802345084665,275.0576699985238,290.7326179579639,320.7795006684396,332.533169674774,348.4382147665604","8,7,6,5,4,3,2,1","NETTLE WEED,NETTLE WEED,NETTLE WEED,NETTLE WEED,NETTLE WEED,NETTLE WEED,NETTLE WEED,NETTLE WEED","20,20,20,20,20,20,20,20","20,20,20,20,20,20,20,20","10,10,10,10,10,10,10,10","20,20,20,20,20,20,20,20","0,0,0,0,0,0,0,0","20,20,20,20,20,20,20,20","20,20,20,20,20,20,20,20","20,20,20,20,20,20,20,20","10,10,10,10,10,10,10,10","20,20,20,20,20,20,20,20","0,0,0,0,0,0,0,0","20,20,20,20,20,20,20,20","0,0,0,0,0,0,0,0","3538,932,3475,132,88,60,61,801","32.14404268087781,11.91443901420695,27.847873681210153,11.262404746313306,74.70319640042452,1.1322334683402318,-16.3803103857051,0.20823146670252157","24.423892097654463,47.65634241081203,42.97743549005729,15.674947959440063,30.04688271047567,11.753669006334425,15.90504509178641,43.08706044231742","0","0"
"419","86","text","0","167","1414333","0-0","","","","","","","","","","","","","","","","","","","","","","","","","","","","","","","","","","","","",""
"","","plant-game","0","168","1428861","0-0","","200","160","2","CORN CROP","Right","200","190","1","NETTLE WEED","experimental","71","1,2","190,190","1,1","NETTLE WEED,THISTLE WEED","160,153.8562926111186","2,1","CORN CROP,CORN CROP","0,0","20,20","10,10","20,20","20,20","20,20","0,0","20,20","10,10","20,20","20,20","20,20","0,0","8547,2195","-6.987146088902371,0.06081814925131525","-6.143707388881396,-2.105609113205498","0","0"
"366","86","text","0","169","1429414","0-0","","","","","","","","","","","","","","","","","","","","","","","","","","","","","","","","","","","","",""
"","","plant-game","0","170","1442974","0-0","","200","190","1","CORN CROP","Left","200","190","2","NETTLE WEED","experimental","72","1,2","190,190","1,1","CORN CROP,WHEAT CROP","190,211.3532902964243","2,1","NETTLE WEED,NETTLE WEED","20,20","20,20","10,10","20,20","0,0","20,20","20,20","20,20","10,10","20,20","0,0","20,20","0,0","6672,3056","-1.5674087238427923,-18.53848526010838","21.353290296424294,48.77751024568013","0","0"
"359","86","text","0","171","1443493","0-0","","","","","","","","","","","","","","","","","","","","","","","","","","","","","","","","","","","","",""
"","","plant-game","0","172","1458573","0-0","","200","120","2","WHEAT CROP","Right","200","160","8","THISTLE WEED","experimental","73","1,2,3,4,5,6,7,8","160,188.84293035849777,202.39822206890207,230.85800428646624,237.76631866811712,270.2457874759508,284.05391393785186,312.401081820414","8,7,6,5,4,3,2,1","THISTLE WEED,THISTLE WEED,THISTLE WEED,THISTLE WEED,THISTLE WEED,THISTLE WEED,THISTLE WEED,THISTLE WEED","120,97.76519896070846,140,143.4705194270963,170.8245879071421,226.94918374297094,238.88673928892416,271.6115524071276","2,1,6,5,4,3,2,1","WHEAT CROP,WHEAT CROP,CORN CROP,CORN CROP,CORN CROP,CORN CROP,CORN CROP,CORN CROP","0,0,0,0,0,0,0,0","20,20,20,20,20,20,20,20","10,10,10,10,10,10,10,10","20,20,20,20,20,20,20,20","20,20,20,20,20,20,20,20","20,20,20,20,20,20,20,20","0,0,0,0,0,0,0,0","20,20,20,20,20,20,20,20","10,10,10,10,10,10,10,10","20,20,20,20,20,20,20,20","20,20,20,20,20,20,20,20","20,20,20,20,20,20,20,20","0,0,1,1,1,1,1,1","6219,89,3503,53,44,52,35,359","28.842930358497764,13.555291710404294,28.45978221756416,6.908314381650879,32.479468807833655,13.808126461901075,28.34716788256213,29.706006913631448","-22.234801039291533,-6.475566241228769,3.4705194270962956,27.35406848004582,56.124595835828835,11.93755554595321,32.72481311820343,14.921315083901455","0","0"
"94","86","text","0","173","1458817","0-0","","","","","","","","","","","","","","","","","","","","","","","","","","","","","","","","","","","","",""
"","","plant-game","0","174","1468332","0-0","","200","180","2","WHEAT CROP","Right","200","190","4","THISTLE WEED","experimental","74","1,2,3,4","190,193.41837256817757,206.68440223325535,232.92223139583825","4,3,2,1","THISTLE WEED,THISTLE WEED,THISTLE WEED,THISTLE WEED","180,205.66018401686165,180,185.92025158093716","2,1,2,1","WHEAT CROP,WHEAT CROP,CORN CROP,CORN CROP","0,0,0,0","20,20,20,20","10,10,10,10","20,20,20,20","20,20,20,20","20,20,20,20","0,0,0,0","20,20,20,20","10,10,10,10","20,20,20,20","20,20,20,20","20,20,20,20","1,1,1,1","2755,125,2195,107","3.4183725681775634,13.266029665077793,26.237829162582884,-1.883214253350296","25.660184016861663,26.41193930015133,5.920251580937158,4.232164559770382","0","0"
"376","86","text","0","175","1468848","0-0","","","","","","","","","","","","","","","","","","","","","","","","","","","","","","","","","","","","",""
"","","plant-game","0","176","1476797","0-0","","200","180","2","CORN CROP","Left","200","180","2","THISTLE WEED","experimental","75","1,2","180,169.11488278237562","2,1","CORN CROP,CORN CROP","180,212.0777133947355","2,1","THISTLE WEED,THISTLE WEED","20,20","20,20","10,10","20,20","0,0","20,20","20,20","20,20","10,10","20,20","0,0","20,20","0,0","2324,3001","-10.885117217624376,-2.896413647134871","32.0777133947355,10.063599706349969","0","0"
"416","86","text","0","177","1477333","0-0","","","","","","","","","","","","","","","","","","","","","","","","","","","","","","","","","","","","",""
"","","plant-game","0","178","1491788","0-0","","200","120","8","CORN CROP","Left","200","160","2","THISTLE WEED","experimental","76","1,2,3,4,5,6,7,8","120,131.3797150336943,170.79804569311787,200.74916553377392,256.02557230326136,241.96673952510164,211.37534285308007,258.6379751465698","8,7,6,5,4,3,2,1","CORN CROP,CORN CROP,CORN CROP,CORN CROP,CORN CROP,CORN CROP,CORN CROP,CORN CROP","160,170.7389315745161,140,168.78645203262533,206.18832625045465,218.7501598299506,225.37424087900345,226.54455084542317","2,1,6,5,4,3,2,1","THISTLE WEED,THISTLE WEED,NETTLE WEED,NETTLE WEED,NETTLE WEED,NETTLE WEED,NETTLE WEED,NETTLE WEED","20,20,20,20,20,20,20,20","20,20,20,20,20,20,20,20","10,10,10,10,10,10,10,10","20,20,20,20,20,20,20,20","0,0,0,0,0,0,0,0","20,20,20,20,20,20,20,20","20,20,20,20,20,20,20,20","20,20,20,20,20,20,20,20","10,10,10,10,10,10,10,10","20,20,20,20,20,20,20,20","0,0,0,0,0,0,0,0","20,20,20,20,20,20,20,20","0,0,0,0,1,1,0,0","1437,395,2074,1615,860,1366,1268,493","11.379715033694303,39.41833065942356,29.951119840656055,55.276406769487444,-14.058832778159703,-30.59139667202157,47.262632293489716,15.671229828718804","10.738931574516089,28.85436566798183,28.786452032625338,37.40187421782932,12.561833579495943,6.624081049052836,1.1703099664197332,50.844633339891935","0","0"
"88","86","text","0","179","1492096","0-0","","","","","","","","","","","","","","","","","","","","","","","","","","","","","","","","","","","","",""
"","","plant-game","0","180","1510245","0-0","","200","120","8","CORN CROP","Left","200","180","4","NETTLE WEED","experimental","77","1,2,3,4,5,6,7,8","120,154.0107167811712,146.9834639018357,154.7244596608636,211.2618227548073,233.59668469312058,242.82040168324687,250.95220910241977","8,7,6,5,4,3,2,1","CORN CROP,CORN CROP,CORN CROP,CORN CROP,CORN CROP,CORN CROP,CORN CROP,CORN CROP","180,201.59974412767374,187.50372564647597,209.26129363529097,160,197.9419624610986,215.9800430233067,218.15959904443037","4,3,2,1,4,3,2,1","NETTLE WEED,NETTLE WEED,NETTLE WEED,NETTLE WEED,THISTLE WEED,THISTLE WEED,THISTLE WEED,THISTLE WEED","20,20,20,20,20,20,20,20","20,20,20,20,20,20,20,20","10,10,10,10,10,10,10,10","20,20,20,20,20,20,20,20","0,0,0,0,0,0,0,0","20,20,20,20,20,20,20,20","20,20,20,20,20,20,20,20","20,20,20,20,20,20,20,20","10,10,10,10,10,10,10,10","20,20,20,20,20,20,20,20","0,0,0,0,0,0,0,0","20,20,20,20,20,20,20,20","0,1,1,0,0,1,1,0","940,846,361,575,6418,1315,1780,1291","34.01071678117118,-7.0272528793355,7.740995759027905,56.53736309394369,22.334861938313274,9.223716990126288,8.131807419172908,69.06074689580646","21.599744127673738,-14.096018481197767,21.75756798881499,29.004639827871785,37.941962461098605,18.03808056220811,2.1795560211236626,-12.86774843487018","0","0"
"81","86","text","0","181","1510511","0-0","","","","","","","","","","","","","","","","","","","","","","","","","","","","","","","","","","","","",""
"","","plant-game","0","182","1523819","0-0","","200","160","8","CORN CROP","Right","200","180","1","NETTLE WEED","experimental","78","1,2,3,4,5,6,7,8","180,130,175.97192488555055,222.1886900916777,236.1592484165602,243.30257787975992,278.10526083369047,274.97728982885167","1,7,6,5,4,3,2,1","NETTLE WEED,THISTLE WEED,THISTLE WEED,THISTLE WEED,THISTLE WEED,THISTLE WEED,THISTLE WEED,THISTLE WEED","160,141.08141784356647,177.38328664818212,187.00442215684694,205.69561645011888,233.117139395231,247.54181943659796,299.545362740698","8,7,6,5,4,3,2,1","CORN CROP,CORN CROP,CORN CROP,CORN CROP,CORN CROP,CORN CROP,CORN CROP,CORN CROP","0,0,0,0,0,0,0,0","20,20,20,20,20,20,20,20","10,10,10,10,10,10,10,10","20,20,20,20,20,20,20,20","20,20,20,20,20,20,20,20","20,20,20,20,20,20,20,20","0,0,0,0,0,0,0,0","20,20,20,20,20,20,20,20","10,10,10,10,10,10,10,10","20,20,20,20,20,20,20,20","20,20,20,20,20,20,20,20","20,20,20,20,20,20,20,20","0,1,1,1,1,1,1,1","3251,1741,346,528,930,621,1390,55","10.449620085728036,45.971924885550564,46.21676520612715,13.970558324882482,7.143329463199741,34.80268295393054,-3.127971004838791,19.935638539937848","-18.918582156433533,36.301868804615644,9.621135508664807,18.691194293271934,27.42152294511213,14.424680041366962,52.00354330410005,4.660274898037198","0","0"
"444","86","text","0","183","1524473","0-0","","","","","","","","","","","","","","","","","","","","","","","","","","","","","","","","","","","","",""
"","","plant-game","0","184","1539810","0-0","","200","190","1","WHEAT CROP","Right","200","180","8","NETTLE WEED","experimental","79","1,2,3,4,5,6,7,8","180,211.04539035277128,177.42209327590405,190.73386518919406,187.91258662246818,157.04091233119513,135.10340508025502,172.0041321163834","8,7,6,5,4,3,2,1","NETTLE WEED,NETTLE WEED,NETTLE WEED,NETTLE WEED,NETTLE WEED,NETTLE WEED,NETTLE WEED,NETTLE WEED","190,130,134.13119279453704,104.52118045393425,117.46203535366219,114.88685993015135,117.63775345723704,125.94560188388141","1,7,6,5,4,3,2,1","WHEAT CROP,CORN CROP,CORN CROP,CORN CROP,CORN CROP,CORN CROP,CORN CROP,CORN CROP","0,0,0,0,0,0,0,0","20,20,20,20,20,20,20,20","10,10,10,10,10,10,10,10","20,20,20,20,20,20,20,20","20,20,20,20,20,20,20,20","20,20,20,20,20,20,20,20","0,0,0,0,0,0,0,0","20,20,20,20,20,20,20,20","10,10,10,10,10,10,10,10","20,20,20,20,20,20,20,20","20,20,20,20,20,20,20,20","20,20,20,20,20,20,20,20","1,0,0,0,0,0,0,0","2306,1757,401,1133,594,385,340,319","31.045390352771264,-33.62329707686723,13.311771913290023,-2.8212785667258764,-30.87167429127306,-21.937507250940122,36.9007270361284,-4.562137512876696","0.8209622224669992,4.131192794537033,-29.610012340602797,12.940854899727935,-2.575175423510838,2.7508935270857,8.307848426644371,-13.089175769753403","0","0"
"86","86","text","0","185","1540026","0-0","","","","","","","","","","","","","","","","","","","","","","","","","","","","","","","","","","","","",""
"","","plant-game","0","186","1552221","0-0","","200","190","8","WHEAT CROP","Right","200","120","2","NETTLE WEED","experimental","80","1,2,3,4,5,6,7,8","120,122.72960467217617,140,145.53286701577156,124.71444538507725,98.59203827296072,84.33810961838188,90.60192274989964","2,1,6,5,4,3,2,1","NETTLE WEED,NETTLE WEED,THISTLE WEED,THISTLE WEED,THISTLE WEED,THISTLE WEED,THISTLE WEED,THISTLE WEED","190,192.46574185481214,194.79444476221312,197.90636733197135,182.887395545391,201.41419221232516,226.4918155762703,206.87638238590054","8,7,6,5,4,3,2,1","WHEAT CROP,WHEAT CROP,WHEAT CROP,WHEAT CROP,WHEAT CROP,WHEAT CROP,WHEAT CROP,WHEAT CROP","0,0,0,0,0,0,0,0","20,20,20,20,20,20,20,20","10,10,10,10,10,10,10,10","20,20,20,20,20,20,20,20","20,20,20,20,20,20,20,20","20,20,20,20,20,20,20,20","0,0,0,0,0,0,0,0","20,20,20,20,20,20,20,20","10,10,10,10,10,10,10,10","20,20,20,20,20,20,20,20","20,20,20,20,20,20,20,20","20,20,20,20,20,20,20,20","0,0,0,0,0,0,0,0","3078,105,1325,310,646,666,437,813","2.729604672176167,-12.624310582022655,5.532867015771549,-20.8184216306943,-26.122407112116534,-14.253928654578846,6.263813131517766,-34.56945062824459","2.46574185481213,2.3287029074009697,3.111922569758234,-15.018971786580344,18.526796666934157,25.077623363945165,-19.615433190369764,-4.35194459697536","0","0"
"137","86","text","0","187","1552570","0-0","","","","","","","","","","","","","","","","","","","","","","","","","","","","","","","","","","","","",""
"","","plant-game","0","188","1561737","0-0","","200","180","4","CORN CROP","Right","200","120","8","NETTLE WEED","experimental","81","1,2,3,4,5,6,7,8","120,151.3992647922872,163.74053955923137,183.03471609855467,154.96682786203507,190.11066356180825,185.3955123617693,162.21585379012524","8,7,6,5,4,3,2,1","NETTLE WEED,NETTLE WEED,NETTLE WEED,NETTLE WEED,NETTLE WEED,NETTLE WEED,NETTLE WEED,NETTLE WEED","180,191.8007267281031,203.32703383001464,207.08751646152533,160,182.28897152960027,200.20256314392702,233.02877822216993","4,3,2,1,4,3,2,1","CORN CROP,CORN CROP,CORN CROP,CORN CROP,WHEAT CROP,WHEAT CROP,WHEAT CROP,WHEAT CROP","0,0,0,0,0,0,0,0","20,20,20,20,20,20,20,20","10,10,10,10,10,10,10,10","20,20,20,20,20,20,20,20","20,20,20,20,20,20,20,20","20,20,20,20,20,20,20,20","0,0,0,0,0,0,0,0","20,20,20,20,20,20,20,20","10,10,10,10,10,10,10,10","20,20,20,20,20,20,20,20","20,20,20,20,20,20,20,20","20,20,20,20,20,20,20,20","1,1,1,0,1,1,1,1","1626,99,91,1314,828,67,57,931","31.39926479228719,12.34127476694417,19.294176539323313,-28.067888236519593,35.14383569977317,-4.71515120003896,-23.17965857164407,1.0654183848445022","11.800726728103077,11.526307101911566,3.7604826315106834,10.955491916806503,22.28897152960027,17.91359161432674,32.82621507824291,10.52367953097806","0","0"
"121","86","text","0","189","1562028","0-0","","","","","","","","","","","","","","","","","","","","","","","","","","","","","","","","","","","","",""
"","","plant-game","0","190","1566911","0-0","","200","160","1","CORN CROP","Right","200","190","1","THISTLE WEED","experimental","82","1","190","1","THISTLE WEED","160","1","CORN CROP","0","20","10","20","20","20","0","20","10","20","20","20","0","1830","6.822673939053233","7.601820852171866","0","0"
"389","86","text","0","191","1567481","0-0","","","","","","","","","","","","","","","","","","","","","","","","","","","","","","","","","","","","",""
"","","plant-game","0","192","1579644","0-0","","200","190","4","CORN CROP","Right","200","190","8","THISTLE WEED","experimental","83","1,2,3,4,5,6,7,8","190,203.6564202791978,242.96857505782506,300.49929774189746,334.5450388329784,329.04384192795015,371.61355138580717,418.887215623171","8,7,6,5,4,3,2,1","THISTLE WEED,THISTLE WEED,THISTLE WEED,THISTLE WEED,THISTLE WEED,THISTLE WEED,THISTLE WEED,THISTLE WEED","190,174.80602719231834,169.5519356084729,186.69608778987268,160,182.52808228711268,162.26042191381538,159.0213866058311","4,3,2,1,4,3,2,1","CORN CROP,CORN CROP,CORN CROP,CORN CROP,WHEAT CROP,WHEAT CROP,WHEAT CROP,WHEAT CROP","0,0,0,0,0,0,0,0","20,20,20,20,20,20,20,20","10,10,10,10,10,10,10,10","20,20,20,20,20,20,20,20","20,20,20,20,20,20,20,20","20,20,20,20,20,20,20,20","0,0,0,0,0,0,0,0","20,20,20,20,20,20,20,20","10,10,10,10,10,10,10,10","20,20,20,20,20,20,20,20","20,20,20,20,20,20,20,20","20,20,20,20,20,20,20,20","0,1,1,1,1,1,1,1","3065,2927,53,62,820,44,28,28","13.6564202791978,39.31215477862727,57.53072268407239,34.0457410910809,-5.5011969050282445,42.56970945785701,47.27366423736383,10.14009551701559","-15.193972807681673,-5.254091583845451,17.1441521813998,20.891118221443858,22.528082287112685,-20.267660373297296,-3.2390353079842598,15.638050391092037","0","0"
"436","86","text","0","193","1580260","0-0","","","","","","","","","","","","","","","","","","","","","","","","","","","","","","","","","","","","",""
"","","plant-game","0","194","1599220","0-0","","200","160","4","CORN CROP","Right","200","120","8","THISTLE WEED","experimental","84","1,2,3,4,5,6,7,8","120,118.60253467400028,93.15822769762775,103.13794477597389,115.76439633757404,133.59991829264231,174.66608723921735,178.93304591405337","8,7,6,5,4,3,2,1","THISTLE WEED,THISTLE WEED,THISTLE WEED,THISTLE WEED,THISTLE WEED,THISTLE WEED,THISTLE WEED,THISTLE WEED","160,172.5317192816983,187.4110214382465,227.62630524434826,160,202.01714181391608,265.7572209571467,272.64866702756024","4,3,2,1,4,3,2,1","CORN CROP,CORN CROP,CORN CROP,CORN CROP,WHEAT CROP,WHEAT CROP,WHEAT CROP,WHEAT CROP","0,0,0,0,0,0,0,0","20,20,20,20,20,20,20,20","10,10,10,10,10,10,10,10","20,20,20,20,20,20,20,20","20,20,20,20,20,20,20,20","20,20,20,20,20,20,20,20","0,0,0,0,0,0,0,0","20,20,20,20,20,20,20,20","10,10,10,10,10,10,10,10","20,20,20,20,20,20,20,20","20,20,20,20,20,20,20,20","20,20,20,20,20,20,20,20","1,1,1,1,1,1,0,0","3409,402,401,2803,2855,1069,2316,926","-1.3974653259997218,-25.44430697637253,9.979717078346141,12.62645156160015,17.835521955068273,41.06616894657504,4.266958674836024,8.669260556143488","12.531719281698292,14.879302156548233,40.21528380610174,16.77066369753414,42.01714181391609,63.74007914323066,6.891446070413508,-21.648109625888814","0","0"
"377","86","text","0","195","1599787","0-0","","","","","","","","","","","","","","","","","","","","","","","","","","","","","","","","","","","","",""
"","","plant-game","0","196","1606837","0-0","","200","190","1","CORN CROP","Left","200","190","1","THISTLE WEED","experimental","85","1","190","1","CORN CROP","190","1","THISTLE WEED","20","20","10","20","0","20","20","20","10","20","0","20","0","3388","-39.11485525604775","42.63154490070407","0","0"
"466","86","text","0","197","1607535","0-0","","","","","","","","","","","","","","","","","","","","","","","","","","","","","","","","","","","","",""
