"rt","key_press","trial_type","trial_index","trial_index_global","time_elapsed","internal_chunk_id","responses","experimental_goal_height","experimental_start_height","experimental_weeks_total","experimental_crop_type","experimental_crop_side","fixed_goal_height","fixed_start_height","fixed_weeks_total","fixed_crop_type","trial_kind","trial_number","stage","left_current_height","left_weeks_remaining","left_crop_type","right_current_height","right_weeks_remaining","right_crop_type","mean_left_growth_given_left","sd_left_growth_given_left","mean_left_growth_given_middle","sd_left_growth_given_middle","mean_left_growth_given_right","sd_left_growth_given_right","mean_right_growth_given_left","sd_right_growth_given_left","mean_right_growth_given_middle","sd_right_growth_given_middle","mean_right_growth_given_right","sd_right_growth_given_right","response","response_time","left_growth","right_growth","other_key_pressed","mouse_clicked"
"3247024","87","text","0","0","3247135","0-0","","","","","","","","","","","","","","","","","","","","","","","","","","","","","","","","","","","","",""
"5187","","survey-text","0","1","3253341","0-0","{""Q0"":""18""}","","","","","","","","","","","","","","","","","","","","","","","","","","","","","","","","","","","",""
"8227","86","text","0","2","8321","0-0","","","","","","","","","","","","","","","","","","","","","","","","","","","","","","","","","","","","",""
"","","plant-game","0","3","83456","0-0","","200","120","8","WHEAT CROP","Left","200","120","8","THISTLE WEED","practice","1","1,2,3,4,5,6,7,8","120,105.45232384495962,151.51031571456298,149.44924629696266,145.17027128720102,163.68424380842157,164.7948708988515,168.84709154502414","8,7,6,5,4,3,2,1","WHEAT CROP,WHEAT CROP,WHEAT CROP,WHEAT CROP,WHEAT CROP,WHEAT CROP,WHEAT CROP,WHEAT CROP","120,109.13169641697226,108.55640930014967,115.2645709105456,155.1112734677407,136.196675137925,172.64520539116873,128.8681672378128","8,7,6,5,4,3,2,1","THISTLE WEED,THISTLE WEED,THISTLE WEED,THISTLE WEED,THISTLE WEED,THISTLE WEED,THISTLE WEED,THISTLE WEED","20,20,20,20,20,20,20,20","20,20,20,20,20,20,20,20","10,10,10,10,10,10,10,10","20,20,20,20,20,20,20,20","0,0,0,0,0,0,0,0","20,20,20,20,20,20,20,20","20,20,20,20,20,20,20,20","20,20,20,20,20,20,20,20","10,10,10,10,10,10,10,10","20,20,20,20,20,20,20,20","0,0,0,0,0,0,0,0","20,20,20,20,20,20,20,20","0,0,0,0,1,0,1,1","5210,2855,1519,5207,11929,7101,1312,2298","-14.547676155040378,46.05799186960334,-2.0610694176003186,-4.278975009761634,18.51397252122056,1.1106270904299542,4.052220646172639,-29.56708795770645","-10.868303583027746,-0.5752871168225937,6.708161610395928,39.84670255719509,-18.91459832981569,36.44853025324371,-43.777038153355925,14.446105233113286","2","1"
"2280","86","text","0","4","85830","0-0","","","","","","","","","","","","","","","","","","","","","","","","","","","","","","","","","","","","",""
"","","plant-game","0","5","126124","0-0","","200","160","4","CORN CROP","Right","200","160","4","THISTLE WEED","practice","2","1,2,3,4","160,132.48911391942974,108.88480692097681,109.56478577817794","4,3,2,1","THISTLE WEED,THISTLE WEED,THISTLE WEED,THISTLE WEED","160,197.5390336281062,226.57694037744307,235.84317380195347","4,3,2,1","CORN CROP,CORN CROP,CORN CROP,CORN CROP","0,0,0,0","20,20,20,20","10,10,10,10","20,20,20,20","20,20,20,20","20,20,20,20","0,0,0,0","20,20,20,20","10,10,10,10","20,20,20,20","20,20,20,20","20,20,20,20","0,0,0,0","2640,7594,4115,1960","-27.51088608057025,-23.604306998452927,0.6799788572011247,-28.98295411035972","37.53903362810621,29.037906749336848,9.266233424510403,0.6229526013260118","0","0"
"1047","86","text","0","6","127271","0-0","","","","","","","","","","","","","","","","","","","","","","","","","","","","","","","","","","","","",""
"","","plant-game","0","7","153900","0-0","","200","180","2","WHEAT CROP","Left","200","180","2","NETTLE WEED","practice","3","1,2","180,186.34198905817377","2,1","WHEAT CROP,WHEAT CROP","180,153.88608931297262","2,1","NETTLE WEED,NETTLE WEED","20,20","20,20","10,10","20,20","0,0","20,20","20,20","20,20","10,10","20,20","0,0","20,20","1,1","5165,3053","6.3419890581737635,-14.007415480329872","-26.113910687027392,-43.328919031039625","0","0"
"1088","86","text","0","8","155144","0-0","","","","","","","","","","","","","","","","","","","","","","","","","","","","","","","","","","","","",""
"","","plant-game","0","9","182384","0-0","","200","190","1","CORN CROP","Right","200","190","1","NETTLE WEED","practice","4","1","190","1","NETTLE WEED","190","1","CORN CROP","0","20","10","20","20","20","0","20","10","20","20","20","0","4277","15.75931254766935","-0.0424068525365978","0","0"
"2657","86","text","0","10","185121","0-0","","","","","","","","","","","","","","","","","","","","","","","","","","","","","","","","","","","","",""
"","","plant-game","0","11","235341","0-0","","200","120","8","WHEAT CROP","Right","200","160","8","THISTLE WEED","practice","5","1,2,3,4,5,6,7,8","160,177.7817849813909,178.43767495505838,170.78281276934018,181.86902525228578,184.9871325026777,192.24009418934065,184.94574014894593","8,7,6,5,4,3,2,1","THISTLE WEED,THISTLE WEED,THISTLE WEED,THISTLE WEED,THISTLE WEED,THISTLE WEED,THISTLE WEED,THISTLE WEED","120,99.49611587790731,82.96824900973597,81.5372584446809,93.47774743882422,85.4206704935422,64.97765434247967,77.80768750937285","8,7,6,5,4,3,2,1","WHEAT CROP,WHEAT CROP,WHEAT CROP,WHEAT CROP,WHEAT CROP,WHEAT CROP,WHEAT CROP,WHEAT CROP","0,0,0,0,0,0,0,0","20,20,20,20,20,20,20,20","10,10,10,10,10,10,10,10","20,20,20,20,20,20,20,20","20,20,20,20,20,20,20,20","20,20,20,20,20,20,20,20","0,0,0,0,0,0,0,0","20,20,20,20,20,20,20,20","10,10,10,10,10,10,10,10","20,20,20,20,20,20,20,20","20,20,20,20,20,20,20,20","20,20,20,20,20,20,20,20","0,1,0,0,0,0,0,0","7387,6564,7351,3582,5531,1220,599,2625","17.781784981390885,0.6558899736674739,-7.654862185718199,11.086212482945596,3.11810725039191,7.252961686662971,-7.294354040394714,12.170941171316139","-20.50388412209269,-16.527866868171344,-1.4309905650550698,11.94048899414332,-8.057076945282022,-20.443016151062533,12.830033166893184,1.6342774093594294","0","0"
"3018","86","text","0","12","238483","0-0","","","","","","","","","","","","","","","","","","","","","","","","","","","","","","","","","","","","",""
"","","plant-game","0","13","279555","0-0","","200","180","4","WHEAT CROP","Right","200","160","4","THISTLE WEED","practice","6","1,2,3,4","160,174.20021783534727,184.93916905966395,160.3652686475918","4,3,2,1","THISTLE WEED,THISTLE WEED,THISTLE WEED,THISTLE WEED","180,219.92968564974043,215.5017631328969,214.9429909599225","4,3,2,1","WHEAT CROP,WHEAT CROP,WHEAT CROP,WHEAT CROP","0,0,0,0","20,20,20,20","10,10,10,10","20,20,20,20","20,20,20,20","20,20,20,20","0,0,0,0","20,20,20,20","10,10,10,10","20,20,20,20","20,20,20,20","20,20,20,20","1,0,0,0","12783,5418,3865,1010","14.200217835347278,10.738951224316683,-24.573900412072156,-9.557198820484583","39.929685649740435,-4.42792251684352,-0.5587721729744238,-4.6226290061650195","0","0"
"755","86","text","0","14","280430","0-0","","","","","","","","","","","","","","","","","","","","","","","","","","","","","","","","","","","","",""
"","","plant-game","0","15","304003","0-0","","200","180","2","CORN CROP","Left","200","190","2","NETTLE WEED","practice","7","1,2","180,133.75715379747734","2,1","CORN CROP,CORN CROP","190,185.0317302237779","2,1","NETTLE WEED,NETTLE WEED","20,20","20,20","10,10","20,20","0,0","20,20","20,20","20,20","10,10","20,20","0,0","20,20","1,1","4412,2490","-46.24284620252266,-17.459158512754502","-4.968269776222073,38.70118042518749","0","0"
"2923","86","text","0","16","307066","0-0","","","","","","","","","","","","","","","","","","","","","","","","","","","","","","","","","","","","",""
"","","plant-game","0","17","370028","0-0","","200","120","4","CORN CROP","Right","200","120","8","NETTLE WEED","practice","8","1,2,3,4,5,6,7,8","120,162.72743089915352,170.32821073257662,210.6349137723032,216.59468762033407,243.53979794309265,243.05013233502245,286.661634708637","8,7,6,5,4,3,2,1","NETTLE WEED,NETTLE WEED,NETTLE WEED,NETTLE WEED,NETTLE WEED,NETTLE WEED,NETTLE WEED,NETTLE WEED","120,175.27993616503358,193.31799530554144,199.29628403458102,160,208.26084734304106,232.10666774233053,243.4104249812085","4,3,2,1,4,3,2,1","CORN CROP,CORN CROP,CORN CROP,CORN CROP,WHEAT CROP,WHEAT CROP,WHEAT CROP,WHEAT CROP","0,0,0,0,0,0,0,0","20,20,20,20,20,20,20,20","10,10,10,10,10,10,10,10","20,20,20,20,20,20,20,20","20,20,20,20,20,20,20,20","20,20,20,20,20,20,20,20","0,0,0,0,0,0,0,0","20,20,20,20,20,20,20,20","10,10,10,10,10,10,10,10","20,20,20,20,20,20,20,20","20,20,20,20,20,20,20,20","20,20,20,20,20,20,20,20","1,1,1,1,1,1,1,1","12590,2382,1558,2353,14820,1186,331,350","42.72743089915352,7.600779833423099,40.3067030397266,5.959773848030876,26.94511032275858,-0.4896656080702009,43.611502373614535,21.234145823573563","55.27993616503358,18.038059140507865,5.97828872903958,48.279685771376165,48.260847343041064,23.845820399289465,11.303757238877969,0.554336211795313","0","0"
"964","86","text","0","18","371082","0-0","","","","","","","","","","","","","","","","","","","","","","","","","","","","","","","","","","","","",""
"","","plant-game","0","19","415988","0-0","","200","160","4","CORN CROP","Left","200","160","2","THISTLE WEED","practice","9","1,2,3,4","160,163.16539763376366,188.79111287950394,209.74291053322057","4,3,2,1","CORN CROP,CORN CROP,CORN CROP,CORN CROP","160,169.74992117873447,180,191.16729877895827","2,1,2,1","THISTLE WEED,THISTLE WEED,NETTLE WEED,NETTLE WEED","20,20,20,20","20,20,20,20","10,10,10,10","20,20,20,20","0,0,0,0","20,20,20,20","20,20,20,20","20,20,20,20","10,10,10,10","20,20,20,20","0,0,0,0","20,20,20,20","1,1,0,1","6350,5257,3567,3182","3.165397633763657,25.62571524574029,20.951797653716618,8.26325671453479","9.74992117873448,3.725606038207588,11.167298778958273,19.490382327667433","0","0"
"848","86","text","0","20","416936","0-0","","","","","","","","","","","","","","","","","","","","","","","","","","","","","","","","","","","","",""
"","","plant-game","0","21","458696","0-0","","200","180","2","CORN CROP","Left","200","180","1","THISTLE WEED","practice","10","1,2","180,149.74040666241677","2,1","CORN CROP,CORN CROP","180,190","1,1","THISTLE WEED,NETTLE WEED","20,20","20,20","10,10","20,20","0,0","20,20","20,20","20,20","10,10","20,20","0,0","20,20","1,0","2321,7866","-30.259593337583233,49.4177999752913","35.781716608296406,2.0749149009358874","0","0"
"7829","86","text","0","22","466618","0-0","","","","","","","","","","","","","","","","","","","","","","","","","","","","","","","","","","","","",""
"","","plant-game","0","23","530215","0-0","","200","120","8","CORN CROP","Right","200","160","4","NETTLE WEED","practice","11","1,2,3,4,5,6,7,8","160,132.0254412781431,156.04972861622977,138.554146352288,160,171.56782813886073,166.87272536288165,162.09780153175487","4,3,2,1,4,3,2,1","NETTLE WEED,NETTLE WEED,NETTLE WEED,NETTLE WEED,THISTLE WEED,THISTLE WEED,THISTLE WEED,THISTLE WEED","120,122.97990283906086,131.2244862222294,130.87389409225884,122.0323184527551,124.7689314689433,181.17815832838514,199.50373412897054","8,7,6,5,4,3,2,1","CORN CROP,CORN CROP,CORN CROP,CORN CROP,CORN CROP,CORN CROP,CORN CROP,CORN CROP","0,0,0,0,0,0,0,0","20,20,20,20,20,20,20,20","10,10,10,10,10,10,10,10","20,20,20,20,20,20,20,20","20,20,20,20,20,20,20,20","20,20,20,20,20,20,20,20","0,0,0,0,0,0,0,0","20,20,20,20,20,20,20,20","10,10,10,10,10,10,10,10","20,20,20,20,20,20,20,20","20,20,20,20,20,20,20,20","20,20,20,20,20,20,20,20","0,0,0,0,1,1,1,1","11539,9403,1929,4450,1870,3223,1127,844","-27.974558721856905,24.024287338086687,-17.495582263941756,28.400521990877063,11.567828138860735,-4.695102775979073,-4.774923831126795,18.65545825999227","2.979902839060858,8.24458338316853,-0.35059212997054395,-8.841575639503729,2.736613016188187,56.409226859441844,18.32557580058539,36.75299955025961","0","0"
"2067","86","text","0","24","532372","0-0","","","","","","","","","","","","","","","","","","","","","","","","","","","","","","","","","","","","",""
"","","plant-game","0","25","581829","0-0","","200","180","2","WHEAT CROP","Left","200","160","4","THISTLE WEED","practice","12","1,2,3,4","180,198.653016211113,180,156.10216406998376","2,1,2,1","WHEAT CROP,WHEAT CROP,CORN CROP,CORN CROP","160,155.6373210420146,207.48051130536885,202.1882723754717","4,3,2,1","THISTLE WEED,THISTLE WEED,THISTLE WEED,THISTLE WEED","20,20,20,20","20,20,20,20","10,10,10,10","20,20,20,20","0,0,0,0","20,20,20,20","20,20,20,20","20,20,20,20","10,10,10,10","20,20,20,20","0,0,0,0","20,20,20,20","1,0,1,1","10655,1405,14239,729","18.65301621111301,17.711912662643975,-23.897835930016235,-15.533373165305601","-4.3626789579854055,51.84319026335423,-5.292238929897135,-22.895752460915013","0","0"
"6249","86","text","0","26","588189","0-0","","","","","","","","","","","","","","","","","","","","","","","","","","","","","","","","","","","","",""
"17971","86","text","0","27","607286","0-0","","","","","","","","","","","","","","","","","","","","","","","","","","","","","","","","","","","","",""
"","","plant-game","0","28","620480","0-0","","200","190","1","WHEAT CROP","Right","200","180","1","THISTLE WEED","experimental","1","1","180","1","THISTLE WEED","190","1","WHEAT CROP","0","20","10","20","20","20","0","20","10","20","20","20","1","8388","7.702370337760204","20.201866087498974","0","0"
"1611","86","text","0","29","622171","0-0","","","","","","","","","","","","","","","","","","","","","","","","","","","","","","","","","","","","",""
"","","plant-game","0","30","648379","0-0","","200","190","2","CORN CROP","Left","200","120","4","THISTLE WEED","experimental","2","1,2,3,4","190,196.3099299015199,180,207.56771555023374","2,1,2,1","CORN CROP,CORN CROP,WHEAT CROP,WHEAT CROP","120,103.45253946532961,96.29760379420482,117.24363449547704","4,3,2,1","THISTLE WEED,THISTLE WEED,THISTLE WEED,THISTLE WEED","20,20,20,20","20,20,20,20","10,10,10,10","20,20,20,20","0,0,0,0","20,20,20,20","20,20,20,20","20,20,20,20","10,10,10,10","20,20,20,20","0,0,0,0","20,20,20,20","1,1,0,0","4315,1535,9985,2767","6.309929901519901,9.01770053146584,27.56771555023375,28.690222888956495","-16.547460534670396,-7.154935671124792,20.946030701272228,4.942059648219331","0","0"
"1554","86","text","0","31","650033","0-0","","","","","","","","","","","","","","","","","","","","","","","","","","","","","","","","","","","","",""
"","","plant-game","0","32","684609","0-0","","200","190","4","CORN CROP","Right","200","160","8","THISTLE WEED","experimental","3","1,2,3,4,5,6,7,8","160,148.52170897774948,160.2878039385622,146.0307534990641,140.94599310356764,172.01017012418674,181.43081965493587,165.7625196864928","8,7,6,5,4,3,2,1","THISTLE WEED,THISTLE WEED,THISTLE WEED,THISTLE WEED,THISTLE WEED,THISTLE WEED,THISTLE WEED,THISTLE WEED","190,202.82934601526364,187.76773908485035,199.277602656542,160,189.98064484261857,218.6832841210979,230.4516088357177","4,3,2,1,4,3,2,1","CORN CROP,CORN CROP,CORN CROP,CORN CROP,WHEAT CROP,WHEAT CROP,WHEAT CROP,WHEAT CROP","0,0,0,0,0,0,0,0","20,20,20,20,20,20,20,20","10,10,10,10,10,10,10,10","20,20,20,20,20,20,20,20","20,20,20,20,20,20,20,20","20,20,20,20,20,20,20,20","0,0,0,0,0,0,0,0","20,20,20,20,20,20,20,20","10,10,10,10,10,10,10,10","20,20,20,20,20,20,20,20","20,20,20,20,20,20,20,20","20,20,20,20,20,20,20,20","0,1,0,0,1,0,1,1","6950,1587,1757,1219,3534,3849,4522,2101","-11.478291022250502,11.766094960812731,-14.257050439498105,-5.084760395496448,31.064177020619113,9.420649530749133,-15.668299968443094,18.417874296854507","12.82934601526364,-15.061606930413284,11.509863571691668,-25.28418422541263,29.980644842618574,28.702639278479328,11.768324714619823,41.997809863772986","1","0"
"835","86","text","0","33","685514","0-0","","","","","","","","","","","","","","","","","","","","","","","","","","","","","","","","","","","","",""
"","","plant-game","0","34","720205","0-0","","200","180","8","CORN CROP","Right","200","180","1","NETTLE WEED","experimental","4","1,2,3,4,5,6,7,8","180,130,125.15254470448073,113.89409934881004,157.7581298729161,201.01528009552348,203.5200018295386,234.2606360969844","1,7,6,5,4,3,2,1","NETTLE WEED,THISTLE WEED,THISTLE WEED,THISTLE WEED,THISTLE WEED,THISTLE WEED,THISTLE WEED,THISTLE WEED","180,169.22267276467952,208.80125658250148,211.70098137288804,215.40716371903818,218.3174955406772,237.68515512000138,208.51989348752636","8,7,6,5,4,3,2,1","CORN CROP,CORN CROP,CORN CROP,CORN CROP,CORN CROP,CORN CROP,CORN CROP,CORN CROP","0,0,0,0,0,0,0,0","20,20,20,20,20,20,20,20","10,10,10,10,10,10,10,10","20,20,20,20,20,20,20,20","20,20,20,20,20,20,20,20","20,20,20,20,20,20,20,20","0,0,0,0,0,0,0,0","20,20,20,20,20,20,20,20","10,10,10,10,10,10,10,10","20,20,20,20,20,20,20,20","20,20,20,20,20,20,20,20","20,20,20,20,20,20,20,20","1,1,1,1,0,0,0,1","9689,2767,1455,443,2617,2438,918,3238","-10.5919036358967,-4.847455295519261,-11.258445355670684,43.86403052410605,43.25715022260738,2.504721734015105,30.740634267445827,22.845888433362603","-10.777327235320477,39.57858381782198,2.8997247903865464,3.706182346150154,2.910331821639025,19.36765957932417,-29.165261632475023,-1.2597063931225563","0","0"
"907","86","text","0","35","721212","0-0","","","","","","","","","","","","","","","","","","","","","","","","","","","","","","","","","","","","",""
"","","plant-game","0","36","747602","0-0","","200","180","2","CORN CROP","Right","200","160","8","NETTLE WEED","experimental","5","1,2,3,4,5,6,7,8","160,187.1250621320829,214.3209558106539,259.0575917321022,289.95526736713157,318.0725507970733,362.9271149771577,378.24567813968014","8,7,6,5,4,3,2,1","NETTLE WEED,NETTLE WEED,NETTLE WEED,NETTLE WEED,NETTLE WEED,NETTLE WEED,NETTLE WEED,NETTLE WEED","180,210.09499049759765,140,153.21393996025466,191.72824702037224,166.60613419848625,185.6104365992855,192.92042578091528","2,1,6,5,4,3,2,1","CORN CROP,CORN CROP,WHEAT CROP,WHEAT CROP,WHEAT CROP,WHEAT CROP,WHEAT CROP,WHEAT CROP","0,0,0,0,0,0,0,0","20,20,20,20,20,20,20,20","10,10,10,10,10,10,10,10","20,20,20,20,20,20,20,20","20,20,20,20,20,20,20,20","20,20,20,20,20,20,20,20","0,0,0,0,0,0,0,0","20,20,20,20,20,20,20,20","10,10,10,10,10,10,10,10","20,20,20,20,20,20,20,20","20,20,20,20,20,20,20,20","20,20,20,20,20,20,20,20","1,1,1,1,1,1,1,1","2350,5806,7143,367,310,447,460,1372","27.12506213208289,27.195893678571018,44.736635921448254,30.897675635029366,28.117283429941708,44.85456418008441,15.318563162522427,30.989302539217675","30.09499049759765,30.471815080067365,13.21393996025467,38.514307060117574,-25.122112821885977,19.004302400799254,7.309989181629785,22.48798674761423","0","0"
"908","86","text","0","37","748580","0-0","","","","","","","","","","","","","","","","","","","","","","","","","","","","","","","","","","","","",""
"","","plant-game","0","38","761232","0-0","","200","120","1","CORN CROP","Left","200","120","1","THISTLE WEED","experimental","6","1","120","1","CORN CROP","120","1","THISTLE WEED","20","20","10","20","0","20","20","20","10","20","0","20","0","6647","-13.734018797473432","47.84231090656878","0","0"
"893","86","text","0","39","762203","0-0","","","","","","","","","","","","","","","","","","","","","","","","","","","","","","","","","","","","",""
"","","plant-game","0","40","776853","0-0","","200","160","1","WHEAT CROP","Right","200","180","1","NETTLE WEED","experimental","7","1","180","1","NETTLE WEED","160","1","WHEAT CROP","0","20","10","20","20","20","0","20","10","20","20","20","0","10005","5.541773702335309","21.262453231222743","0","0"
"4774","86","text","0","41","781736","0-0","","","","","","","","","","","","","","","","","","","","","","","","","","","","","","","","","","","","",""
"","","plant-game","0","42","812173","0-0","","200","190","1","WHEAT CROP","Right","200","190","4","NETTLE WEED","experimental","8","1,2,3,4","190,221.14638472579915,249.37773919687777,275.93329980695546","4,3,2,1","NETTLE WEED,NETTLE WEED,NETTLE WEED,NETTLE WEED","190,170,146.40395203357903,161.8437758742809","1,3,2,1","WHEAT CROP,CORN CROP,CORN CROP,CORN CROP","0,0,0,0","20,20,20,20","10,10,10,10","20,20,20,20","20,20,20,20","20,20,20,20","0,0,0,0","20,20,20,20","10,10,10,10","20,20,20,20","20,20,20,20","20,20,20,20","0,0,1,1","12986,8795,1373,532","31.14638472579914,28.231354471078628,26.555560610077677,12.787310686258962","-10.72074757355254,-23.596047966420972,15.43982384070187,29.78017281238627","0","0"
"634","86","text","0","43","812867","0-0","","","","","","","","","","","","","","","","","","","","","","","","","","","","","","","","","","","","",""
"","","plant-game","0","44","854132","0-0","","200","190","8","CORN CROP","Left","200","120","4","NETTLE WEED","experimental","9","1,2,3,4,5,6,7,8","190,209.6134516185642,235.22578964055276,247.5706447096136,251.3911660031136,240.81638115147086,249.93821465007372,234.82144544683788","8,7,6,5,4,3,2,1","CORN CROP,CORN CROP,CORN CROP,CORN CROP,CORN CROP,CORN CROP,CORN CROP,CORN CROP","120,158.83487021355236,144.69459817452446,180.24855793276765,160,182.09282515680414,200.8720091015171,213.8750456995437","4,3,2,1,4,3,2,1","NETTLE WEED,NETTLE WEED,NETTLE WEED,NETTLE WEED,THISTLE WEED,THISTLE WEED,THISTLE WEED,THISTLE WEED","20,20,20,20,20,20,20,20","20,20,20,20,20,20,20,20","10,10,10,10,10,10,10,10","20,20,20,20,20,20,20,20","0,0,0,0,0,0,0,0","20,20,20,20,20,20,20,20","20,20,20,20,20,20,20,20","20,20,20,20,20,20,20,20","10,10,10,10,10,10,10,10","20,20,20,20,20,20,20,20","0,0,0,0,0,0,0,0","20,20,20,20,20,20,20,20","0,1,0,1,1,1,1,0","5466,5603,3108,1783,9981,2459,1542,2800","19.613451618564206,25.61233802198857,12.344855069060817,3.8205212935000006,-10.574784851642733,9.12183349860286,-15.11676920323582,-1.4020510033180713","38.83487021355237,-14.140272039027904,35.55395975824321,2.413000492523105,22.092825156804142,18.779183944712983,13.003036598026602,23.154778281500864","0","0"
"1288","86","text","0","45","855530","0-0","","","","","","","","","","","","","","","","","","","","","","","","","","","","","","","","","","","","",""
"","","plant-game","0","46","906560","0-0","","200","190","8","WHEAT CROP","Left","200","190","4","NETTLE WEED","experimental","10","1,2,3,4,5,6,7,8","190,173.34387844041225,143.34796475258983,92.85275460946195,60.36012741644748,69.32658832059602,102.56666466468292,126.030695488862","8,7,6,5,4,3,2,1","WHEAT CROP,WHEAT CROP,WHEAT CROP,WHEAT CROP,WHEAT CROP,WHEAT CROP,WHEAT CROP,WHEAT CROP","190,179.25243573220916,160.5464650355681,168.09369999228218,160,141.6348317832406,167.97160818993063,192.71450712035366","4,3,2,1,4,3,2,1","NETTLE WEED,NETTLE WEED,NETTLE WEED,NETTLE WEED,THISTLE WEED,THISTLE WEED,THISTLE WEED,THISTLE WEED","20,20,20,20,20,20,20,20","20,20,20,20,20,20,20,20","10,10,10,10,10,10,10,10","20,20,20,20,20,20,20,20","0,0,0,0,0,0,0,0","20,20,20,20,20,20,20,20","20,20,20,20,20,20,20,20","20,20,20,20,20,20,20,20","10,10,10,10,10,10,10,10","20,20,20,20,20,20,20,20","0,0,0,0,0,0,0,0","20,20,20,20,20,20,20,20","1,1,1,1,0,0,0,1","12287,5553,9245,507,8546,1836,1696,1876","-16.65612155958773,-29.995913687822423,-50.49521014312788,-32.49262719301447,8.966460904148528,33.240076344086894,23.464030824179076,20.66265887878675","-10.74756426779084,-18.705970696641067,7.5472349567140915,-14.041384199191453,-18.3651682167594,26.336776406690028,24.74289893042303,-11.25208613642344","0","0"
"1066","86","text","0","47","907688","0-0","","","","","","","","","","","","","","","","","","","","","","","","","","","","","","","","","","","","",""
"","","plant-game","0","48","933125","0-0","","200","190","8","CORN CROP","Left","200","120","1","THISTLE WEED","experimental","11","1,2,3,4,5,6,7,8","190,216.6607241674488,232.7962117473432,190.73631958416945,195.51770024675835,210.12312983059138,225.35385580364334,239.17770626852413","8,7,6,5,4,3,2,1","CORN CROP,CORN CROP,CORN CROP,CORN CROP,CORN CROP,CORN CROP,CORN CROP,CORN CROP","120,130,128.03376781602356,104.24075499479709,132.44041573223834,147.98526827250132,145.4702530528694,152.91181205365123","1,7,6,5,4,3,2,1","THISTLE WEED,NETTLE WEED,NETTLE WEED,NETTLE WEED,NETTLE WEED,NETTLE WEED,NETTLE WEED,NETTLE WEED","20,20,20,20,20,20,20,20","20,20,20,20,20,20,20,20","10,10,10,10,10,10,10,10","20,20,20,20,20,20,20,20","0,0,0,0,0,0,0,0","20,20,20,20,20,20,20,20","20,20,20,20,20,20,20,20","20,20,20,20,20,20,20,20","10,10,10,10,10,10,10,10","20,20,20,20,20,20,20,20","0,0,0,0,0,0,0,0","20,20,20,20,20,20,20,20","0,0,1,0,0,1,1,1","3825,4044,2225,1670,649,3703,1272,768","26.660724167448798,16.135487579894395,-42.05989216317374,4.7813806625889015,14.605429583833036,15.230725973051968,13.8238504648808,-13.856126754746702","22.823004134341193,-1.9662321839764445,-23.79301282122647,28.199660737441256,15.544852540262973,-2.515015219631931,7.441559000781849,-15.721782748239253","0","0"
"1224","86","text","0","49","934429","0-0","","","","","","","","","","","","","","","","","","","","","","","","","","","","","","","","","","","","",""
"","","plant-game","0","50","949053","0-0","","200","180","4","CORN CROP","Left","200","120","4","NETTLE WEED","experimental","12","1,2,3,4","180,217.717200113596,236.89759494328638,250.52450343297946","4,3,2,1","CORN CROP,CORN CROP,CORN CROP,CORN CROP","120,141.81981690380596,159.70560249790648,124.55344424037304","4,3,2,1","NETTLE WEED,NETTLE WEED,NETTLE WEED,NETTLE WEED","20,20,20,20","20,20,20,20","10,10,10,10","20,20,20,20","0,0,0,0","20,20,20,20","20,20,20,20","20,20,20,20","10,10,10,10","20,20,20,20","0,0,0,0","20,20,20,20","0,0,1,1","4103,2608,2019,382","37.71720011359601,19.18039482969038,13.62690848969309,-49.73446217643273","21.81981690380596,17.885785594100536,-35.15215825753344,-5.501844060285227","0","0"
"1876","86","text","0","51","951029","0-0","","","","","","","","","","","","","","","","","","","","","","","","","","","","","","","","","","","","",""
"","","plant-game","0","52","975651","0-0","","200","160","1","WHEAT CROP","Left","200","120","4","THISTLE WEED","experimental","13","1,2,3,4","160,170,180.45924711074318,205.13161184787936","1,3,2,1","WHEAT CROP,CORN CROP,CORN CROP,CORN CROP","120,166.50842463102478,169.15206341817378,148.55537938781202","4,3,2,1","THISTLE WEED,THISTLE WEED,THISTLE WEED,THISTLE WEED","20,20,20,20","20,20,20,20","10,10,10,10","20,20,20,20","0,0,0,0","20,20,20,20","20,20,20,20","20,20,20,20","10,10,10,10","20,20,20,20","0,0,0,0","20,20,20,20","0,0,0,0","6589,6881,1156,1847","41.8412118472543,10.459247110743183,24.67236473713618,27.76279349132227","46.50842463102478,2.6436387871489906,-20.596684030361757,36.69783363765134","0","0"
"584","86","text","0","53","976335","0-0","","","","","","","","","","","","","","","","","","","","","","","","","","","","","","","","","","","","",""
"","","plant-game","0","54","1004297","0-0","","200","120","8","CORN CROP","Left","200","160","2","THISTLE WEED","experimental","14","1,2,3,4,5,6,7,8","120,147.88673014848874,167.67946226942934,197.46077695643604,219.9220382856185,197.2206717826029,200.78940388456633,211.31067359051352","8,7,6,5,4,3,2,1","CORN CROP,CORN CROP,CORN CROP,CORN CROP,CORN CROP,CORN CROP,CORN CROP,CORN CROP","160,170.47662240654748,140,140.92223283007527,173.7872671101216,168.0876258318033,154.82965972552495,136.22712681887782","2,1,6,5,4,3,2,1","THISTLE WEED,THISTLE WEED,NETTLE WEED,NETTLE WEED,NETTLE WEED,NETTLE WEED,NETTLE WEED,NETTLE WEED","20,20,20,20,20,20,20,20","20,20,20,20,20,20,20,20","10,10,10,10,10,10,10,10","20,20,20,20,20,20,20,20","0,0,0,0,0,0,0,0","20,20,20,20,20,20,20,20","20,20,20,20,20,20,20,20","20,20,20,20,20,20,20,20","10,10,10,10,10,10,10,10","20,20,20,20,20,20,20,20","0,0,0,0,0,0,0,0","20,20,20,20,20,20,20,20","0,0,0,0,1,0,1,0","6074,3503,3130,622,1833,1339,1997,2117","27.886730148488745,19.7927321209406,29.78131468700669,22.461261329182477,-22.701366503015606,3.5687321019634446,10.521269705947196,13.623488993600683","10.476622406547465,-0.8449303398850887,0.9222328300752771,32.86503428004633,-5.699641278318298,-13.257966106278367,-18.60253290664714,-2.768333629977949","0","0"
"737","86","text","0","55","1005094","0-0","","","","","","","","","","","","","","","","","","","","","","","","","","","","","","","","","","","","",""
"","","plant-game","0","56","1030174","0-0","","200","190","8","WHEAT CROP","Right","200","160","1","NETTLE WEED","experimental","15","1,2,3,4,5,6,7,8","160,130,154.797394629333,145.8996693259428,130.259471009194,134.08296312393742,134.71798755818907,143.24313383084188","1,7,6,5,4,3,2,1","NETTLE WEED,THISTLE WEED,THISTLE WEED,THISTLE WEED,THISTLE WEED,THISTLE WEED,THISTLE WEED,THISTLE WEED","190,224.77118374090594,276.90425073210054,277.6687345976841,292.5802871286911,312.016709983484,344.8156802455056,359.1921760775716","8,7,6,5,4,3,2,1","WHEAT CROP,WHEAT CROP,WHEAT CROP,WHEAT CROP,WHEAT CROP,WHEAT CROP,WHEAT CROP,WHEAT CROP","0,0,0,0,0,0,0,0","20,20,20,20,20,20,20,20","10,10,10,10,10,10,10,10","20,20,20,20,20,20,20,20","20,20,20,20,20,20,20,20","20,20,20,20,20,20,20,20","0,0,0,0,0,0,0,0","20,20,20,20,20,20,20,20","10,10,10,10,10,10,10,10","20,20,20,20,20,20,20,20","20,20,20,20,20,20,20,20","20,20,20,20,20,20,20,20","1,1,0,0,0,0,0,0","4497,6219,3062,553,678,560,668,493","-33.73091935169232,24.797394629333006,-8.897725303390219,-15.640198316748808,3.82349211474343,0.6350244342516603,8.525146272652819,-13.321916306009388","34.77118374090593,52.133066991194575,0.764483865583559,14.911552531007008,19.43642285479293,32.79897026202158,14.376495832066038,12.700185794802696","0","0"
"538","86","text","0","57","1030806","0-0","","","","","","","","","","","","","","","","","","","","","","","","","","","","","","","","","","","","",""
"","","plant-game","0","58","1062197","0-0","","200","180","8","WHEAT CROP","Left","200","160","4","NETTLE WEED","experimental","16","1,2,3,4,5,6,7,8","180,199.53777437817809,222.2172389717609,212.8402885463054,199.4036722429514,228.83385163870665,227.88039864397862,233.831670070206","8,7,6,5,4,3,2,1","WHEAT CROP,WHEAT CROP,WHEAT CROP,WHEAT CROP,WHEAT CROP,WHEAT CROP,WHEAT CROP,WHEAT CROP","160,189.77638747904444,218.86300261896469,217.37041828760277,160,184.0542399920861,185.55302296174145,196.6877331672614","4,3,2,1,4,3,2,1","NETTLE WEED,NETTLE WEED,NETTLE WEED,NETTLE WEED,THISTLE WEED,THISTLE WEED,THISTLE WEED,THISTLE WEED","20,20,20,20,20,20,20,20","20,20,20,20,20,20,20,20","10,10,10,10,10,10,10,10","20,20,20,20,20,20,20,20","0,0,0,0,0,0,0,0","20,20,20,20,20,20,20,20","20,20,20,20,20,20,20,20","20,20,20,20,20,20,20,20","10,10,10,10,10,10,10,10","20,20,20,20,20,20,20,20","0,0,0,0,0,0,0,0","20,20,20,20,20,20,20,20","0,0,1,1,0,1,1,0","8118,3446,1998,484,2836,1700,1522,1984","19.5377743781781,22.679464593582825,-9.376950425455515,-13.436616303354011,29.430179395755253,-0.9534529947280297,5.9512714262273745,2.6430508272914786","29.77638747904443,29.086615139920234,-1.4925843313619156,-0.5151689780224288,24.05423999208611,1.4987829696553387,11.134710205519964,14.733077119031545","0","0"
"7680","86","text","0","59","1069987","0-0","","","","","","","","","","","","","","","","","","","","","","","","","","","","","","","","","","","","",""
"","","plant-game","0","60","1105652","0-0","","200","160","2","WHEAT CROP","Left","200","190","8","NETTLE WEED","experimental","17","1,2,3,4,5,6,7,8","160,205.35783866667242,140,156.8212775408356,182.20989861061153,189.4357653574415,193.7718891235127,218.24931339113405","2,1,6,5,4,3,2,1","WHEAT CROP,WHEAT CROP,CORN CROP,CORN CROP,CORN CROP,CORN CROP,CORN CROP,CORN CROP","190,211.79455725249005,234.32181185933527,234.0274569107659,212.67724264901494,243.15825660886017,244.79918069819885,254.4551316569659","8,7,6,5,4,3,2,1","NETTLE WEED,NETTLE WEED,NETTLE WEED,NETTLE WEED,NETTLE WEED,NETTLE WEED,NETTLE WEED,NETTLE WEED","20,20,20,20,20,20,20,20","20,20,20,20,20,20,20,20","10,10,10,10,10,10,10,10","20,20,20,20,20,20,20,20","0,0,0,0,0,0,0,0","20,20,20,20,20,20,20,20","20,20,20,20,20,20,20,20","20,20,20,20,20,20,20,20","10,10,10,10,10,10,10,10","20,20,20,20,20,20,20,20","0,0,0,0,0,0,0,0","20,20,20,20,20,20,20,20","0,0,0,0,0,0,0,0","21562,863,3677,374,379,670,449,798","45.357838666672414,10.485117054641298,16.821277540835617,25.38862106977592,7.225866746829983,4.336123766071191,24.47742426762135,13.47769233071622","21.79455725249006,22.527254606845208,-0.2943549485693886,-21.35021426175095,30.48101395984524,1.6409240893386787,9.655950958767047,-6.840823849270027","0","0"
"793","86","text","0","61","1106516","0-0","","","","","","","","","","","","","","","","","","","","","","","","","","","","","","","","","","","","",""
"","","plant-game","0","62","1124325","0-0","","200","160","8","CORN CROP","Left","200","190","8","THISTLE WEED","experimental","18","1,2,3,4,5,6,7,8","160,167.15321821923476,151.58535021720442,186.4391933562306,200.6231856785335,202.36831466548236,244.9523506776699,299.34331566580676","8,7,6,5,4,3,2,1","CORN CROP,CORN CROP,CORN CROP,CORN CROP,CORN CROP,CORN CROP,CORN CROP,CORN CROP","190,168.65461688842402,212.76069170320366,232.10944281857923,256.0965107138774,290.02067969162925,329.07999920865257,352.14562309217206","8,7,6,5,4,3,2,1","THISTLE WEED,THISTLE WEED,THISTLE WEED,THISTLE WEED,THISTLE WEED,THISTLE WEED,THISTLE WEED,THISTLE WEED","20,20,20,20,20,20,20,20","20,20,20,20,20,20,20,20","10,10,10,10,10,10,10,10","20,20,20,20,20,20,20,20","0,0,0,0,0,0,0,0","20,20,20,20,20,20,20,20","20,20,20,20,20,20,20,20","20,20,20,20,20,20,20,20","10,10,10,10,10,10,10,10","20,20,20,20,20,20,20,20","0,0,0,0,0,0,0,0","20,20,20,20,20,20,20,20","1,0,0,0,0,0,0,0","5367,2939,2394,367,497,439,512,467","7.153218219234761,-15.567868002030337,34.85384313902617,14.183992322302903,1.7451289869488669,42.58403601218754,54.39096498813686,35.661108325946955","-21.345383111575977,44.10607481477965,19.348751115375556,23.98706789529821,33.92416897775181,39.05931951702331,23.065623883519493,43.342175351582284","0","0"
"858","86","text","0","63","1125283","0-0","","","","","","","","","","","","","","","","","","","","","","","","","","","","","","","","","","","","",""
"","","plant-game","0","64","1161154","0-0","","200","180","8","WHEAT CROP","Left","200","190","2","NETTLE WEED","experimental","19","1,2,3,4,5,6,7,8","180,185.0962057024348,200.25862104648905,232.946669228748,231.02712314876527,238.62699284177484,225.96477123736705,211.26768834364572","8,7,6,5,4,3,2,1","WHEAT CROP,WHEAT CROP,WHEAT CROP,WHEAT CROP,WHEAT CROP,WHEAT CROP,WHEAT CROP,WHEAT CROP","190,230.58220647470563,140,173.45163545007975,180.72226234052357,188.59446613728576,208.2844177098715,254.81979664354202","2,1,6,5,4,3,2,1","NETTLE WEED,NETTLE WEED,THISTLE WEED,THISTLE WEED,THISTLE WEED,THISTLE WEED,THISTLE WEED,THISTLE WEED","20,20,20,20,20,20,20,20","20,20,20,20,20,20,20,20","10,10,10,10,10,10,10,10","20,20,20,20,20,20,20,20","0,0,0,0,0,0,0,0","20,20,20,20,20,20,20,20","20,20,20,20,20,20,20,20","20,20,20,20,20,20,20,20","10,10,10,10,10,10,10,10","20,20,20,20,20,20,20,20","0,0,0,0,0,0,0,0","20,20,20,20,20,20,20,20","1,1,0,1,1,1,1,1","3563,697,16825,2563,2086,439,555,474","5.096205702434798,15.162415344054267,32.688048182258946,-1.9195460799827126,7.599869693009557,-12.662221604407787,-14.697082893721324,-27.87963138130609","40.58220647470564,-52.034177145297356,33.45163545007974,7.270626890443836,7.87220379676218,19.68995157258572,46.53537893367054,-18.35771738829815","0","0"
"705","86","text","0","65","1161949","0-0","","","","","","","","","","","","","","","","","","","","","","","","","","","","","","","","","","","","",""
"","","plant-game","0","66","1176290","0-0","","200","190","2","CORN CROP","Right","200","120","1","NETTLE WEED","experimental","20","1,2","120,190","1,1","NETTLE WEED,THISTLE WEED","190,175.42180758891126","2,1","CORN CROP,CORN CROP","0,0","20,20","10,10","20,20","20,20","20,20","0,0","20,20","10,10","20,20","20,20","20,20","1,1","2474,3850","26.791502629255444,26.164123418409567","-14.578192411088729,45.22775079159475","0","0"
"637","86","text","0","67","1177019","0-0","","","","","","","","","","","","","","","","","","","","","","","","","","","","","","","","","","","","",""
"","","plant-game","0","68","1202363","0-0","","200","190","2","CORN CROP","Left","200","190","8","THISTLE WEED","experimental","21","1,2,3,4,5,6,7,8","190,197.10828034323794,140,175.54489231302964,192.87235408090913,243.41565977334648,245.0239137487512,254.64661216392201","2,1,6,5,4,3,2,1","CORN CROP,CORN CROP,WHEAT CROP,WHEAT CROP,WHEAT CROP,WHEAT CROP,WHEAT CROP,WHEAT CROP","190,190.34977014330326,186.14983532640784,160.02343501731036,185.467621690077,181.08357187675952,184.19221882310458,235.71566006719826","8,7,6,5,4,3,2,1","THISTLE WEED,THISTLE WEED,THISTLE WEED,THISTLE WEED,THISTLE WEED,THISTLE WEED,THISTLE WEED,THISTLE WEED","20,20,20,20,20,20,20,20","20,20,20,20,20,20,20,20","10,10,10,10,10,10,10,10","20,20,20,20,20,20,20,20","0,0,0,0,0,0,0,0","20,20,20,20,20,20,20,20","20,20,20,20,20,20,20,20","20,20,20,20,20,20,20,20","10,10,10,10,10,10,10,10","20,20,20,20,20,20,20,20","0,0,0,0,0,0,0,0","20,20,20,20,20,20,20,20","0,0,1,0,0,0,0,1","3139,1375,5594,1783,741,3469,724,1845","7.108280343237949,24.360472347929576,35.544892313029635,17.327461767879484,50.54330569243734,1.6082539754047147,9.622698415170808,-26.008825256426398","0.3497701433032496,-4.199934816895421,-26.126400309097484,25.44418667276665,-4.384049813317496,3.1086469463450648,51.523441244093675,18.772925903952085","0","0"
"531","86","text","0","69","1202994","0-0","","","","","","","","","","","","","","","","","","","","","","","","","","","","","","","","","","","","",""
"","","plant-game","0","70","1214816","0-0","","200","120","2","WHEAT CROP","Left","200","160","2","NETTLE WEED","experimental","22","1,2","120,118.46835784308216","2,1","WHEAT CROP,WHEAT CROP","160,177.8429788751342","2,1","NETTLE WEED,NETTLE WEED","20,20","20,20","10,10","20,20","0,0","20,20","20,20","20,20","10,10","20,20","0,0","20,20","1,0","5667,1653","-1.5316421569178367,48.68958501119833","17.842978875134218,13.762011020659369","0","0"
"560","86","text","0","71","1215469","0-0","","","","","","","","","","","","","","","","","","","","","","","","","","","","","","","","","","","","",""
"","","plant-game","0","72","1247466","0-0","","200","180","1","WHEAT CROP","Right","200","190","2","THISTLE WEED","experimental","23","1,2","190,160.1242451491555","2,1","THISTLE WEED,THISTLE WEED","180,190","1,1","WHEAT CROP,CORN CROP","0,0","20,20","10,10","20,20","20,20","20,20","0,0","20,20","10,10","20,20","20,20","20,20","0,1","21976,3382","-29.87575485084448,-30.6555397818439","-39.478509123500146,32.58424907382398","0","0"
"571","86","text","0","73","1248138","0-0","","","","","","","","","","","","","","","","","","","","","","","","","","","","","","","","","","","","",""
"","","plant-game","0","74","1263750","0-0","","200","160","2","WHEAT CROP","Left","200","160","2","THISTLE WEED","experimental","24","1,2","160,164.52848370418513","2,1","WHEAT CROP,WHEAT CROP","160,175.08815531992965","2,1","THISTLE WEED,THISTLE WEED","20,20","20,20","10,10","20,20","0,0","20,20","20,20","20,20","10,10","20,20","0,0","20,20","1,0","8291,3327","4.528483704185138,6.059293870149531","15.088155319929648,6.471478683447739","0","0"
"894","86","text","0","75","1264753","0-0","","","","","","","","","","","","","","","","","","","","","","","","","","","","","","","","","","","","",""
"","","plant-game","0","76","1282240","0-0","","200","180","2","CORN CROP","Right","200","190","4","THISTLE WEED","experimental","25","1,2,3,4","190,224.57901979234182,230.84795500030398,213.7792536706039","4,3,2,1","THISTLE WEED,THISTLE WEED,THISTLE WEED,THISTLE WEED","180,222.63880157308222,180,155.5720918450404","2,1,2,1","CORN CROP,CORN CROP,WHEAT CROP,WHEAT CROP","0,0,0,0","20,20,20,20","10,10,10,10","20,20,20,20","20,20,20,20","20,20,20,20","0,0,0,0","20,20,20,20","10,10,10,10","20,20,20,20","20,20,20,20","20,20,20,20","1,0,0,0","2706,1515,3944,1174","34.579019792341825,6.268935207962154,-17.06870132970008,-15.821681415630398","42.63880157308222,14.202694861474633,-24.42790815495959,-23.792323068253033","0","0"
"699","86","text","0","77","1283039","0-0","","","","","","","","","","","","","","","","","","","","","","","","","","","","","","","","","","","","",""
"","","plant-game","0","78","1310457","0-0","","200","190","8","WHEAT CROP","Left","200","120","2","NETTLE WEED","experimental","26","1,2,3,4,5,6,7,8","190,182.41941110638348,230.00243423633518,229.56673825800846,258.01058299185985,216.1177252359181,226.2122924089435,254.91546800179702","8,7,6,5,4,3,2,1","WHEAT CROP,WHEAT CROP,WHEAT CROP,WHEAT CROP,WHEAT CROP,WHEAT CROP,WHEAT CROP,WHEAT CROP","120,144.53140868140747,140,146.27763056944121,166.43252329415995,184.77654725117176,124.94866187350858,117.10041264444384","2,1,6,5,4,3,2,1","NETTLE WEED,NETTLE WEED,THISTLE WEED,THISTLE WEED,THISTLE WEED,THISTLE WEED,THISTLE WEED,THISTLE WEED","20,20,20,20,20,20,20,20","20,20,20,20,20,20,20,20","10,10,10,10,10,10,10,10","20,20,20,20,20,20,20,20","0,0,0,0,0,0,0,0","20,20,20,20,20,20,20,20","20,20,20,20,20,20,20,20","20,20,20,20,20,20,20,20","10,10,10,10,10,10,10,10","20,20,20,20,20,20,20,20","0,0,0,0,0,0,0,0","20,20,20,20,20,20,20,20","1,0,1,0,1,0,1,1","3731,2750,3561,1215,5354,578,2288,684","-7.580588893616509,47.583023129951705,-0.43569597832672674,28.443844733851396,-41.892857755941755,10.094567173025421,28.70317559285352,-5.527128967474572","24.531408681407477,28.157915766527132,6.277630569441217,20.154892724718742,18.344023957011807,-59.82788537766318,-7.848249229064754,-21.48466470642606","0","0"
"1246","86","text","0","79","1311828","0-0","","","","","","","","","","","","","","","","","","","","","","","","","","","","","","","","","","","","",""
"","","plant-game","0","80","1331302","0-0","","200","180","1","CORN CROP","Left","200","180","2","THISTLE WEED","experimental","27","1,2","180,190","1,1","CORN CROP,WHEAT CROP","180,195.83299084689136","2,1","THISTLE WEED,THISTLE WEED","20,20","20,20","10,10","20,20","0,0","20,20","20,20","20,20","10,10","20,20","0,0","20,20","0,0","10606,2931","61.30339595041943,25.67887819296384","15.832990846891352,26.656701963178342","0","0"
"790","86","text","0","81","1332192","0-0","","","","","","","","","","","","","","","","","","","","","","","","","","","","","","","","","","","","",""
"","","plant-game","0","82","1345169","0-0","","200","120","4","CORN CROP","Right","200","160","1","NETTLE WEED","experimental","28","1,2,3,4","160,170,181.85682731854996,185.9499046972078","1,3,2,1","NETTLE WEED,THISTLE WEED,THISTLE WEED,THISTLE WEED","120,127.61876363359723,189.87932989510608,185.3897255900112","4,3,2,1","CORN CROP,CORN CROP,CORN CROP,CORN CROP","0,0,0,0","20,20,20,20","10,10,10,10","20,20,20,20","20,20,20,20","20,20,20,20","0,0,0,0","20,20,20,20","10,10,10,10","20,20,20,20","20,20,20,20","20,20,20,20","1,0,0,0","4147,986,889,1198","-1.7396407537094127,11.856827318549975,4.093077378657846,-15.526542354341524","7.6187636335972275,62.26056626150886,-4.489604305094884,11.395974161212454","0","0"
"936","86","text","0","83","1346183","0-0","","","","","","","","","","","","","","","","","","","","","","","","","","","","","","","","","","","","",""
"","","plant-game","0","84","1359157","0-0","","200","180","4","WHEAT CROP","Right","200","190","2","THISTLE WEED","experimental","29","1,2,3,4","190,215.5478745721207,180,209.994098240805","2,1,2,1","THISTLE WEED,THISTLE WEED,NETTLE WEED,NETTLE WEED","180,168.23213276586858,158.84478611961367,145.11851316987998","4,3,2,1","WHEAT CROP,WHEAT CROP,WHEAT CROP,WHEAT CROP","0,0,0,0","20,20,20,20","10,10,10,10","20,20,20,20","20,20,20,20","20,20,20,20","0,0,0,0","20,20,20,20","10,10,10,10","20,20,20,20","20,20,20,20","20,20,20,20","0,0,1,1","5331,612,533,200","25.547874572120705,-11.098332901379091,29.994098240804973,-19.284319842283686","-11.767867234131415,-9.387346646254906,-13.72627294973369,30.26775613795542","0","0"
"592","86","text","0","85","1359841","0-0","","","","","","","","","","","","","","","","","","","","","","","","","","","","","","","","","","","","",""
"","","plant-game","0","86","1368647","0-0","","200","120","2","WHEAT CROP","Left","200","190","2","THISTLE WEED","experimental","30","1,2","120,158.04153583408717","2,1","WHEAT CROP,WHEAT CROP","190,197.9376384917609","2,1","THISTLE WEED,THISTLE WEED","20,20","20,20","10,10","20,20","0,0","20,20","20,20","20,20","10,10","20,20","0,0","20,20","0,1","4087,850","38.04153583408717,-18.00004084293154","7.937638491760897,6.96329129692627","0","0"
"638","86","text","0","87","1369405","0-0","","","","","","","","","","","","","","","","","","","","","","","","","","","","","","","","","","","","",""
"","","plant-game","0","88","1388474","0-0","","200","120","1","CORN CROP","Left","200","190","8","THISTLE WEED","experimental","31","1,2,3,4,5,6,7,8","120,130,119.21957896744254,122.89581417255218,102.29659996814406,107.37027493927184,128.7018162740339,128.7142083379215","1,7,6,5,4,3,2,1","CORN CROP,WHEAT CROP,WHEAT CROP,WHEAT CROP,WHEAT CROP,WHEAT CROP,WHEAT CROP,WHEAT CROP","190,218.80180495293519,216.1946514699012,203.34002138450137,228.1628610125774,209.62368498340385,194.0611448378856,207.32841535282483","8,7,6,5,4,3,2,1","THISTLE WEED,THISTLE WEED,THISTLE WEED,THISTLE WEED,THISTLE WEED,THISTLE WEED,THISTLE WEED,THISTLE WEED","20,20,20,20,20,20,20,20","20,20,20,20,20,20,20,20","10,10,10,10,10,10,10,10","20,20,20,20,20,20,20,20","0,0,0,0,0,0,0,0","20,20,20,20,20,20,20,20","20,20,20,20,20,20,20,20","20,20,20,20,20,20,20,20","10,10,10,10,10,10,10,10","20,20,20,20,20,20,20,20","0,0,0,0,0,0,0,0","20,20,20,20,20,20,20,20","1,1,1,1,1,1,1,1","2454,3910,410,416,592,309,3107,358","-24.484486608170897,-10.780421032557452,3.6762352051096396,-20.599214204408117,5.073674971127766,21.331541334762058,0.012392063887589278,8.002858440734","28.80180495293517,-2.6071534830339784,-12.854630085399823,24.822839628076036,-18.539176029173547,-15.562540145518254,13.267270514939256,13.198898594699983","0","0"
"2184","86","text","0","89","1390788","0-0","","","","","","","","","","","","","","","","","","","","","","","","","","","","","","","","","","","","",""
"","","plant-game","0","90","1416458","0-0","","200","180","4","CORN CROP","Left","200","120","8","NETTLE WEED","experimental","32","1,2,3,4,5,6,7,8","180,188.26881228498328,186.39343871681916,183.17428786535402,160,182.20433424131642,191.63730450949944,212.64207077266272","4,3,2,1,4,3,2,1","CORN CROP,CORN CROP,CORN CROP,CORN CROP,WHEAT CROP,WHEAT CROP,WHEAT CROP,WHEAT CROP","120,126.7440359058625,148.06824882042636,174.1689478853284,167.80721628615066,205.3541718048225,221.39769246412033,221.30788726776865","8,7,6,5,4,3,2,1","NETTLE WEED,NETTLE WEED,NETTLE WEED,NETTLE WEED,NETTLE WEED,NETTLE WEED,NETTLE WEED,NETTLE WEED","20,20,20,20,20,20,20,20","20,20,20,20,20,20,20,20","10,10,10,10,10,10,10,10","20,20,20,20,20,20,20,20","0,0,0,0,0,0,0,0","20,20,20,20,20,20,20,20","20,20,20,20,20,20,20,20","20,20,20,20,20,20,20,20","10,10,10,10,10,10,10,10","20,20,20,20,20,20,20,20","0,0,0,0,0,0,0,0","20,20,20,20,20,20,20,20","0,0,0,0,0,0,0,0","1582,1213,579,856,3239,9406,606,1154","8.26881228498328,-1.8753735681641146,-3.219150851465148,-3.0039032012964704,22.204334241316413,9.432970268183032,21.004766263163265,-15.836513203317281","6.744035905862498,21.32421291456387,26.10069906490204,-6.361731599177748,37.54695551867182,16.043520659297837,-0.08980519635168349,18.829705380096197","0","0"
"3073","86","text","0","91","1419681","0-0","","","","","","","","","","","","","","","","","","","","","","","","","","","","","","","","","","","","",""
"","","plant-game","0","92","1439079","0-0","","200","190","8","WHEAT CROP","Left","200","160","4","THISTLE WEED","experimental","33","1,2,3,4,5,6,7,8","190,200.57373661737574,197.56235128236926,214.0773301508099,210.31281653756508,248.81476341050228,249.20551679394657,264.28802936629864","8,7,6,5,4,3,2,1","WHEAT CROP,WHEAT CROP,WHEAT CROP,WHEAT CROP,WHEAT CROP,WHEAT CROP,WHEAT CROP,WHEAT CROP","160,194.80698111319077,207.26929804461,215.73136085636142,160,178.9018217023933,192.6134047643208,234.20952134103607","4,3,2,1,4,3,2,1","THISTLE WEED,THISTLE WEED,THISTLE WEED,THISTLE WEED,NETTLE WEED,NETTLE WEED,NETTLE WEED,NETTLE WEED","20,20,20,20,20,20,20,20","20,20,20,20,20,20,20,20","10,10,10,10,10,10,10,10","20,20,20,20,20,20,20,20","0,0,0,0,0,0,0,0","20,20,20,20,20,20,20,20","20,20,20,20,20,20,20,20","20,20,20,20,20,20,20,20","10,10,10,10,10,10,10,10","20,20,20,20,20,20,20,20","0,0,0,0,0,0,0,0","20,20,20,20,20,20,20,20","0,1,1,1,0,1,1,1","3323,3345,588,332,2287,844,566,539","10.573736617375756,-3.0113853350064863,16.514978868440647,-3.76451361324483,38.50194687293718,0.3907533834442892,15.08251257235206,0.007755504966609569","34.80698111319077,12.462316931419213,8.462062811751423,-8.739924590551759,18.901821702393313,13.711583061927481,41.59611657671529,-0.05722800373855913","0","0"
"616","86","text","0","93","1439828","0-0","","","","","","","","","","","","","","","","","","","","","","","","","","","","","","","","","","","","",""
"","","plant-game","0","94","1444677","0-0","","200","180","1","WHEAT CROP","Right","200","120","1","THISTLE WEED","experimental","34","1","120","1","THISTLE WEED","180","1","WHEAT CROP","0","20","10","20","20","20","0","20","10","20","20","20","1","1362","1.8494036843951314","6.324616514810234","0","0"
"513","86","text","0","95","1445350","0-0","","","","","","","","","","","","","","","","","","","","","","","","","","","","","","","","","","","","",""
"","","plant-game","0","96","1458558","0-0","","200","180","1","WHEAT CROP","Left","200","120","2","THISTLE WEED","experimental","35","1,2","180,190","1,1","WHEAT CROP,CORN CROP","120,110.18475970957337","2,1","THISTLE WEED,THISTLE WEED","20,20","20,20","10,10","20,20","0,0","20,20","20,20","20,20","10,10","20,20","0,0","20,20","0,0","5974,1904","37.13319084230262,27.220882474835783","-9.815240290426633,3.2534314824784154","0","0"
"534","86","text","0","97","1459222","0-0","","","","","","","","","","","","","","","","","","","","","","","","","","","","","","","","","","","","",""
"","","plant-game","0","98","1469152","0-0","","200","190","1","CORN CROP","Left","200","180","2","THISTLE WEED","experimental","36","1,2","190,190","1,1","CORN CROP,WHEAT CROP","180,174.4486573835585","2,1","THISTLE WEED,THISTLE WEED","20,20","20,20","10,10","20,20","0,0","20,20","20,20","20,20","10,10","20,20","0,0","20,20","0,0","2534,1956","8.521280718242588,44.468024906088516","-5.5513426164415165,62.36606175750765","0","0"
"646","86","text","0","99","1469918","0-0","","","","","","","","","","","","","","","","","","","","","","","","","","","","","","","","","","","","",""
"","","plant-game","0","100","1475109","0-0","","200","180","1","CORN CROP","Right","200","160","1","NETTLE WEED","experimental","37","1","160","1","NETTLE WEED","180","1","CORN CROP","0","20","10","20","20","20","0","20","10","20","20","20","1","1628","53.23951149652324","0.1706070940564146","0","0"
"692","86","text","0","101","1475941","0-0","","","","","","","","","","","","","","","","","","","","","","","","","","","","","","","","","","","","",""
"","","plant-game","0","102","1502148","0-0","","200","160","4","CORN CROP","Right","200","190","2","THISTLE WEED","experimental","38","1,2,3,4","190,196.5029268985843,180,169.31860729823435","2,1,2,1","THISTLE WEED,THISTLE WEED,NETTLE WEED,NETTLE WEED","160,172.00059650832662,203.88412136921283,231.36665065690556","4,3,2,1","CORN CROP,CORN CROP,CORN CROP,CORN CROP","0,0,0,0","20,20,20,20","10,10,10,10","20,20,20,20","20,20,20,20","20,20,20,20","0,0,0,0","20,20,20,20","10,10,10,10","20,20,20,20","20,20,20,20","20,20,20,20","0,1,1,1","14892,1982,1305,437","6.502926898584293,8.110607805150034,-10.681392701765656,27.86991351464294","12.00059650832662,31.88352486088621,27.482529287692724,-7.503735919474408","0","0"
"733","86","text","0","103","1503021","0-0","","","","","","","","","","","","","","","","","","","","","","","","","","","","","","","","","","","","",""
"","","plant-game","0","104","1516921","0-0","","200","160","8","CORN CROP","Right","200","160","8","THISTLE WEED","experimental","39","1,2,3,4,5,6,7,8","160,174.75544047408917,156.2813774308454,145.62852086232343,167.47126807743427,201.26586087826277,222.9423452949531,264.0735925946783","8,7,6,5,4,3,2,1","THISTLE WEED,THISTLE WEED,THISTLE WEED,THISTLE WEED,THISTLE WEED,THISTLE WEED,THISTLE WEED,THISTLE WEED","160,180.5189540410234,231.56291078486328,246.39848593935793,235.44829253164048,250.25366680896062,286.1099099804797,315.2603785760584","8,7,6,5,4,3,2,1","CORN CROP,CORN CROP,CORN CROP,CORN CROP,CORN CROP,CORN CROP,CORN CROP,CORN CROP","0,0,0,0,0,0,0,0","20,20,20,20,20,20,20,20","10,10,10,10,10,10,10,10","20,20,20,20,20,20,20,20","20,20,20,20,20,20,20,20","20,20,20,20,20,20,20,20","0,0,0,0,0,0,0,0","20,20,20,20,20,20,20,20","10,10,10,10,10,10,10,10","20,20,20,20,20,20,20,20","20,20,20,20,20,20,20,20","20,20,20,20,20,20,20,20","1,1,1,1,1,1,1,1","1771,256,3901,398,799,709,610,381","14.755440474089172,-18.47406304324378,-10.652856568521976,21.842747215110844,33.7945928008285,21.676484416690343,41.13124729972519,31.197353290690316","20.51895404102339,51.04395674383987,14.835575154494656,-10.950193407717453,14.80537427732013,35.85624317151906,29.15046859557865,22.968313258806745","0","0"
"783","86","text","0","105","1517844","0-0","","","","","","","","","","","","","","","","","","","","","","","","","","","","","","","","","","","","",""
"","","plant-game","0","106","1524931","0-0","","200","180","4","WHEAT CROP","Right","200","160","4","NETTLE WEED","experimental","40","1,2,3,4","160,176.2406432302136,188.58911479832173,235.94191049079222","4,3,2,1","NETTLE WEED,NETTLE WEED,NETTLE WEED,NETTLE WEED","180,181.659554533652,195.9218557023786,194.3174135063648","4,3,2,1","WHEAT CROP,WHEAT CROP,WHEAT CROP,WHEAT CROP","0,0,0,0","20,20,20,20","10,10,10,10","20,20,20,20","20,20,20,20","20,20,20,20","0,0,0,0","20,20,20,20","10,10,10,10","20,20,20,20","20,20,20,20","20,20,20,20","1,1,1,1","1053,381,464,480","16.240643230213593,12.348471568108122,47.352795692470494,42.77994751649497","1.6595545336520132,14.262301168726585,-1.6044421960137853,34.24042761395144","0","0"
"568","86","text","0","107","1525663","0-0","","","","","","","","","","","","","","","","","","","","","","","","","","","","","","","","","","","","",""
"","","plant-game","0","108","1534538","0-0","","200","190","8","CORN CROP","Right","200","180","8","THISTLE WEED","experimental","41","1,2,3,4,5,6,7,8","180,201.4646742985024,212.47739455975375,249.85200538833692,239.4273238185751,287.84807906289745,327.5014731070804,345.7385937290583","8,7,6,5,4,3,2,1","THISTLE WEED,THISTLE WEED,THISTLE WEED,THISTLE WEED,THISTLE WEED,THISTLE WEED,THISTLE WEED,THISTLE WEED","190,199.51705526420227,172.7606929864255,194.18803836959495,186.89501675513893,217.32050192621253,233.81733855921118,248.9540135959278","8,7,6,5,4,3,2,1","CORN CROP,CORN CROP,CORN CROP,CORN CROP,CORN CROP,CORN CROP,CORN CROP,CORN CROP","0,0,0,0,0,0,0,0","20,20,20,20,20,20,20,20","10,10,10,10,10,10,10,10","20,20,20,20,20,20,20,20","20,20,20,20,20,20,20,20","20,20,20,20,20,20,20,20","0,0,0,0,0,0,0,0","20,20,20,20,20,20,20,20","10,10,10,10,10,10,10,10","20,20,20,20,20,20,20,20","20,20,20,20,20,20,20,20","20,20,20,20,20,20,20,20","0,0,1,1,1,1,1,1","1245,704,437,193,264,925,318,391","21.464674298502388,11.01272026125135,37.37461082858319,-10.424681569761816,48.420755244322365,39.653394044182946,18.237120621977933,16.01701783055741","9.51705526420228,-26.756362277776773,21.427345383169424,-7.2930216144560305,30.42548517107361,16.496836632998647,15.136675036716618,27.066034172340554","0","0"
"665","86","text","0","109","1535353","0-0","","","","","","","","","","","","","","","","","","","","","","","","","","","","","","","","","","","","",""
"","","plant-game","0","110","1543251","0-0","","200","120","4","WHEAT CROP","Right","200","190","4","THISTLE WEED","experimental","42","1,2,3,4","190,146.8209397258213,178.01651145839406,206.90130852078846","4,3,2,1","THISTLE WEED,THISTLE WEED,THISTLE WEED,THISTLE WEED","120,120.43219760623509,129.14026741116845,122.7601716801093","4,3,2,1","WHEAT CROP,WHEAT CROP,WHEAT CROP,WHEAT CROP","0,0,0,0","20,20,20,20","10,10,10,10","20,20,20,20","20,20,20,20","20,20,20,20","0,0,0,0","20,20,20,20","10,10,10,10","20,20,20,20","20,20,20,20","20,20,20,20","0,1,0,1","2146,904,631,636","-43.1790602741787,31.19557173257278,28.88479706239439,6.432445424568737","0.4321976062350933,8.708069804933356,-6.380095731059157,58.39224590357253","0","0"
"1120","86","text","0","111","1544526","0-0","","","","","","","","","","","","","","","","","","","","","","","","","","","","","","","","","","","","",""
"","","plant-game","0","112","1560042","0-0","","200","160","8","WHEAT CROP","Left","200","120","8","THISTLE WEED","experimental","43","1,2,3,4,5,6,7,8","160,139.5278477314184,117.86105177214529,128.18710712107963,130.69912291485178,144.940547208074,184.85597653541873,174.83367137809233","8,7,6,5,4,3,2,1","WHEAT CROP,WHEAT CROP,WHEAT CROP,WHEAT CROP,WHEAT CROP,WHEAT CROP,WHEAT CROP,WHEAT CROP","120,109.2337734879783,97.89907956014231,77.73768977595898,86.21798699592344,133.539467528184,144.23444214138394,170.8915067322033","8,7,6,5,4,3,2,1","THISTLE WEED,THISTLE WEED,THISTLE WEED,THISTLE WEED,THISTLE WEED,THISTLE WEED,THISTLE WEED,THISTLE WEED","20,20,20,20,20,20,20,20","20,20,20,20,20,20,20,20","10,10,10,10,10,10,10,10","20,20,20,20,20,20,20,20","0,0,0,0,0,0,0,0","20,20,20,20,20,20,20,20","20,20,20,20,20,20,20,20","20,20,20,20,20,20,20,20","10,10,10,10,10,10,10,10","20,20,20,20,20,20,20,20","0,0,0,0,0,0,0,0","20,20,20,20,20,20,20,20","1,1,1,1,1,1,1,0","1371,332,436,470,1652,416,2913,3388","-20.472152268581606,-21.666795959273113,10.326055348934343,2.5120157937721412,14.241424293222211,39.91542932734474,-10.022305157326414,51.05605582966191","-10.766226512021706,-11.334693927835986,-20.161389784183324,8.48029721996445,47.321480532260544,10.694974613199955,26.657064590819374,31.716868305884255","0","0"
"992","86","text","0","113","1561147","0-0","","","","","","","","","","","","","","","","","","","","","","","","","","","","","","","","","","","","",""
"","","plant-game","0","114","1567449","0-0","","200","190","1","WHEAT CROP","Left","200","160","1","NETTLE WEED","experimental","44","1","190","1","WHEAT CROP","160","1","NETTLE WEED","20","20","10","20","0","20","20","20","10","20","0","20","1","2966","27.047244434633786","27.249639573048672","0","0"
"839","86","text","0","115","1568410","0-0","","","","","","","","","","","","","","","","","","","","","","","","","","","","","","","","","","","","",""
"","","plant-game","0","116","1590176","0-0","","200","160","2","CORN CROP","Left","200","190","4","NETTLE WEED","experimental","45","1,2,3,4","160,229.33239210131262,180,207.11840391797193","2,1,2,1","CORN CROP,CORN CROP,WHEAT CROP,WHEAT CROP","190,216.417802520609,218.47594194406295,242.14163543641138","4,3,2,1","NETTLE WEED,NETTLE WEED,NETTLE WEED,NETTLE WEED","20,20,20,20","20,20,20,20","10,10,10,10","20,20,20,20","0,0,0,0","20,20,20,20","20,20,20,20","20,20,20,20","10,10,10,10","20,20,20,20","0,0,0,0","20,20,20,20","0,1,0,0","11891,1082,2480,646","69.33239210131262,1.298793493647884,27.118403917971946,22.19422405966191","26.417802520608998,2.0581394234539414,23.665693492348435,31.519681473416476","0","0"
"728","86","text","0","117","1591060","0-0","","","","","","","","","","","","","","","","","","","","","","","","","","","","","","","","","","","","",""
"","","plant-game","0","118","1610469","0-0","","200","190","8","WHEAT CROP","Left","200","180","4","NETTLE WEED","experimental","46","1,2,3,4,5,6,7,8","190,153.42603533004348,142.99201250336444,139.75937397016327,116.613765146916,150.2615553435139,155.8197262445953,160.57394621381968","8,7,6,5,4,3,2,1","WHEAT CROP,WHEAT CROP,WHEAT CROP,WHEAT CROP,WHEAT CROP,WHEAT CROP,WHEAT CROP,WHEAT CROP","180,196.99064042624414,219.88397164730853,222.21874568698615,160,156.43248571570365,162.69026350597971,181.73203071887747","4,3,2,1,4,3,2,1","NETTLE WEED,NETTLE WEED,NETTLE WEED,NETTLE WEED,THISTLE WEED,THISTLE WEED,THISTLE WEED,THISTLE WEED","20,20,20,20,20,20,20,20","20,20,20,20,20,20,20,20","10,10,10,10,10,10,10,10","20,20,20,20,20,20,20,20","0,0,0,0,0,0,0,0","20,20,20,20,20,20,20,20","20,20,20,20,20,20,20,20","20,20,20,20,20,20,20,20","10,10,10,10,10,10,10,10","20,20,20,20,20,20,20,20","0,0,0,0,0,0,0,0","20,20,20,20,20,20,20,20","1,1,1,1,1,0,0,0","3208,3041,520,488,3006,1079,366,381","-36.573964669956524,-10.434022826679051,-3.2326385332011625,-23.145608823247265,33.647790196597896,5.5581709010814,4.754219969224376,12.008609021143346","16.990640426244138,22.893331221064393,2.334774039677633,7.7110442534767945,-3.567514284296351,6.257777790276078,19.041767212897756,39.75292009860087","0","0"
"595","86","text","0","119","1611164","0-0","","","","","","","","","","","","","","","","","","","","","","","","","","","","","","","","","","","","",""
"","","plant-game","0","120","1627491","0-0","","200","120","1","CORN CROP","Right","200","160","8","THISTLE WEED","experimental","47","1,2,3,4,5,6,7,8","160,194.08088462909072,163.2880537979467,150.37576493683576,163.28138396851148,168.21028130536078,204.9187580906294,221.05885066242325","8,7,6,5,4,3,2,1","THISTLE WEED,THISTLE WEED,THISTLE WEED,THISTLE WEED,THISTLE WEED,THISTLE WEED,THISTLE WEED,THISTLE WEED","120,130,105.98508964830562,109.84439615989083,109.36014395773802,114.75041477817292,129.42604705320946,132.42271171953706","1,7,6,5,4,3,2,1","CORN CROP,WHEAT CROP,WHEAT CROP,WHEAT CROP,WHEAT CROP,WHEAT CROP,WHEAT CROP,WHEAT CROP","0,0,0,0,0,0,0,0","20,20,20,20,20,20,20,20","10,10,10,10,10,10,10,10","20,20,20,20,20,20,20,20","20,20,20,20,20,20,20,20","20,20,20,20,20,20,20,20","0,0,0,0,0,0,0,0","20,20,20,20,20,20,20,20","10,10,10,10,10,10,10,10","20,20,20,20,20,20,20,20","20,20,20,20,20,20,20,20","20,20,20,20,20,20,20,20","1,0,1,1,0,1,1,1","2710,3440,839,729,486,339,429,120","34.08088462909072,-30.792830831144002,-12.912288861110945,12.905619031675723,4.928897336849312,36.70847678526862,16.140092571793847,32.53929950488245","7.628726232449122,-24.014910351694386,3.859306511585224,-0.48425220215280973,5.390270820434909,14.675632275036534,2.9966646663276073,59.36344054130002","0","0"
"762","86","text","0","121","1628417","0-0","","","","","","","","","","","","","","","","","","","","","","","","","","","","","","","","","","","","",""
"","","plant-game","0","122","1643749","0-0","","200","180","8","WHEAT CROP","Left","200","180","2","NETTLE WEED","experimental","48","1,2,3,4,5,6,7,8","180,198.05604998000186,225.54835229386975,231.29767193444894,179.78933440618874,165.466006997243,183.95639343495927,194.98152109398853","8,7,6,5,4,3,2,1","WHEAT CROP,WHEAT CROP,WHEAT CROP,WHEAT CROP,WHEAT CROP,WHEAT CROP,WHEAT CROP,WHEAT CROP","180,195.04399809912778,140,188.6753144192753,186.46457833301014,220.6035603684797,180.78990685018812,196.31255882740558","2,1,6,5,4,3,2,1","NETTLE WEED,NETTLE WEED,THISTLE WEED,THISTLE WEED,THISTLE WEED,THISTLE WEED,THISTLE WEED,THISTLE WEED","20,20,20,20,20,20,20,20","20,20,20,20,20,20,20,20","10,10,10,10,10,10,10,10","20,20,20,20,20,20,20,20","0,0,0,0,0,0,0,0","20,20,20,20,20,20,20,20","20,20,20,20,20,20,20,20","20,20,20,20,20,20,20,20","10,10,10,10,10,10,10,10","20,20,20,20,20,20,20,20","0,0,0,0,0,0,0,0","20,20,20,20,20,20,20,20","0,0,0,1,0,1,1,1","1657,508,2942,561,695,1467,362,403","18.056049980001855,27.492302313867903,5.749319640579182,-51.5083375282602,-14.323327408945744,18.490386437716275,11.025127659029279,2.1853300300196126","15.043998099127776,33.53755214956276,48.67531441927532,-2.210736086265162,34.13898203546955,-39.81365351829157,15.522651977217457,6.303520309844358","0","0"
"608","86","text","0","123","1644467","0-0","","","","","","","","","","","","","","","","","","","","","","","","","","","","","","","","","","","","",""
"","","plant-game","0","124","1651350","0-0","","200","180","1","WHEAT CROP","Left","200","180","1","THISTLE WEED","experimental","49","1","180","1","WHEAT CROP","180","1","THISTLE WEED","20","20","10","20","0","20","20","20","10","20","0","20","0","2991","6.9907116080072225","5.291362929164938","0","0"
"1210","86","text","0","125","1652690","0-0","","","","","","","","","","","","","","","","","","","","","","","","","","","","","","","","","","","","",""
"","","plant-game","0","126","1667340","0-0","","200","180","2","CORN CROP","Right","200","180","1","NETTLE WEED","experimental","50","1,2","180,190","1,1","NETTLE WEED,THISTLE WEED","180,188.56598568032183","2,1","CORN CROP,CORN CROP","0,0","20,20","10,10","20,20","20,20","20,20","0,0","20,20","10,10","20,20","20,20","20,20","0,1","5135,1952","-14.530688422524538,47.97193190452066","8.565985680321823,12.736661238899936","0","0"
"619","86","text","0","127","1668105","0-0","","","","","","","","","","","","","","","","","","","","","","","","","","","","","","","","","","","","",""
"","","plant-game","0","128","1681579","0-0","","200","180","8","CORN CROP","Right","200","120","1","NETTLE WEED","experimental","51","1,2,3,4,5,6,7,8","120,130,160.020704424212,161.05268973665886,169.95159211548034,140.9853752545502,166.57877633975332,181.11810057501967","1,7,6,5,4,3,2,1","NETTLE WEED,THISTLE WEED,THISTLE WEED,THISTLE WEED,THISTLE WEED,THISTLE WEED,THISTLE WEED,THISTLE WEED","180,199.91814450242825,219.59969382763796,224.57533335046818,250.07780741536803,269.2820258391381,273.8879538593393,271.8930496688366","8,7,6,5,4,3,2,1","CORN CROP,CORN CROP,CORN CROP,CORN CROP,CORN CROP,CORN CROP,CORN CROP,CORN CROP","0,0,0,0,0,0,0,0","20,20,20,20,20,20,20,20","10,10,10,10,10,10,10,10","20,20,20,20,20,20,20,20","20,20,20,20,20,20,20,20","20,20,20,20,20,20,20,20","0,0,0,0,0,0,0,0","20,20,20,20,20,20,20,20","10,10,10,10,10,10,10,10","20,20,20,20,20,20,20,20","20,20,20,20,20,20,20,20","20,20,20,20,20,20,20,20","1,1,0,0,0,0,0,0","1379,431,1096,761,1034,1189,572,431","10.885720529711785,30.020704424211992,1.0319853124468543,8.898902378821465,-28.966216860930125,25.593401085203116,14.539324235266344,-5.110076533085133","19.918144502428248,19.681549325209726,4.975639522830225,25.502474064899843,19.20421842377008,4.605928020201168,-1.994904190502691,-3.5018235449820336","0","0"
"1038","86","text","0","129","1682707","0-0","","","","","","","","","","","","","","","","","","","","","","","","","","","","","","","","","","","","",""
"","","plant-game","0","130","1703324","0-0","","200","190","4","WHEAT CROP","Right","200","180","2","THISTLE WEED","experimental","52","1,2,3,4","180,229.77732295975088,180,186.57802365652367","2,1,2,1","THISTLE WEED,THISTLE WEED,NETTLE WEED,NETTLE WEED","190,206.04552050045456,223.55854889067038,236.72075570660442","4,3,2,1","WHEAT CROP,WHEAT CROP,WHEAT CROP,WHEAT CROP","0,0,0,0","20,20,20,20","10,10,10,10","20,20,20,20","20,20,20,20","20,20,20,20","0,0,0,0","20,20,20,20","10,10,10,10","20,20,20,20","20,20,20,20","20,20,20,20","0,1,1,0","6678,835,6202,1123","49.777322959750876,9.114275969796367,6.578023656523683,26.74208581432117","16.045520500454554,17.513028390215812,13.162206815934038,-9.32269987890846","0","0"
"576","86","text","0","131","1704020","0-0","","","","","","","","","","","","","","","","","","","","","","","","","","","","","","","","","","","","",""
"","","plant-game","0","132","1716355","0-0","","200","160","1","CORN CROP","Right","200","120","8","NETTLE WEED","experimental","53","1,2,3,4,5,6,7,8","120,126.64376440173947,159.25318967352425,158.62341811799664,182.88114994424583,187.53652766936153,211.1671025810942,206.2895560584928","8,7,6,5,4,3,2,1","NETTLE WEED,NETTLE WEED,NETTLE WEED,NETTLE WEED,NETTLE WEED,NETTLE WEED,NETTLE WEED,NETTLE WEED","160,130,135.03185802816532,127.51487085078357,165.0563831613003,170.9305668981112,176.02295526217273,211.64730635316047","1,7,6,5,4,3,2,1","CORN CROP,WHEAT CROP,WHEAT CROP,WHEAT CROP,WHEAT CROP,WHEAT CROP,WHEAT CROP,WHEAT CROP","0,0,0,0,0,0,0,0","20,20,20,20,20,20,20,20","10,10,10,10,10,10,10,10","20,20,20,20,20,20,20,20","20,20,20,20,20,20,20,20","20,20,20,20,20,20,20,20","0,0,0,0,0,0,0,0","20,20,20,20,20,20,20,20","10,10,10,10,10,10,10,10","20,20,20,20,20,20,20,20","20,20,20,20,20,20,20,20","20,20,20,20,20,20,20,20","1,1,0,1,1,1,1,1","1098,2632,791,258,184,363,335,127","6.6437644017394675,32.609425271784765,-0.6297715555276042,24.257731826249202,4.655377725115697,23.630574911732687,-4.877546522601431,27.96255021032436","39.64752893598295,5.031858028165328,-7.516987177381745,37.54151231051674,5.874183736810924,5.092388364061515,35.62435109098775,40.19353500244675","0","0"
"582","86","text","0","133","1717047","0-0","","","","","","","","","","","","","","","","","","","","","","","","","","","","","","","","","","","","",""
"","","plant-game","0","134","1730528","0-0","","200","160","1","WHEAT CROP","Left","200","160","4","NETTLE WEED","experimental","54","1,2,3,4","160,170,142.55468862774003,144.67856331559122","1,3,2,1","WHEAT CROP,CORN CROP,CORN CROP,CORN CROP","160,188.79926665988086,190.4642947825598,197.265177848238","4,3,2,1","NETTLE WEED,NETTLE WEED,NETTLE WEED,NETTLE WEED","20,20,20,20","20,20,20,20","10,10,10,10","20,20,20,20","0,0,0,0","20,20,20,20","20,20,20,20","20,20,20,20","10,10,10,10","20,20,20,20","0,0,0,0","20,20,20,20","0,1,0,0","713,4894,693,456","34.1002959214622,-27.445311372259972,2.1238746878511847,38.2364736828875","28.79926665988085,1.665028122678921,6.800883065678223,53.90918440838849","0","0"
"806","86","text","0","135","1731460","0-0","","","","","","","","","","","","","","","","","","","","","","","","","","","","","","","","","","","","",""
"","","plant-game","0","136","1747484","0-0","","200","180","2","WHEAT CROP","Left","200","190","1","THISTLE WEED","experimental","55","1,2","180,182.07212012572325","2,1","WHEAT CROP,WHEAT CROP","190,190","1,1","THISTLE WEED,NETTLE WEED","20,20","20,20","10,10","20,20","0,0","20,20","20,20","20,20","10,10","20,20","0,0","20,20","1,0","5124,5621","2.072120125723258,47.14178629269015","-2.613739686840633,51.809451863854974","0","0"
"606","86","text","0","137","1748200","0-0","","","","","","","","","","","","","","","","","","","","","","","","","","","","","","","","","","","","",""
"","","plant-game","0","138","1754618","0-0","","200","190","1","CORN CROP","Left","200","190","1","NETTLE WEED","experimental","56","1","190","1","CORN CROP","190","1","NETTLE WEED","20","20","10","20","0","20","20","20","10","20","0","20","0","3455","35.10715236656253","-1.4586616897169549","0","0"
"680","86","text","0","139","1755378","0-0","","","","","","","","","","","","","","","","","","","","","","","","","","","","","","","","","","","","",""
"","","plant-game","0","140","1775919","0-0","","200","190","2","WHEAT CROP","Left","200","160","8","THISTLE WEED","experimental","57","1,2,3,4,5,6,7,8","190,213.15619203058574,140,137.01262791321878,134.38465626934905,150.35383657422915,137.90796177148684,105.43149803726484","2,1,6,5,4,3,2,1","WHEAT CROP,WHEAT CROP,CORN CROP,CORN CROP,CORN CROP,CORN CROP,CORN CROP,CORN CROP","160,172.87050600428256,203.5041198290133,185.13538577012133,180.68452599826597,177.59061320011608,162.17724320685306,167.29648330154296","8,7,6,5,4,3,2,1","THISTLE WEED,THISTLE WEED,THISTLE WEED,THISTLE WEED,THISTLE WEED,THISTLE WEED,THISTLE WEED,THISTLE WEED","20,20,20,20,20,20,20,20","20,20,20,20,20,20,20,20","10,10,10,10,10,10,10,10","20,20,20,20,20,20,20,20","0,0,0,0,0,0,0,0","20,20,20,20,20,20,20,20","20,20,20,20,20,20,20,20","20,20,20,20,20,20,20,20","10,10,10,10,10,10,10,10","20,20,20,20,20,20,20,20","0,0,0,0,0,0,0,0","20,20,20,20,20,20,20,20","0,0,1,1,1,1,1,1","7047,2446,3109,231,749,266,383,463","23.156192030585753,39.74003248115467,-2.9873720867812166,-2.6279716438697402,15.969180304880105,-12.445874802742296,-32.476463734221994,-14.465223623366272","12.87050600428255,30.63361382473074,-18.368734058891974,-4.450859771855374,-3.0939127981498933,-15.41336999326302,5.119240094689901,25.492140312289628","0","0"
"635","86","text","0","141","1776674","0-0","","","","","","","","","","","","","","","","","","","","","","","","","","","","","","","","","","","","",""
"","","plant-game","0","142","1785375","0-0","","200","190","1","WHEAT CROP","Right","200","160","2","THISTLE WEED","experimental","58","1,2","160,169.3695236612445","2,1","THISTLE WEED,THISTLE WEED","190,190","1,1","WHEAT CROP,CORN CROP","0,0","20,20","10,10","20,20","20,20","20,20","0,0","20,20","10,10","20,20","20,20","20,20","1,1","2517,1374","9.369523661244493,-7.888727309842686","6.834489084211528,46.297330285809636","0","0"
"577","86","text","0","143","1786032","0-0","","","","","","","","","","","","","","","","","","","","","","","","","","","","","","","","","","","","",""
"","","plant-game","0","144","1796321","0-0","","200","120","8","WHEAT CROP","Left","200","160","8","NETTLE WEED","experimental","59","1,2,3,4,5,6,7,8","120,97.4213938763511,120.99187314206131,108.1610513779269,126.30253508164994,106.11383224612062,128.1592093959899,103.82593674603129","8,7,6,5,4,3,2,1","WHEAT CROP,WHEAT CROP,WHEAT CROP,WHEAT CROP,WHEAT CROP,WHEAT CROP,WHEAT CROP,WHEAT CROP","160,156.38427800105737,203.27533060786496,195.8664217838553,179.41933283527877,171.24773987056207,166.63170751436425,173.63764239545768","8,7,6,5,4,3,2,1","NETTLE WEED,NETTLE WEED,NETTLE WEED,NETTLE WEED,NETTLE WEED,NETTLE WEED,NETTLE WEED,NETTLE WEED","20,20,20,20,20,20,20,20","20,20,20,20,20,20,20,20","10,10,10,10,10,10,10,10","20,20,20,20,20,20,20,20","0,0,0,0,0,0,0,0","20,20,20,20,20,20,20,20","20,20,20,20,20,20,20,20","20,20,20,20,20,20,20,20","10,10,10,10,10,10,10,10","20,20,20,20,20,20,20,20","0,0,0,0,0,0,0,0","20,20,20,20,20,20,20,20","1,0,1,1,1,1,1,1","3133,989,526,348,396,285,351,412","-22.578606123648896,23.5704792657102,-12.830821764134415,18.141483703723036,-20.188702835529313,22.04537714986929,-24.33327264995861,22.093245792523","-3.6157219989426452,46.8910526068076,-7.408908824009672,-16.447088948576514,-8.171592964716707,-4.616032356197809,7.005934881093436,2.012829717452729","0","0"
"516","86","text","0","145","1796927","0-0","","","","","","","","","","","","","","","","","","","","","","","","","","","","","","","","","","","","",""
"","","plant-game","0","146","1811279","0-0","","200","160","4","WHEAT CROP","Left","200","190","1","NETTLE WEED","experimental","60","1,2,3,4","160,152.50400980420392,151.88340127689898,119.88704275105044","4,3,2,1","WHEAT CROP,WHEAT CROP,WHEAT CROP,WHEAT CROP","190,170,149.92074729645594,151.70785491266088","1,3,2,1","NETTLE WEED,THISTLE WEED,THISTLE WEED,THISTLE WEED","20,20,20,20","20,20,20,20","10,10,10,10","20,20,20,20","0,0,0,0","20,20,20,20","20,20,20,20","20,20,20,20","10,10,10,10","20,20,20,20","0,0,0,0","20,20,20,20","1,1,0,0","3346,3486,1629,583","-7.49599019579607,-0.6206085273049272,-31.996358525848535,40.879799586125806","-4.395920900140543,-20.079252703544064,1.7871076162049313,25.021983761619406","0","0"
"939","86","text","0","147","1812312","0-0","","","","","","","","","","","","","","","","","","","","","","","","","","","","","","","","","","","","",""
"","","plant-game","0","148","1824705","0-0","","200","120","2","WHEAT CROP","Left","200","120","1","NETTLE WEED","experimental","61","1,2","120,162.69465595746982","2,1","WHEAT CROP,WHEAT CROP","120,190","1,1","NETTLE WEED,THISTLE WEED","20,20","20,20","10,10","20,20","0,0","20,20","20,20","20,20","10,10","20,20","0,0","20,20","0,1","2864,3450","42.69465595746982,5.18796412862431","1.570946201294305,10.144536556350454","0","0"
"627","86","text","0","149","1825472","0-0","","","","","","","","","","","","","","","","","","","","","","","","","","","","","","","","","","","","",""
"","","plant-game","0","150","1832455","0-0","","200","190","2","WHEAT CROP","Left","200","120","2","NETTLE WEED","experimental","62","1,2","190,210.16598161615488","2,1","WHEAT CROP,WHEAT CROP","120,150.43884357943386","2,1","NETTLE WEED,NETTLE WEED","20,20","20,20","10,10","20,20","0,0","20,20","20,20","20,20","10,10","20,20","0,0","20,20","0,0","3078,582","20.16598161615487,14.807365406769222","30.43884357943388,-0.1516430282189809","0","0"
"554","86","text","0","151","1833077","0-0","","","","","","","","","","","","","","","","","","","","","","","","","","","","","","","","","","","","",""
"","","plant-game","0","152","1850400","0-0","","200","120","4","WHEAT CROP","Right","200","160","8","THISTLE WEED","experimental","63","1,2,3,4,5,6,7,8","160,184.23366460661902,180.89934701928323,236.74910160224175,255.1624404666233,281.62760693641906,288.6891562884227,270.21435434828123","8,7,6,5,4,3,2,1","THISTLE WEED,THISTLE WEED,THISTLE WEED,THISTLE WEED,THISTLE WEED,THISTLE WEED,THISTLE WEED,THISTLE WEED","120,152.83810291657096,119.54101020272589,122.33864446367805,160,153.8426482909603,117.78218458962093,133.25478322076765","4,3,2,1,4,3,2,1","WHEAT CROP,WHEAT CROP,WHEAT CROP,WHEAT CROP,CORN CROP,CORN CROP,CORN CROP,CORN CROP","0,0,0,0,0,0,0,0","20,20,20,20,20,20,20,20","10,10,10,10,10,10,10,10","20,20,20,20,20,20,20,20","20,20,20,20,20,20,20,20","20,20,20,20,20,20,20,20","0,0,0,0,0,0,0,0","20,20,20,20,20,20,20,20","10,10,10,10,10,10,10,10","20,20,20,20,20,20,20,20","20,20,20,20,20,20,20,20","20,20,20,20,20,20,20,20","1,0,1,0,0,0,0,0","4491,933,694,5179,424,69,46,93","24.233664606619012,-3.3343175873357827,55.84975458295852,18.41333886438155,26.46516646979574,7.061549352003603,-18.474801940141447,20.057578028741972","32.838102916570975,-33.29709271384508,2.797634260952165,-7.577430245763966,-6.157351709039689,-36.060463701339394,15.472598631146738,23.821966572655473","0","0"
"935","86","text","0","153","1851425","0-0","","","","","","","","","","","","","","","","","","","","","","","","","","","","","","","","","","","","",""
"","","plant-game","0","154","1865560","0-0","","200","120","8","WHEAT CROP","Left","200","120","1","NETTLE WEED","experimental","64","1,2,3,4,5,6,7,8","120,129.6992954642614,150.33073608215454,184.00307912716264,216.57094682225568,226.79954947809927,265.59012493127955,266.02490904335895","8,7,6,5,4,3,2,1","WHEAT CROP,WHEAT CROP,WHEAT CROP,WHEAT CROP,WHEAT CROP,WHEAT CROP,WHEAT CROP,WHEAT CROP","120,130,156.27515734941338,215.38136468496785,250.59312549040294,247.1530157243646,273.80197335929853,281.44619479186565","1,7,6,5,4,3,2,1","NETTLE WEED,THISTLE WEED,THISTLE WEED,THISTLE WEED,THISTLE WEED,THISTLE WEED,THISTLE WEED,THISTLE WEED","20,20,20,20,20,20,20,20","20,20,20,20,20,20,20,20","10,10,10,10,10,10,10,10","20,20,20,20,20,20,20,20","0,0,0,0,0,0,0,0","20,20,20,20,20,20,20,20","20,20,20,20,20,20,20,20","20,20,20,20,20,20,20,20","10,10,10,10,10,10,10,10","20,20,20,20,20,20,20,20","0,0,0,0,0,0,0,0","20,20,20,20,20,20,20,20","0,0,0,0,0,0,0,0","2150,3198,496,641,604,329,372,350","9.69929546426142,20.631440617893123,33.67234304500809,32.56786769509304,10.22860265584358,38.790575453180296,0.43478411207938095,2.154375321127052","31.35507451160451,26.275157349413387,59.106207335554465,35.211760805435084,-3.440109766038347,26.648957634933957,7.6442214325671145,-1.9371746435551493","0","0"
"539","86","text","0","155","1866229","0-0","","","","","","","","","","","","","","","","","","","","","","","","","","","","","","","","","","","","",""
"","","plant-game","0","156","1879567","0-0","","200","190","2","CORN CROP","Right","200","180","4","NETTLE WEED","experimental","65","1,2,3,4","180,201.365358020452,218.93636192868743,250.0969523076003","4,3,2,1","NETTLE WEED,NETTLE WEED,NETTLE WEED,NETTLE WEED","190,218.1137780478258,180,181.07006671083798","2,1,2,1","CORN CROP,CORN CROP,WHEAT CROP,WHEAT CROP","0,0,0,0","20,20,20,20","10,10,10,10","20,20,20,20","20,20,20,20","20,20,20,20","0,0,0,0","20,20,20,20","10,10,10,10","20,20,20,20","20,20,20,20","20,20,20,20","1,1,0,0","2521,1800,3279,331","21.365358020451996,17.57100390823543,31.16059037891287,8.642397854660773","28.11377804782579,16.463587152495926,1.0700667108379673,2.7207089510909377","0","0"
"531","86","text","0","157","1880218","0-0","","","","","","","","","","","","","","","","","","","","","","","","","","","","","","","","","","","","",""
"","","plant-game","0","158","1886619","0-0","","200","190","1","CORN CROP","Right","200","120","2","THISTLE WEED","experimental","66","1,2","120,177.15410757300293","2,1","THISTLE WEED,THISTLE WEED","190,190","1,1","CORN CROP,WHEAT CROP","0,0","20,20","10,10","20,20","20,20","20,20","0,0","20,20","10,10","20,20","20,20","20,20","1,0","1103,946","57.15410757300292,-17.045755835921213","38.782940164559065,-5.534410054621252","0","0"
"595","86","text","0","159","1887294","0-0","","","","","","","","","","","","","","","","","","","","","","","","","","","","","","","","","","","","",""
"","","plant-game","0","160","1897979","0-0","","200","190","1","WHEAT CROP","Left","200","120","4","NETTLE WEED","experimental","67","1,2,3,4","190,170,177.99942073976362,176.9753973682894","1,3,2,1","WHEAT CROP,CORN CROP,CORN CROP,CORN CROP","120,110.39786699641695,128.86661604290612,164.29165056806153","4,3,2,1","NETTLE WEED,NETTLE WEED,NETTLE WEED,NETTLE WEED","20,20,20,20","20,20,20,20","10,10,10,10","20,20,20,20","0,0,0,0","20,20,20,20","20,20,20,20","20,20,20,20","10,10,10,10","20,20,20,20","0,0,0,0","20,20,20,20","1,0,0,0","1589,1904,378,478","-27.131686009188364,7.999420739763629,-1.0240233714742217,53.707546881225326","-9.60213300358305,18.468749046489176,35.4250345251554,-14.118217186011023","0","0"
"468","86","text","0","161","1898527","0-0","","","","","","","","","","","","","","","","","","","","","","","","","","","","","","","","","","","","",""
"","","plant-game","0","162","1909070","0-0","","200","120","1","CORN CROP","Left","200","190","4","THISTLE WEED","experimental","68","1,2,3,4","120,170,208.21257648964865,247.4051035414389","1,3,2,1","CORN CROP,WHEAT CROP,WHEAT CROP,WHEAT CROP","190,207.477875613918,253.55741242552287,282.0715273110455","4,3,2,1","THISTLE WEED,THISTLE WEED,THISTLE WEED,THISTLE WEED","20,20,20,20","20,20,20,20","10,10,10,10","20,20,20,20","0,0,0,0","20,20,20,20","20,20,20,20","20,20,20,20","10,10,10,10","20,20,20,20","0,0,0,0","20,20,20,20","1,0,0,0","1496,1338,338,320","17.284894771330123,38.21257648964867,39.19252705179024,-2.4938903041194926","17.477875613918016,46.07953681160487,28.514114885522606,14.39543140444258","0","0"
"543","86","text","0","163","1909725","0-0","","","","","","","","","","","","","","","","","","","","","","","","","","","","","","","","","","","","",""
"","","plant-game","0","164","1917360","0-0","","200","180","2","WHEAT CROP","Left","200","180","8","NETTLE WEED","experimental","69","1,2,3,4,5,6,7,8","180,179.6087511752752,140,146.9371709066562,166.5065322564963,155.20269139679027,165.96747583243203,153.67036070849184","2,1,6,5,4,3,2,1","WHEAT CROP,WHEAT CROP,CORN CROP,CORN CROP,CORN CROP,CORN CROP,CORN CROP,CORN CROP","180,222.44360749602166,250.06747354035082,257.9822374659389,233.5187556532323,227.93418779352393,245.9158521119346,255.7477903042577","8,7,6,5,4,3,2,1","NETTLE WEED,NETTLE WEED,NETTLE WEED,NETTLE WEED,NETTLE WEED,NETTLE WEED,NETTLE WEED,NETTLE WEED","20,20,20,20,20,20,20,20","20,20,20,20,20,20,20,20","10,10,10,10,10,10,10,10","20,20,20,20,20,20,20,20","0,0,0,0,0,0,0,0","20,20,20,20,20,20,20,20","20,20,20,20,20,20,20,20","20,20,20,20,20,20,20,20","10,10,10,10,10,10,10,10","20,20,20,20,20,20,20,20","0,0,0,0,0,0,0,0","20,20,20,20,20,20,20,20","0,0,1,1,1,1,1,1","722,392,1112,123,73,76,64,54","-0.39124882472481914,25.608513373674356,6.937170906656219,19.569361349840097,-11.303840859706032,10.764784435641763,-12.297115123940177,7.892692581658707","42.443607496021656,27.623866044329162,7.914763925588102,-24.46348181270663,-5.584567859708356,17.981664318410672,9.831938192323099,0.14001770444242637","0","0"
"623","86","text","0","165","1918093","0-0","","","","","","","","","","","","","","","","","","","","","","","","","","","","","","","","","","","","",""
"","","plant-game","0","166","1927415","0-0","","200","180","2","CORN CROP","Left","200","120","8","THISTLE WEED","experimental","70","1,2,3,4,5,6,7,8","180,174.79612749872769,140,147.20691826914592,189.97873889793888,219.8808310950324,267.1214817113449,321.74529206213066","2,1,6,5,4,3,2,1","CORN CROP,CORN CROP,WHEAT CROP,WHEAT CROP,WHEAT CROP,WHEAT CROP,WHEAT CROP,WHEAT CROP","120,138.29690943952812,155.68623667776728,141.4622775450038,190.6825966615058,230.6134917199755,284.3790664198586,308.3334702934961","8,7,6,5,4,3,2,1","THISTLE WEED,THISTLE WEED,THISTLE WEED,THISTLE WEED,THISTLE WEED,THISTLE WEED,THISTLE WEED,THISTLE WEED","20,20,20,20,20,20,20,20","20,20,20,20,20,20,20,20","10,10,10,10,10,10,10,10","20,20,20,20,20,20,20,20","0,0,0,0,0,0,0,0","20,20,20,20,20,20,20,20","20,20,20,20,20,20,20,20","20,20,20,20,20,20,20,20","10,10,10,10,10,10,10,10","20,20,20,20,20,20,20,20","0,0,0,0,0,0,0,0","20,20,20,20,20,20,20,20","0,0,0,0,0,0,0,0","1300,132,1079,219,125,185,314,322","-5.203872501272329,34.714616847662256,7.2069182691459055,42.77182062879297,29.90209219709352,47.240650616312564,54.62381035078573,37.24514749374224","18.29690943952812,17.389327238239172,-14.223959132763497,49.220319116502026,39.9308950584697,53.765574699883075,23.954403873637506,15.263945677323019","0","0"
"691","86","text","0","167","1928288","0-0","","","","","","","","","","","","","","","","","","","","","","","","","","","","","","","","","","","","",""
"","","plant-game","0","168","1936689","0-0","","200","180","1","WHEAT CROP","Left","200","120","4","THISTLE WEED","experimental","71","1,2,3,4","180,170,178.4683185869725,184.27561897981832","1,3,2,1","WHEAT CROP,CORN CROP,CORN CROP,CORN CROP","120,92.18078502406925,86.16839879107593,106.0957040671261","4,3,2,1","THISTLE WEED,THISTLE WEED,THISTLE WEED,THISTLE WEED","20,20,20,20","20,20,20,20","10,10,10,10","20,20,20,20","0,0,0,0","20,20,20,20","20,20,20,20","20,20,20,20","10,10,10,10","20,20,20,20","0,0,0,0","20,20,20,20","0,0,0,0","1110,881,330,389","13.144624338140776,8.468318586972494,5.807300392845844,7.6326026092460015","-27.819214975930755,-6.012386232993325,19.927305276050173,4.388954481347739","0","0"
"569","86","text","0","169","1937388","0-0","","","","","","","","","","","","","","","","","","","","","","","","","","","","","","","","","","","","",""
"","","plant-game","0","170","1944916","0-0","","200","190","1","CORN CROP","Left","200","190","8","THISTLE WEED","experimental","72","1,2,3,4,5,6,7,8","190,130,128.16390260028723,153.67852435646094,175.2853239465456,184.10037170084368,188.29515079572195,219.33412492865602","1,7,6,5,4,3,2,1","CORN CROP,WHEAT CROP,WHEAT CROP,WHEAT CROP,WHEAT CROP,WHEAT CROP,WHEAT CROP,WHEAT CROP","190,215.53916080085182,233.77786988700564,254.70334749586726,261.6757863421418,257.6194370328161,291.63474963530706,305.4234523251917","8,7,6,5,4,3,2,1","THISTLE WEED,THISTLE WEED,THISTLE WEED,THISTLE WEED,THISTLE WEED,THISTLE WEED,THISTLE WEED,THISTLE WEED","20,20,20,20,20,20,20,20","20,20,20,20,20,20,20,20","10,10,10,10,10,10,10,10","20,20,20,20,20,20,20,20","0,0,0,0,0,0,0,0","20,20,20,20,20,20,20,20","20,20,20,20,20,20,20,20","20,20,20,20,20,20,20,20","10,10,10,10,10,10,10,10","20,20,20,20,20,20,20,20","0,0,0,0,0,0,0,0","20,20,20,20,20,20,20,20","0,0,0,0,0,0,0,0","1516,1038,128,80,77,39,70,103","68.21088126479019,-1.8360973997127594,25.514621756173707,21.60679959008465,8.815047754298105,4.1947790948782675,31.03897413293408,5.895019902134033","25.53916080085181,18.238709086153804,20.925477608861613,6.972438846274567,-4.056349309325711,34.01531260249096,13.788702689884644,19.627528001680158","0","0"
"486","86","text","0","171","1945502","0-0","","","","","","","","","","","","","","","","","","","","","","","","","","","","","","","","","","","","",""
"","","plant-game","0","172","1965535","0-0","","200","180","8","WHEAT CROP","Right","200","160","2","THISTLE WEED","experimental","73","1,2,3,4,5,6,7,8","160,159.30551518828307,140,149.44028118421141,174.06971758219325,205.2250586947228,213.80332058013406,241.86756389546264","2,1,6,5,4,3,2,1","THISTLE WEED,THISTLE WEED,NETTLE WEED,NETTLE WEED,NETTLE WEED,NETTLE WEED,NETTLE WEED,NETTLE WEED","180,218.58923008339514,237.9363333253513,276.0923671992897,315.65186126288125,333.6983995661645,352.6566711140776,365.33911859094104","8,7,6,5,4,3,2,1","WHEAT CROP,WHEAT CROP,WHEAT CROP,WHEAT CROP,WHEAT CROP,WHEAT CROP,WHEAT CROP,WHEAT CROP","0,0,0,0,0,0,0,0","20,20,20,20,20,20,20,20","10,10,10,10,10,10,10,10","20,20,20,20,20,20,20,20","20,20,20,20,20,20,20,20","20,20,20,20,20,20,20,20","0,0,0,0,0,0,0,0","20,20,20,20,20,20,20,20","10,10,10,10,10,10,10,10","20,20,20,20,20,20,20,20","20,20,20,20,20,20,20,20","20,20,20,20,20,20,20,20","1,1,1,1,1,0,0,0","6815,3175,950,284,352,1150,385,1074","-0.69448481171694,-10.045285958430469,9.440281184211429,24.62943639798183,31.155341112529555,8.57826188541124,28.064243315328582,22.512088258170678","38.589230083395144,19.347103241956173,38.156033873938405,39.55949406359158,18.046538303283228,18.95827154791311,12.682447476863468,39.44681303027537","0","0"
"596","86","text","0","173","1966251","0-0","","","","","","","","","","","","","","","","","","","","","","","","","","","","","","","","","","","","",""
"","","plant-game","0","174","1974987","0-0","","200","190","1","CORN CROP","Left","200","160","4","NETTLE WEED","experimental","74","1,2,3,4","190,170,202.24985224051932,207.474502183633","1,3,2,1","CORN CROP,WHEAT CROP,WHEAT CROP,WHEAT CROP","160,190.3572952941818,236.1976122821059,227.0196631916869","4,3,2,1","NETTLE WEED,NETTLE WEED,NETTLE WEED,NETTLE WEED","20,20,20,20","20,20,20,20","10,10,10,10","20,20,20,20","0,0,0,0","20,20,20,20","20,20,20,20","20,20,20,20","10,10,10,10","20,20,20,20","0,0,0,0","20,20,20,20","0,0,0,0","2989,783,138,323","34.06121561408801,32.24985224051932,5.224649943113677,72.94047240782334","30.357295294181792,45.840316987924105,-9.17794909041898,60.3253500690918","0","0"
"493","86","text","0","175","1975590","0-0","","","","","","","","","","","","","","","","","","","","","","","","","","","","","","","","","","","","",""
"","","plant-game","0","176","1986705","0-0","","200","160","8","CORN CROP","Left","200","190","1","THISTLE WEED","experimental","75","1,2,3,4,5,6,7,8","160,158.856361648555,175.6854822031584,212.9461484138589,263.41832865540584,255.53679516281701,276.1598009835205,259.1415817582998","8,7,6,5,4,3,2,1","CORN CROP,CORN CROP,CORN CROP,CORN CROP,CORN CROP,CORN CROP,CORN CROP,CORN CROP","190,130,157.83521502626706,155.0190224155675,190.15137193324674,188.4131209783775,219.92296000410616,183.42068874001745","1,7,6,5,4,3,2,1","THISTLE WEED,NETTLE WEED,NETTLE WEED,NETTLE WEED,NETTLE WEED,NETTLE WEED,NETTLE WEED,NETTLE WEED","20,20,20,20,20,20,20,20","20,20,20,20,20,20,20,20","10,10,10,10,10,10,10,10","20,20,20,20,20,20,20,20","0,0,0,0,0,0,0,0","20,20,20,20,20,20,20,20","20,20,20,20,20,20,20,20","20,20,20,20,20,20,20,20","10,10,10,10,10,10,10,10","20,20,20,20,20,20,20,20","0,0,0,0,0,0,0,0","20,20,20,20,20,20,20,20","0,0,0,0,1,1,1,1","888,840,81,73,1074,387,623,1077","-1.1436383514449986,16.829120554603367,37.260666210700506,50.472180241546944,-7.881533492588817,20.623005820703465,-17.01821922522066,-8.518045897300468","1.1405420286217662,27.83521502626707,-2.8161926106995807,35.132349517679245,-1.7382509548692466,31.509839025728663,-36.50227126408871,20.784413345195503","0","0"
"1035","86","text","0","177","1987860","0-0","","","","","","","","","","","","","","","","","","","","","","","","","","","","","","","","","","","","",""
"","","plant-game","0","178","2001093","0-0","","200","180","2","WHEAT CROP","Left","200","160","4","NETTLE WEED","experimental","76","1,2,3,4","180,231.15468456330538,180,181.69262328663348","2,1,2,1","WHEAT CROP,WHEAT CROP,CORN CROP,CORN CROP","160,207.70667258661712,190.08569071047222,197.74142477081878","4,3,2,1","NETTLE WEED,NETTLE WEED,NETTLE WEED,NETTLE WEED","20,20,20,20","20,20,20,20","10,10,10,10","20,20,20,20","0,0,0,0","20,20,20,20","20,20,20,20","20,20,20,20","10,10,10,10","20,20,20,20","0,0,0,0","20,20,20,20","0,1,0,0","1523,1602,1335,439","51.15468456330537,-21.45825869183307,1.6926232866334914,22.870305266461482","47.70667258661713,-17.620981876144896,7.655734060346568,30.979068826384573","0","0"
"625","86","text","0","179","2001788","0-0","","","","","","","","","","","","","","","","","","","","","","","","","","","","","","","","","","","","",""
"","","plant-game","0","180","2010993","0-0","","200","160","2","WHEAT CROP","Right","200","190","1","NETTLE WEED","experimental","77","1,2","190,190","1,1","NETTLE WEED,THISTLE WEED","160,187.90075663251764","2,1","WHEAT CROP,WHEAT CROP","0,0","20,20","10,10","20,20","20,20","20,20","0,0","20,20","10,10","20,20","20,20","20,20","1,0","2331,749","17.748208639227464,-36.53695293748849","27.900756632517638,32.29683316759739","0","0"
"696","86","text","0","181","2011805","0-0","","","","","","","","","","","","","","","","","","","","","","","","","","","","","","","","","","","","",""
"","","plant-game","0","182","2020767","0-0","","200","190","1","CORN CROP","Left","200","190","2","NETTLE WEED","experimental","78","1,2","190,190","1,1","CORN CROP,WHEAT CROP","190,184.73594192694236","2,1","NETTLE WEED,NETTLE WEED","20,20","20,20","10,10","20,20","0,0","20,20","20,20","20,20","10,10","20,20","0,0","20,20","0,0","3071,1144","6.979691744036494,24.533719911655908","-5.264058073057647,9.272622787636744","0","0"
"625","86","text","0","183","2021542","0-0","","","","","","","","","","","","","","","","","","","","","","","","","","","","","","","","","","","","",""
"","","plant-game","0","184","2032110","0-0","","200","190","4","CORN CROP","Right","200","160","1","THISTLE WEED","experimental","79","1,2,3,4","160,170,168.97058320649376,187.4699800621474","1,3,2,1","THISTLE WEED,NETTLE WEED,NETTLE WEED,NETTLE WEED","190,179.6021988791474,222.40203908052374,236.5811920288632","4,3,2,1","CORN CROP,CORN CROP,CORN CROP,CORN CROP","0,0,0,0","20,20,20,20","10,10,10,10","20,20,20,20","20,20,20,20","20,20,20,20","0,0,0,0","20,20,20,20","10,10,10,10","20,20,20,20","20,20,20,20","20,20,20,20","1,1,1,0","1437,725,2300,939","39.72787247804571,-1.029416793506229,18.499396855653657,-48.5516700988099","-10.397801120852602,42.79984020137632,14.179152948339468,10.051049372259829","0","0"
"595","86","text","0","185","2032805","0-0","","","","","","","","","","","","","","","","","","","","","","","","","","","","","","","","","","","","",""
"","","plant-game","0","186","2041423","0-0","","200","160","2","WHEAT CROP","Right","200","190","2","NETTLE WEED","experimental","80","1,2","190,194.36362483491735","2,1","NETTLE WEED,NETTLE WEED","160,175.58358209510493","2,1","WHEAT CROP,WHEAT CROP","0,0","20,20","10,10","20,20","20,20","20,20","0,0","20,20","10,10","20,20","20,20","20,20","1,0","4589,1010","4.363624834917346,3.784711972853436","15.58358209510492,5.715937539042527","0","0"
"548","86","text","0","187","2042091","0-0","","","","","","","","","","","","","","","","","","","","","","","","","","","","","","","","","","","","",""
"","","plant-game","0","188","2055643","0-0","","200","160","2","CORN CROP","Left","200","180","8","THISTLE WEED","experimental","81","1,2,3,4,5,6,7,8","160,156.51132399726788,140,137.12170999635543,170.41799226241832,208.3000528266818,254.10578507191033,260.2490070546876","2,1,6,5,4,3,2,1","CORN CROP,CORN CROP,WHEAT CROP,WHEAT CROP,WHEAT CROP,WHEAT CROP,WHEAT CROP,WHEAT CROP","180,182.44705549692628,181.16226620390728,204.7958779222245,228.11963641904532,244.85270384538654,256.876857158883,284.21679652867414","8,7,6,5,4,3,2,1","THISTLE WEED,THISTLE WEED,THISTLE WEED,THISTLE WEED,THISTLE WEED,THISTLE WEED,THISTLE WEED,THISTLE WEED","20,20,20,20,20,20,20,20","20,20,20,20,20,20,20,20","10,10,10,10,10,10,10,10","20,20,20,20,20,20,20,20","0,0,0,0,0,0,0,0","20,20,20,20,20,20,20,20","20,20,20,20,20,20,20,20","20,20,20,20,20,20,20,20","10,10,10,10,10,10,10,10","20,20,20,20,20,20,20,20","0,0,0,0,0,0,0,0","20,20,20,20,20,20,20,20","1,1,0,0,0,0,0,1","6123,61,1477,382,69,45,71,346","-3.488676002732121,1.734044244433145,-2.8782900036445795,33.296282266062896,37.88206056426347,45.80573224522854,6.143221982777252,4.379596875208297","2.4470554969262803,-1.2847892930189926,23.63361171831722,23.323758496820833,16.73306742634121,12.024153313496463,27.339939369791104,3.842635987939313","0","0"
"684","86","text","0","189","2056407","0-0","","","","","","","","","","","","","","","","","","","","","","","","","","","","","","","","","","","","",""
"","","plant-game","0","190","2066523","0-0","","200","120","4","CORN CROP","Left","200","180","2","NETTLE WEED","experimental","82","1,2,3,4","120,116.48145192231375,85.70677577191555,113.16618842086245","4,3,2,1","CORN CROP,CORN CROP,CORN CROP,CORN CROP","180,200.69665749272522,180,178.1066970699031","2,1,2,1","NETTLE WEED,NETTLE WEED,THISTLE WEED,THISTLE WEED","20,20,20,20","20,20,20,20","10,10,10,10","20,20,20,20","0,0,0,0","20,20,20,20","20,20,20,20","20,20,20,20","10,10,10,10","20,20,20,20","0,0,0,0","20,20,20,20","1,1,0,0","2622,127,1440,84","-3.5185480776862494,-30.774676150398207,27.459412648946902,20.063830453269183","20.69665749272523,-18.619544537821085,-1.8933029300968869,18.824695767599042","0","0"
"498","86","text","0","191","2067111","0-0","","","","","","","","","","","","","","","","","","","","","","","","","","","","","","","","","","","","",""
"","","plant-game","0","192","2074287","0-0","","200","180","1","CORN CROP","Left","200","160","2","THISTLE WEED","experimental","83","1,2","180,190","1,1","CORN CROP,WHEAT CROP","160,169.71973164004794","2,1","THISTLE WEED,THISTLE WEED","20,20","20,20","10,10","20,20","0,0","20,20","20,20","20,20","10,10","20,20","0,0","20,20","1,0","1063,1770","-8.716902538755146,57.38307913277032","9.719731640047927,-15.755311636125327","0","0"
"587","86","text","0","193","2074944","0-0","","","","","","","","","","","","","","","","","","","","","","","","","","","","","","","","","","","","",""
"","","plant-game","0","194","2086650","0-0","","200","180","8","WHEAT CROP","Left","200","190","4","THISTLE WEED","experimental","84","1,2,3,4,5,6,7,8","180,207.7735104898519,197.68192666662227,189.27045681057626,184.81719984168745,211.10025997329117,228.05380763058815,257.8920882254556","8,7,6,5,4,3,2,1","WHEAT CROP,WHEAT CROP,WHEAT CROP,WHEAT CROP,WHEAT CROP,WHEAT CROP,WHEAT CROP,WHEAT CROP","190,213.95618794291522,220.43234993975003,244.3482111999967,160,186.90540096733918,207.12529101796449,247.65454637656654","4,3,2,1,4,3,2,1","THISTLE WEED,THISTLE WEED,THISTLE WEED,THISTLE WEED,NETTLE WEED,NETTLE WEED,NETTLE WEED,NETTLE WEED","20,20,20,20,20,20,20,20","20,20,20,20,20,20,20,20","10,10,10,10,10,10,10,10","20,20,20,20,20,20,20,20","0,0,0,0,0,0,0,0","20,20,20,20,20,20,20,20","20,20,20,20,20,20,20,20","20,20,20,20,20,20,20,20","10,10,10,10,10,10,10,10","20,20,20,20,20,20,20,20","0,0,0,0,0,0,0,0","20,20,20,20,20,20,20,20","0,1,1,0,0,0,0,0","3280,770,246,561,809,254,260,249","27.7735104898519,-10.09158382322963,-8.411469856046024,-4.453256968888795,26.283060131603712,16.95354765729698,29.838280594867456,63.71134283999814","23.95618794291522,6.476161996834804,23.915861260246697,22.281574439392134,26.90540096733919,20.21989005062532,40.52925535860206,3.345812981031262","0","0"
"670","86","text","0","195","2087380","0-0","","","","","","","","","","","","","","","","","","","","","","","","","","","","","","","","","","","","",""
