"rt","key_press","trial_type","trial_index","trial_index_global","time_elapsed","internal_chunk_id","responses","experimental_goal_height","experimental_start_height","experimental_weeks_total","experimental_crop_type","experimental_crop_side","fixed_goal_height","fixed_start_height","fixed_weeks_total","fixed_crop_type","trial_kind","trial_number","stage","left_current_height","left_weeks_remaining","left_crop_type","right_current_height","right_weeks_remaining","right_crop_type","mean_left_growth_given_left","sd_left_growth_given_left","mean_left_growth_given_middle","sd_left_growth_given_middle","mean_left_growth_given_right","sd_left_growth_given_right","mean_right_growth_given_left","sd_right_growth_given_left","mean_right_growth_given_middle","sd_right_growth_given_middle","mean_right_growth_given_right","sd_right_growth_given_right","response","response_time","left_growth","right_growth","other_key_pressed","mouse_clicked"
"10820464","77","text","0","0","10820575","0-0","","","","","","","","","","","","","","","","","","","","","","","","","","","","","","","","","","","","",""
"6685","","survey-text","0","1","10828289","0-0","{""Q0"":""18""}","","","","","","","","","","","","","","","","","","","","","","","","","","","","","","","","","","","",""
"6320","86","text","0","2","6491","0-0","","","","","","","","","","","","","","","","","","","","","","","","","","","","","","","","","","","","",""
"","","plant-game","0","3","76961","0-0","","200","120","8","CORN CROP","Right","200","120","8","NETTLE WEED","practice","1","1,2,3,4,5,6,7,8","120,130.7589992101548,134.15170554002592,153.37934803634909,203.90110541814863,182.89913184929466,198.98513597327724,167.60175059290458","8,7,6,5,4,3,2,1","NETTLE WEED,NETTLE WEED,NETTLE WEED,NETTLE WEED,NETTLE WEED,NETTLE WEED,NETTLE WEED,NETTLE WEED","120,149.7667329433797,133.98391970791286,181.43605975210878,179.6989421585889,181.93405334422033,177.32480708160097,174.78703687155257","8,7,6,5,4,3,2,1","CORN CROP,CORN CROP,CORN CROP,CORN CROP,CORN CROP,CORN CROP,CORN CROP,CORN CROP","0,0,0,0,0,0,0,0","20,20,20,20,20,20,20,20","10,10,10,10,10,10,10,10","20,20,20,20,20,20,20,20","20,20,20,20,20,20,20,20","20,20,20,20,20,20,20,20","0,0,0,0,0,0,0,0","20,20,20,20,20,20,20,20","10,10,10,10,10,10,10,10","20,20,20,20,20,20,20,20","20,20,20,20,20,20,20,20","20,20,20,20,20,20,20,20","1,1,1,0,0,1,0,0","13233,3033,4050,2585,10139,4333,2719,2293","10.758999210154785,3.3927063298711175,19.227642496323178,50.52175738179955,-21.001973568853977,16.08600412398258,-31.38338538037265,-1.4977569573406666","29.7667329433797,-15.782813235466854,47.452140044195914,-1.7371175935198788,2.2351111856314474,-4.609246262619369,-2.537770210048389,-3.9888535804268725","0","0"
"898","86","text","0","4","77984","0-0","","","","","","","","","","","","","","","","","","","","","","","","","","","","","","","","","","","","",""
"","","plant-game","0","5","102530","0-0","","200","160","4","WHEAT CROP","Left","200","160","4","THISTLE WEED","practice","2","1,2,3,4","160,167.6396098747603,189.56814411250076,235.1402929746845","4,3,2,1","WHEAT CROP,WHEAT CROP,WHEAT CROP,WHEAT CROP","160,204.2663644738273,197.5291481701639,210.66984814720675","4,3,2,1","THISTLE WEED,THISTLE WEED,THISTLE WEED,THISTLE WEED","20,20,20,20","20,20,20,20","10,10,10,10","20,20,20,20","0,0,0,0","20,20,20,20","20,20,20,20","20,20,20,20","10,10,10,10","20,20,20,20","0,0,0,0","20,20,20,20","0,0,0,1","4064,2638,967,1614","7.639609874760316,21.928534237740465,45.572148862183745,9.628085866628282","44.266364473827295,-6.737216303663427,13.140699977042866,20.22803474237609","0","0"
"736","86","text","0","6","103386","0-0","","","","","","","","","","","","","","","","","","","","","","","","","","","","","","","","","","","","",""
"","","plant-game","0","7","127625","0-0","","200","180","2","WHEAT CROP","Right","200","180","2","NETTLE WEED","practice","3","1,2","180,201.2604049256083","2,1","NETTLE WEED,NETTLE WEED","180,186.12458188879611","2,1","WHEAT CROP,WHEAT CROP","0,0","20,20","10,10","20,20","20,20","20,20","0,0","20,20","10,10","20,20","20,20","20,20","0,0","7777,5105","21.2604049256083,6.212291391413336","6.124581888796101,4.8780780599649525","0","0"
"564","86","text","0","8","128319","0-0","","","","","","","","","","","","","","","","","","","","","","","","","","","","","","","","","","","","",""
"","","plant-game","0","9","147433","0-0","","200","190","1","WHEAT CROP","Right","200","190","1","NETTLE WEED","practice","4","1","190","1","NETTLE WEED","190","1","WHEAT CROP","0","20","10","20","20","20","0","20","10","20","20","20","1","2398","-2.1101885795336806","23.468345189732133","0","0"
"642","86","text","0","10","148245","0-0","","","","","","","","","","","","","","","","","","","","","","","","","","","","","","","","","","","","",""
"","","plant-game","0","11","172255","0-0","","200","120","8","CORN CROP","Right","200","160","8","NETTLE WEED","practice","5","1,2,3,4,5,6,7,8","160,178.9304023732861,189.98789410230685,212.3169730625098,232.43290946676512,203.7245372094425,184.26766195977652,169.1047343007183","8,7,6,5,4,3,2,1","NETTLE WEED,NETTLE WEED,NETTLE WEED,NETTLE WEED,NETTLE WEED,NETTLE WEED,NETTLE WEED,NETTLE WEED","120,128.073515128697,164.15970007275473,190.98055582426485,251.6823074849886,275.09689982392456,255.44810155546043,243.26510040816964","8,7,6,5,4,3,2,1","CORN CROP,CORN CROP,CORN CROP,CORN CROP,CORN CROP,CORN CROP,CORN CROP,CORN CROP","0,0,0,0,0,0,0,0","20,20,20,20,20,20,20,20","10,10,10,10,10,10,10,10","20,20,20,20,20,20,20,20","20,20,20,20,20,20,20,20","20,20,20,20,20,20,20,20","0,0,0,0,0,0,0,0","20,20,20,20,20,20,20,20","10,10,10,10,10,10,10,10","20,20,20,20,20,20,20,20","20,20,20,20,20,20,20,20","20,20,20,20,20,20,20,20","1,1,1,1,0,0,0,0","2684,760,868,1091,1238,404,640,1106","18.930402373286125,11.05749172902075,22.32907896020293,20.115936404255333,-28.708372257322623,-19.45687524966598,-15.162927659058226,-7.573927511346743","8.073515128697025,36.086184944057706,26.820855751510116,60.70175166072374,23.414592338935964,-19.64879826846414,-12.183001147290792,5.5918769117085","0","0"
"550","86","text","0","12","172945","0-0","","","","","","","","","","","","","","","","","","","","","","","","","","","","","","","","","","","","",""
"","","plant-game","0","13","196689","0-0","","200","180","4","CORN CROP","Right","200","160","4","THISTLE WEED","practice","6","1,2,3,4","160,200.2427134913071,196.42542484267275,218.59193547897058","4,3,2,1","THISTLE WEED,THISTLE WEED,THISTLE WEED,THISTLE WEED","180,221.75749452180122,215.23764092741547,181.00048528348904","4,3,2,1","CORN CROP,CORN CROP,CORN CROP,CORN CROP","0,0,0,0","20,20,20,20","10,10,10,10","20,20,20,20","20,20,20,20","20,20,20,20","0,0,0,0","20,20,20,20","10,10,10,10","20,20,20,20","20,20,20,20","20,20,20,20","1,1,1,0","2805,1732,590,2536","40.24271349130707,-3.8172886486343387,22.166510636297815,23.083329627704266","41.757494521801206,-6.519853594385761,-34.23715564392643,-19.360699040338854","0","0"
"541","86","text","0","14","197330","0-0","","","","","","","","","","","","","","","","","","","","","","","","","","","","","","","","","","","","",""
"","","plant-game","0","15","219531","0-0","","200","180","2","WHEAT CROP","Left","200","190","2","NETTLE WEED","practice","7","1,2","180,215.19256048917293","2,1","WHEAT CROP,WHEAT CROP","190,204.7036505734071","2,1","NETTLE WEED,NETTLE WEED","20,20","20,20","10,10","20,20","0,0","20,20","20,20","20,20","10,10","20,20","0,0","20,20","0,1","3306,4556","35.19256048917293,4.848964374029126","14.703650573407083,19.555549451429453","0","0"
"463","86","text","0","16","220134","0-0","","","","","","","","","","","","","","","","","","","","","","","","","","","","","","","","","","","","",""
"","","plant-game","0","17","287556","0-0","","200","120","4","CORN CROP","Left","200","120","8","THISTLE WEED","practice","8","1,2,3,4,5,6,7,8","120,134.23365624395586,151.95809717479665,170.1157821548159,160,170.0827725275652,172.1043069243183,187.64964454838284","4,3,2,1,4,3,2,1","CORN CROP,CORN CROP,CORN CROP,CORN CROP,WHEAT CROP,WHEAT CROP,WHEAT CROP,WHEAT CROP","120,159.4281981805117,178.62678683218516,191.2085667587629,218.55428558138013,232.02844189165015,233.19894192060087,239.3667239421078","8,7,6,5,4,3,2,1","THISTLE WEED,THISTLE WEED,THISTLE WEED,THISTLE WEED,THISTLE WEED,THISTLE WEED,THISTLE WEED,THISTLE WEED","20,20,20,20,20,20,20,20","20,20,20,20,20,20,20,20","10,10,10,10,10,10,10,10","20,20,20,20,20,20,20,20","0,0,0,0,0,0,0,0","20,20,20,20,20,20,20,20","20,20,20,20,20,20,20,20","20,20,20,20,20,20,20,20","10,10,10,10,10,10,10,10","20,20,20,20,20,20,20,20","0,0,0,0,0,0,0,0","20,20,20,20,20,20,20,20","0,0,0,0,1,1,1,1","10274,1518,2144,4011,3654,651,691,1881","14.23365624395585,17.72444093084077,18.157684980019237,34.98656827946455,10.082772527565185,2.0215343967531108,15.545337624064533,71.20930610920256","39.42819818051172,19.19858865167344,12.581779926577763,27.345718822617208,13.474156310270029,1.1705000289507215,6.167782021506918,-24.155003276979134","0","0"
"566","86","text","0","18","288286","0-0","","","","","","","","","","","","","","","","","","","","","","","","","","","","","","","","","","","","",""
"","","plant-game","0","19","335516","0-0","","200","160","4","CORN CROP","Right","200","160","2","THISTLE WEED","practice","9","1,2,3,4","160,182.87560226204343,180,167.22537986692242","2,1,2,1","THISTLE WEED,THISTLE WEED,NETTLE WEED,NETTLE WEED","160,179.0544933294737,203.16207321458455,185.3172741563132","4,3,2,1","CORN CROP,CORN CROP,CORN CROP,CORN CROP","0,0,0,0","20,20,20,20","10,10,10,10","20,20,20,20","20,20,20,20","20,20,20,20","0,0,0,0","20,20,20,20","10,10,10,10","20,20,20,20","20,20,20,20","20,20,20,20","0,0,0,1","10783,5746,5518,4266","22.875602262043436,-1.2426236488433415,-12.774620133077567,13.231003122282054","19.054493329473708,24.107579885110862,-17.84479905827134,-3.0844328935151424","0","0"
"971","86","text","0","20","336643","0-0","","","","","","","","","","","","","","","","","","","","","","","","","","","","","","","","","","","","",""
"","","plant-game","0","21","367146","0-0","","200","180","2","WHEAT CROP","Right","200","180","1","THISTLE WEED","practice","10","1,2","180,190","1,1","THISTLE WEED,NETTLE WEED","180,196.64421530912853","2,1","WHEAT CROP,WHEAT CROP","0,0","20,20","10,10","20,20","20,20","20,20","0,0","20,20","10,10","20,20","20,20","20,20","0,0","3951,5855","4.341975036043803,-2.9890105776097347","16.644215309128526,-10.472181301702834","0","0"
"533","86","text","0","22","367850","0-0","","","","","","","","","","","","","","","","","","","","","","","","","","","","","","","","","","","","",""
"","","plant-game","0","23","409356","0-0","","200","120","8","CORN CROP","Right","200","160","4","NETTLE WEED","practice","11","1,2,3,4,5,6,7,8","160,193.5256578410146,205.28790007946844,206.8748621949709,160,189.65931544138624,217.0819043000906,221.19120457606365","4,3,2,1,4,3,2,1","NETTLE WEED,NETTLE WEED,NETTLE WEED,NETTLE WEED,THISTLE WEED,THISTLE WEED,THISTLE WEED,THISTLE WEED","120,158.5422923344701,196.4636792083709,236.93436918111908,209.99952546118303,193.51557586653533,215.71106245600888,225.95858546904876","8,7,6,5,4,3,2,1","CORN CROP,CORN CROP,CORN CROP,CORN CROP,CORN CROP,CORN CROP,CORN CROP,CORN CROP","0,0,0,0,0,0,0,0","20,20,20,20,20,20,20,20","10,10,10,10,10,10,10,10","20,20,20,20,20,20,20,20","20,20,20,20,20,20,20,20","20,20,20,20,20,20,20,20","0,0,0,0,0,0,0,0","20,20,20,20,20,20,20,20","10,10,10,10,10,10,10,10","20,20,20,20,20,20,20,20","20,20,20,20,20,20,20,20","20,20,20,20,20,20,20,20","1,1,1,0,1,1,0,0","5354,1422,2173,1960,6208,1369,3121,1221","33.52565784101459,11.762242238453828,1.586962115502434,-20.66189834746543,29.659315441386237,27.422588858704362,4.109300275973061,13.41964389974085","38.54229233447009,37.92138687390081,40.47068997274817,-26.934843719936055,-16.48394959464769,22.195486589473557,10.247523013039888,-5.155965538888748","0","0"
"548","86","text","0","24","410024","0-0","","","","","","","","","","","","","","","","","","","","","","","","","","","","","","","","","","","","",""
"","","plant-game","0","25","445135","0-0","","200","180","2","CORN CROP","Left","200","160","4","NETTLE WEED","practice","12","1,2,3,4","180,183.1124890082305,180,193.35689559207756","2,1,2,1","CORN CROP,CORN CROP,WHEAT CROP,WHEAT CROP","160,188.32768491474394,183.26514105223822,166.5245830591147","4,3,2,1","NETTLE WEED,NETTLE WEED,NETTLE WEED,NETTLE WEED","20,20,20,20","20,20,20,20","10,10,10,10","20,20,20,20","0,0,0,0","20,20,20,20","20,20,20,20","20,20,20,20","10,10,10,10","20,20,20,20","0,0,0,0","20,20,20,20","0,0,0,0","11248,832,4540,566","3.112489008230515,25.417373345499627,13.356895592077555,12.393623961832505","28.327684914743948,-5.062543862505731,-16.740557993123538,11.62813356511421","0","0"
"3364","86","text","0","26","448619","0-0","","","","","","","","","","","","","","","","","","","","","","","","","","","","","","","","","","","","",""
"13142","86","text","0","27","462851","0-0","","","","","","","","","","","","","","","","","","","","","","","","","","","","","","","","","","","","",""
"","","plant-game","0","28","486297","0-0","","200","160","2","CORN CROP","Left","200","190","2","THISTLE WEED","experimental","1","1,2","160,147.6021624721271","2,1","CORN CROP,CORN CROP","190,190.02917155776967","2,1","THISTLE WEED,THISTLE WEED","20,20","20,20","10,10","20,20","0,0","20,20","20,20","20,20","10,10","20,20","0,0","20,20","0,0","16490,1741","-12.397837527872902,9.020439770737948","0.029171557769661405,17.64324197520293","0","0"
"882","86","text","0","29","487339","0-0","","","","","","","","","","","","","","","","","","","","","","","","","","","","","","","","","","","","",""
"","","plant-game","0","30","510787","0-0","","200","120","4","CORN CROP","Right","200","120","2","THISTLE WEED","experimental","2","1,2,3,4","120,129.51943082009228,180,174.85311572927444","2,1,2,1","THISTLE WEED,THISTLE WEED,NETTLE WEED,NETTLE WEED","120,172.45321908170763,207.99540424783137,193.2768216917963","4,3,2,1","CORN CROP,CORN CROP,CORN CROP,CORN CROP","0,0,0,0","20,20,20,20","10,10,10,10","20,20,20,20","20,20,20,20","20,20,20,20","0,0,0,0","20,20,20,20","10,10,10,10","20,20,20,20","20,20,20,20","20,20,20,20","1,1,0,1","5363,828,7366,1289","9.519430820092271,46.435605084902974,-5.146884270725556,21.115797537535126","52.453219081707616,35.542185166123744,-14.718582556035084,40.327536851012056","0","0"
"542","86","text","0","31","511469","0-0","","","","","","","","","","","","","","","","","","","","","","","","","","","","","","","","","","","","",""
"","","plant-game","0","32","539085","0-0","","200","190","8","WHEAT CROP","Right","200","120","1","THISTLE WEED","experimental","3","1,2,3,4,5,6,7,8","120,130,140.22666263459095,184.06309867187224,213.72203204922593,226.38616505108152,199.88180699831847,208.88213036203496","1,7,6,5,4,3,2,1","THISTLE WEED,NETTLE WEED,NETTLE WEED,NETTLE WEED,NETTLE WEED,NETTLE WEED,NETTLE WEED,NETTLE WEED","190,246.25240606806827,258.196596222131,283.5553086645725,299.5796534555056,323.7459700024317,312.0278942306111,283.840004472663","8,7,6,5,4,3,2,1","WHEAT CROP,WHEAT CROP,WHEAT CROP,WHEAT CROP,WHEAT CROP,WHEAT CROP,WHEAT CROP,WHEAT CROP","0,0,0,0,0,0,0,0","20,20,20,20,20,20,20,20","10,10,10,10,10,10,10,10","20,20,20,20,20,20,20,20","20,20,20,20,20,20,20,20","20,20,20,20,20,20,20,20","0,0,0,0,0,0,0,0","20,20,20,20,20,20,20,20","10,10,10,10,10,10,10,10","20,20,20,20,20,20,20,20","20,20,20,20,20,20,20,20","20,20,20,20,20,20,20,20","1,0,1,0,0,0,0,0","3795,5351,2164,1607,1396,2177,1938,1071","9.838263885576012,10.226662634590953,43.83643603728128,29.65893337735369,12.664133001855593,-26.504358052763045,9.000323363716484,-36.14340332577203","56.252406068068275,11.944190154062744,25.358712442441508,16.024344790933053,24.16631654692612,-11.718075771820649,-28.18788975794806,15.445442767640127","0","0"
"732","86","text","0","33","540017","0-0","","","","","","","","","","","","","","","","","","","","","","","","","","","","","","","","","","","","",""
"","","plant-game","0","34","558530","0-0","","200","120","8","WHEAT CROP","Left","200","160","8","NETTLE WEED","experimental","4","1,2,3,4,5,6,7,8","120,132.18554070684115,128.65121164352877,162.0978266412905,190.3283278103191,201.84264519901166,202.70797579244686,226.01370946714803","8,7,6,5,4,3,2,1","WHEAT CROP,WHEAT CROP,WHEAT CROP,WHEAT CROP,WHEAT CROP,WHEAT CROP,WHEAT CROP,WHEAT CROP","160,174.40160009406728,199.85635992699503,234.34421048009582,235.20071317942023,273.0392010282701,287.4677506259232,287.47125787777014","8,7,6,5,4,3,2,1","NETTLE WEED,NETTLE WEED,NETTLE WEED,NETTLE WEED,NETTLE WEED,NETTLE WEED,NETTLE WEED,NETTLE WEED","20,20,20,20,20,20,20,20","20,20,20,20,20,20,20,20","10,10,10,10,10,10,10,10","20,20,20,20,20,20,20,20","0,0,0,0,0,0,0,0","20,20,20,20,20,20,20,20","20,20,20,20,20,20,20,20","20,20,20,20,20,20,20,20","10,10,10,10,10,10,10,10","20,20,20,20,20,20,20,20","0,0,0,0,0,0,0,0","20,20,20,20,20,20,20,20","0,0,0,0,1,1,1,1","6706,71,44,48,4208,58,666,303","12.185540706841142,-3.534329063312377,33.44661499776174,28.230501169028592,11.51431738869255,0.8653305934352131,23.305733674701173,-10.705112860953918","14.401600094067284,25.454759832927756,34.487850553100806,0.856502699324416,37.838487848849894,14.428549597653095,0.0035072518469563317,-12.17614980375888","0","0"
"444","86","text","0","35","559134","0-0","","","","","","","","","","","","","","","","","","","","","","","","","","","","","","","","","","","","",""
"","","plant-game","0","36","571526","0-0","","200","190","8","CORN CROP","Left","200","160","8","NETTLE WEED","experimental","5","1,2,3,4,5,6,7,8","190,182.83270289088557,217.6658096375585,210.0378218978017,204.68505110793288,217.59379101747663,230.1119277881226,230.02770846446222","8,7,6,5,4,3,2,1","CORN CROP,CORN CROP,CORN CROP,CORN CROP,CORN CROP,CORN CROP,CORN CROP,CORN CROP","160,199.4042103669617,187.62380410582108,189.10874571352096,197.81600335265225,212.76469535550734,222.23642771876703,208.18501873440798","8,7,6,5,4,3,2,1","NETTLE WEED,NETTLE WEED,NETTLE WEED,NETTLE WEED,NETTLE WEED,NETTLE WEED,NETTLE WEED,NETTLE WEED","20,20,20,20,20,20,20,20","20,20,20,20,20,20,20,20","10,10,10,10,10,10,10,10","20,20,20,20,20,20,20,20","0,0,0,0,0,0,0,0","20,20,20,20,20,20,20,20","20,20,20,20,20,20,20,20","20,20,20,20,20,20,20,20","10,10,10,10,10,10,10,10","20,20,20,20,20,20,20,20","0,0,0,0,0,0,0,0","20,20,20,20,20,20,20,20","0,0,1,1,0,1,1,1","2167,678,1771,83,563,535,114,526","-7.167297109114429,34.83310674667294,-7.627987739756813,-5.352770789868835,12.908739909543769,12.518136770645993,-0.08421932366039746,9.130732502801996","39.4042103669617,-11.78040626114064,1.4849416076998763,8.707257639131297,14.94869200285509,9.471732363259688,-14.051408984359064,16.680542586163792","0","0"
"519","86","text","0","37","572175","0-0","","","","","","","","","","","","","","","","","","","","","","","","","","","","","","","","","","","","",""
"","","plant-game","0","38","589918","0-0","","200","180","4","CORN CROP","Right","200","190","1","NETTLE WEED","experimental","6","1,2,3,4","190,170,199.761436150695,204.110980431071","1,3,2,1","NETTLE WEED,THISTLE WEED,THISTLE WEED,THISTLE WEED","180,186.4088732567767,190.3948758941004,189.4795255444356","4,3,2,1","CORN CROP,CORN CROP,CORN CROP,CORN CROP","0,0,0,0","20,20,20,20","10,10,10,10","20,20,20,20","20,20,20,20","20,20,20,20","0,0,0,0","20,20,20,20","10,10,10,10","20,20,20,20","20,20,20,20","20,20,20,20","0,1,1,1","3853,6013,83,76","6.569586050892191,29.76143615069501,4.349544280375994,9.74166803831308","6.408873256776694,3.986002637323697,-0.9153503496648021,21.007966092889813","0","0"
"498","86","text","0","39","590544","0-0","","","","","","","","","","","","","","","","","","","","","","","","","","","","","","","","","","","","",""
"","","plant-game","0","40","614128","0-0","","200","160","8","CORN CROP","Right","200","120","2","NETTLE WEED","experimental","7","1,2,3,4,5,6,7,8","120,141.50431548519438,140,154.75789519432163,160.45450131980039,186.87351908287854,180.00610733098264,179.09060356388903","2,1,6,5,4,3,2,1","NETTLE WEED,NETTLE WEED,THISTLE WEED,THISTLE WEED,THISTLE WEED,THISTLE WEED,THISTLE WEED,THISTLE WEED","160,136.3648998606638,146.11731071608315,177.8914531539554,201.8869487505333,239.18225702593708,239.3257823544221,248.03353068695014","8,7,6,5,4,3,2,1","CORN CROP,CORN CROP,CORN CROP,CORN CROP,CORN CROP,CORN CROP,CORN CROP,CORN CROP","0,0,0,0,0,0,0,0","20,20,20,20,20,20,20,20","10,10,10,10,10,10,10,10","20,20,20,20,20,20,20,20","20,20,20,20,20,20,20,20","20,20,20,20,20,20,20,20","0,0,0,0,0,0,0,0","20,20,20,20,20,20,20,20","10,10,10,10,10,10,10,10","20,20,20,20,20,20,20,20","20,20,20,20,20,20,20,20","20,20,20,20,20,20,20,20","1,1,1,1,1,0,0,0","3899,145,4864,294,401,865,417,2416","21.504315485194383,28.49418864941218,14.757895194321632,5.696606125478761,26.41901776307816,-6.867411751895895,-0.9155037670936027,19.187434392495103","-23.63510013933619,9.752410855419356,31.774142437872264,23.995495596577868,37.29530827540378,0.1435253284850391,8.707748332528048,30.31090708104529","0","0"
"642","86","text","0","41","614880","0-0","","","","","","","","","","","","","","","","","","","","","","","","","","","","","","","","","","","","",""
"","","plant-game","0","42","633484","0-0","","200","160","4","WHEAT CROP","Left","200","180","1","NETTLE WEED","experimental","8","1,2,3,4","160,147.11026464217656,161.64890668908632,182.83435588599565","4,3,2,1","WHEAT CROP,WHEAT CROP,WHEAT CROP,WHEAT CROP","180,170,178.54670221290368,197.47690652362715","1,3,2,1","NETTLE WEED,THISTLE WEED,THISTLE WEED,THISTLE WEED","20,20,20,20","20,20,20,20","10,10,10,10","20,20,20,20","0,0,0,0","20,20,20,20","20,20,20,20","20,20,20,20","10,10,10,10","20,20,20,20","0,0,0,0","20,20,20,20","1,0,0,1","5249,3785,823,1142","-12.88973535782345,14.53864204690975,21.185449196909317,-26.137940595014765","8.00981733756889,8.546702212903678,18.93020431072348,-9.95234911160627","0","0"
"645","86","text","0","43","634285","0-0","","","","","","","","","","","","","","","","","","","","","","","","","","","","","","","","","","","","",""
"","","plant-game","0","44","650265","0-0","","200","190","2","WHEAT CROP","Right","200","190","1","THISTLE WEED","experimental","9","1,2","190,190","1,1","THISTLE WEED,NETTLE WEED","190,191.50061688979275","2,1","WHEAT CROP,WHEAT CROP","0,0","20,20","10,10","20,20","20,20","20,20","0,0","20,20","10,10","20,20","20,20","20,20","0,1","3442,3823","30.044271048360265,-1.4959812894792393","1.5006168897927479,46.898564752559565","0","0"
"553","86","text","0","45","650930","0-0","","","","","","","","","","","","","","","","","","","","","","","","","","","","","","","","","","","","",""
"","","plant-game","0","46","663439","0-0","","200","120","8","CORN CROP","Left","200","120","8","THISTLE WEED","experimental","10","1,2,3,4,5,6,7,8","120,152.52871055402136,197.44208263555697,215.3523106651578,291.2154439159659,318.6763264308174,331.73732285797684,400.48483156213507","8,7,6,5,4,3,2,1","CORN CROP,CORN CROP,CORN CROP,CORN CROP,CORN CROP,CORN CROP,CORN CROP,CORN CROP","120,180.62420117315958,177.84248928950706,241.8552549671763,216.36805292956868,228.8845098325629,287.8957480251702,289.0482528553197","8,7,6,5,4,3,2,1","THISTLE WEED,THISTLE WEED,THISTLE WEED,THISTLE WEED,THISTLE WEED,THISTLE WEED,THISTLE WEED,THISTLE WEED","20,20,20,20,20,20,20,20","20,20,20,20,20,20,20,20","10,10,10,10,10,10,10,10","20,20,20,20,20,20,20,20","0,0,0,0,0,0,0,0","20,20,20,20,20,20,20,20","20,20,20,20,20,20,20,20","20,20,20,20,20,20,20,20","10,10,10,10,10,10,10,10","20,20,20,20,20,20,20,20","0,0,0,0,0,0,0,0","20,20,20,20,20,20,20,20","0,0,0,0,1,1,0,0","3660,67,54,67,903,280,336,209","32.52871055402135,44.91337208153561,17.910228029600816,75.86313325080809,27.460882514851534,13.06099642715943,68.74750870415825,15.872183725250686","60.62420117315958,-2.7817118836525125,64.01276567766925,-25.487202037607624,12.51645690299423,59.011238192607266,1.1525048301494678,34.5838147540026","0","0"
"588","86","text","0","47","664197","0-0","","","","","","","","","","","","","","","","","","","","","","","","","","","","","","","","","","","","",""
"","","plant-game","0","48","676768","0-0","","200","120","4","CORN CROP","Right","200","120","4","NETTLE WEED","experimental","11","1,2,3,4","120,164.28950175139687,186.6892315674969,224.28369677960404","4,3,2,1","NETTLE WEED,NETTLE WEED,NETTLE WEED,NETTLE WEED","120,147.13121619714082,166.70172418255606,212.35783102165863","4,3,2,1","CORN CROP,CORN CROP,CORN CROP,CORN CROP","0,0,0,0","20,20,20,20","10,10,10,10","20,20,20,20","20,20,20,20","20,20,20,20","0,0,0,0","20,20,20,20","10,10,10,10","20,20,20,20","20,20,20,20","20,20,20,20","1,1,1,1","3306,407,1528,1846","44.289501751396855,22.39972981610002,37.594465212107146,51.358343436508065","27.13121619714081,19.570507985415244,45.65610683910256,-6.638733472458426","0","0"
"759","86","text","0","49","677637","0-0","","","","","","","","","","","","","","","","","","","","","","","","","","","","","","","","","","","","",""
"","","plant-game","0","50","695880","0-0","","200","180","4","CORN CROP","Right","200","180","1","NETTLE WEED","experimental","12","1,2,3,4","180,170,208.3005981823632,241.91507324321913","1,3,2,1","NETTLE WEED,THISTLE WEED,THISTLE WEED,THISTLE WEED","180,194.6347406753314,260.1810915762274,290.5810537688786","4,3,2,1","CORN CROP,CORN CROP,CORN CROP,CORN CROP","0,0,0,0","20,20,20,20","10,10,10,10","20,20,20,20","20,20,20,20","20,20,20,20","0,0,0,0","20,20,20,20","10,10,10,10","20,20,20,20","20,20,20,20","20,20,20,20","1,1,1,0","5015,2659,2494,651","33.64351019897011,38.300598182363196,33.61447506085595,-3.7976024012893763","14.634740675331383,65.54635090089602,30.39996219265117,8.80200494526145","0","0"
"622","86","text","0","51","696702","0-0","","","","","","","","","","","","","","","","","","","","","","","","","","","","","","","","","","","","",""
"","","plant-game","0","52","722528","0-0","","200","160","4","CORN CROP","Left","200","190","8","THISTLE WEED","experimental","13","1,2,3,4,5,6,7,8","160,157.23305679993138,147.6622196159652,138.2384146250888,160,171.0369235676005,135.86211495055852,131.93807819128213","4,3,2,1,4,3,2,1","CORN CROP,CORN CROP,CORN CROP,CORN CROP,WHEAT CROP,WHEAT CROP,WHEAT CROP,WHEAT CROP","190,165.2458352289008,154.65311146430494,163.01722440046427,181.7023730233631,204.78427240534492,177.26544330206968,206.66413328193457","8,7,6,5,4,3,2,1","THISTLE WEED,THISTLE WEED,THISTLE WEED,THISTLE WEED,THISTLE WEED,THISTLE WEED,THISTLE WEED,THISTLE WEED","20,20,20,20,20,20,20,20","20,20,20,20,20,20,20,20","10,10,10,10,10,10,10,10","20,20,20,20,20,20,20,20","0,0,0,0,0,0,0,0","20,20,20,20,20,20,20,20","20,20,20,20,20,20,20,20","20,20,20,20,20,20,20,20","10,10,10,10,10,10,10,10","20,20,20,20,20,20,20,20","0,0,0,0,0,0,0,0","20,20,20,20,20,20,20,20","1,1,1,1,0,1,0,1","4384,960,790,4272,3617,1368,571,687","-2.7669432000686167,-9.570837183966187,-9.423804990876398,-5.72964830180946,11.036923567600503,-35.17480861704196,-3.9240367592763903,-20.92805554087505","-24.754164771099205,-10.592723764595862,8.364112936159323,18.68514862289881,23.081899381981835,-27.518829103275234,29.39868997986488,40.18125499698753","0","0"
"554","86","text","0","53","723212","0-0","","","","","","","","","","","","","","","","","","","","","","","","","","","","","","","","","","","","",""
"","","plant-game","0","54","737827","0-0","","200","190","2","WHEAT CROP","Left","200","160","4","THISTLE WEED","experimental","14","1,2,3,4","190,207.2954572706982,180,138.9498733122093","2,1,2,1","WHEAT CROP,WHEAT CROP,CORN CROP,CORN CROP","160,164.86915125346636,198.80099037955108,216.1925576726359","4,3,2,1","THISTLE WEED,THISTLE WEED,THISTLE WEED,THISTLE WEED","20,20,20,20","20,20,20,20","10,10,10,10","20,20,20,20","0,0,0,0","20,20,20,20","20,20,20,20","20,20,20,20","10,10,10,10","20,20,20,20","0,0,0,0","20,20,20,20","0,0,1,1","3256,900,2263,1339","17.295457270698208,20.115753288188213,-41.050126687790716,-21.789859444573697","4.869151253466361,33.93183912608471,17.39156729308482,34.09417028892274","0","0"
"649","86","text","0","55","738606","0-0","","","","","","","","","","","","","","","","","","","","","","","","","","","","","","","","","","","","",""
"","","plant-game","0","56","756168","0-0","","200","190","4","WHEAT CROP","Right","200","190","1","THISTLE WEED","experimental","15","1,2,3,4","190,170,189.54531885836118,166.53534607463536","1,3,2,1","THISTLE WEED,NETTLE WEED,NETTLE WEED,NETTLE WEED","190,211.63513641000915,236.04629195879377,255.93675850684275","4,3,2,1","WHEAT CROP,WHEAT CROP,WHEAT CROP,WHEAT CROP","0,0,0,0","20,20,20,20","10,10,10,10","20,20,20,20","20,20,20,20","20,20,20,20","0,0,0,0","20,20,20,20","10,10,10,10","20,20,20,20","20,20,20,20","20,20,20,20","1,1,1,1","4225,2561,2520,760","-13.50469998227095,19.545318858361174,-23.009972783725814,20.94677167666345","21.635136410009164,24.411155548784627,19.890466548048963,19.244124496598115","0","0"
"566","86","text","0","57","756844","0-0","","","","","","","","","","","","","","","","","","","","","","","","","","","","","","","","","","","","",""
"","","plant-game","0","58","779346","0-0","","200","120","2","CORN CROP","Left","200","180","8","NETTLE WEED","experimental","16","1,2,3,4,5,6,7,8","120,116.18632612583286,140,133.2857022889342,153.37557704754602,155.32292583949865,133.86733382066853,138.62384408221047","2,1,6,5,4,3,2,1","CORN CROP,CORN CROP,WHEAT CROP,WHEAT CROP,WHEAT CROP,WHEAT CROP,WHEAT CROP,WHEAT CROP","180,226.54271843735808,254.4763113324785,262.86212147165656,261.93924671712557,257.71172492784183,260.81552072992264,257.65921915525104","8,7,6,5,4,3,2,1","NETTLE WEED,NETTLE WEED,NETTLE WEED,NETTLE WEED,NETTLE WEED,NETTLE WEED,NETTLE WEED,NETTLE WEED","20,20,20,20,20,20,20,20","20,20,20,20,20,20,20,20","10,10,10,10,10,10,10,10","20,20,20,20,20,20,20,20","0,0,0,0,0,0,0,0","20,20,20,20,20,20,20,20","20,20,20,20,20,20,20,20","20,20,20,20,20,20,20,20","10,10,10,10,10,10,10,10","20,20,20,20,20,20,20,20","0,0,0,0,0,0,0,0","20,20,20,20,20,20,20,20","0,0,1,1,1,1,1,1","3055,391,9637,344,297,294,280,298","-3.8136738741671437,16.245702241496993,-6.714297711065786,20.089874758611813,1.947348791952633,-21.45559201883012,4.756510261541927,2.091739076289558","46.54271843735809,27.93359289512042,8.385810139178089,-0.9228747545309891,-4.227521789283767,3.103795802080835,-3.1563015746715957,10.328110796810995","0","0"
"3723","86","text","0","59","783194","0-0","","","","","","","","","","","","","","","","","","","","","","","","","","","","","","","","","","","","",""
"","","plant-game","0","60","795545","0-0","","200","180","4","CORN CROP","Left","200","160","2","THISTLE WEED","experimental","17","1,2,3,4","180,197.0582214518017,249.59271315982258,252.69591317770954","4,3,2,1","CORN CROP,CORN CROP,CORN CROP,CORN CROP","160,188.79781701796227,180,192.1768618708319","2,1,2,1","THISTLE WEED,THISTLE WEED,NETTLE WEED,NETTLE WEED","20,20,20,20","20,20,20,20","10,10,10,10","20,20,20,20","0,0,0,0","20,20,20,20","20,20,20,20","20,20,20,20","10,10,10,10","20,20,20,20","0,0,0,0","20,20,20,20","0,0,0,0","3753,40,2394,40","17.058221451801693,52.53449170802089,3.1032000178869694,15.652845051121716","28.79781701796228,3.6635559066452323,12.176861870831921,5.4342988891412265","0","0"
"946","86","text","0","61","796601","0-0","","","","","","","","","","","","","","","","","","","","","","","","","","","","","","","","","","","","",""
"","","plant-game","0","62","812078","0-0","","200","190","8","CORN CROP","Right","200","190","1","THISTLE WEED","experimental","18","1,2,3,4,5,6,7,8","190,130,180.5301998820368,185.59605302527672,190.4474170097341,137.73898215077782,183.33332489766977,201.4720435917832","1,7,6,5,4,3,2,1","THISTLE WEED,NETTLE WEED,NETTLE WEED,NETTLE WEED,NETTLE WEED,NETTLE WEED,NETTLE WEED,NETTLE WEED","190,220.3103518053915,242.63838449629705,244.92463844069914,286.22507178722606,291.8044943916788,332.8736081769596,339.3955893407636","8,7,6,5,4,3,2,1","CORN CROP,CORN CROP,CORN CROP,CORN CROP,CORN CROP,CORN CROP,CORN CROP,CORN CROP","0,0,0,0,0,0,0,0","20,20,20,20,20,20,20,20","10,10,10,10,10,10,10,10","20,20,20,20,20,20,20,20","20,20,20,20,20,20,20,20","20,20,20,20,20,20,20,20","0,0,0,0,0,0,0,0","20,20,20,20,20,20,20,20","10,10,10,10,10,10,10,10","20,20,20,20,20,20,20,20","20,20,20,20,20,20,20,20","20,20,20,20,20,20,20,20","1,1,1,0,0,1,0,0","3356,2566,42,1119,382,844,527,917","27.41113823078731,50.53019988203681,5.065853143239895,4.85136398445739,-52.70843485895629,45.59434274689195,18.13871869411344,20.770024702181253","30.310351805391498,22.32803269090556,2.2862539444021017,41.3004333465269,5.579422604452745,41.069113785280784,6.52198116380402,10.894678136256097","0","0"
"507","86","text","0","63","812675","0-0","","","","","","","","","","","","","","","","","","","","","","","","","","","","","","","","","","","","",""
"","","plant-game","0","64","825373","0-0","","200","180","8","WHEAT CROP","Left","200","190","1","NETTLE WEED","experimental","19","1,2,3,4,5,6,7,8","180,189.268541516282,189.9191250472513,247.6288827759468,276.4968859140801,264.232419765889,293.4291728684643,312.4172314301755","8,7,6,5,4,3,2,1","WHEAT CROP,WHEAT CROP,WHEAT CROP,WHEAT CROP,WHEAT CROP,WHEAT CROP,WHEAT CROP,WHEAT CROP","190,130,149.6829237559122,165.71460497120566,213.21085858311787,215.4042373917434,261.3715979332035,266.5524852624487","1,7,6,5,4,3,2,1","NETTLE WEED,THISTLE WEED,THISTLE WEED,THISTLE WEED,THISTLE WEED,THISTLE WEED,THISTLE WEED,THISTLE WEED","20,20,20,20,20,20,20,20","20,20,20,20,20,20,20,20","10,10,10,10,10,10,10,10","20,20,20,20,20,20,20,20","0,0,0,0,0,0,0,0","20,20,20,20,20,20,20,20","20,20,20,20,20,20,20,20","20,20,20,20,20,20,20,20","10,10,10,10,10,10,10,10","20,20,20,20,20,20,20,20","0,0,0,0,0,0,0,0","20,20,20,20,20,20,20,20","0,0,0,0,0,0,0,0","3572,2423,81,76,95,49,186,539","9.268541516281992,0.6505835309692927,57.7097577286955,28.86800313813331,-12.264466148191111,29.196753102575343,18.988058561711167,21.7128837290162","8.546812838274679,19.682923755912203,16.031681215293442,47.49625361191221,2.193378808625532,45.96736054146005,5.180887329245277,-7.607253889705113","0","0"
"497","86","text","0","65","825972","0-0","","","","","","","","","","","","","","","","","","","","","","","","","","","","","","","","","","","","",""
"","","plant-game","0","66","843341","0-0","","200","120","8","CORN CROP","Right","200","160","1","THISTLE WEED","experimental","20","1,2,3,4,5,6,7,8","160,130,132.94573075527583,168.17986348573544,236.11565705133705,233.7224741871467,263.0399300465007,292.5710270938241","1,7,6,5,4,3,2,1","THISTLE WEED,NETTLE WEED,NETTLE WEED,NETTLE WEED,NETTLE WEED,NETTLE WEED,NETTLE WEED,NETTLE WEED","120,111.2119280252945,138.2737719457698,133.91586175371776,157.05929164609475,192.6017203079531,233.5905030949104,267.78135917230645","8,7,6,5,4,3,2,1","CORN CROP,CORN CROP,CORN CROP,CORN CROP,CORN CROP,CORN CROP,CORN CROP,CORN CROP","0,0,0,0,0,0,0,0","20,20,20,20,20,20,20,20","10,10,10,10,10,10,10,10","20,20,20,20,20,20,20,20","20,20,20,20,20,20,20,20","20,20,20,20,20,20,20,20","0,0,0,0,0,0,0,0","20,20,20,20,20,20,20,20","10,10,10,10,10,10,10,10","20,20,20,20,20,20,20,20","20,20,20,20,20,20,20,20","20,20,20,20,20,20,20,20","0,1,1,1,1,1,1,0","7059,3155,162,142,186,253,424,695","8.351448337405273,2.9457307552758323,35.23413273045961,67.93579356560161,-2.3931828641903365,29.317455859353956,29.53109704732344,12.16710033930159","-8.788071974705495,27.0618439204753,-4.357910192052032,23.143429892376986,35.54242866185833,40.988782786957316,34.190856077396035,7.130296309501856","0","0"
"483","86","text","0","67","843966","0-0","","","","","","","","","","","","","","","","","","","","","","","","","","","","","","","","","","","","",""
"","","plant-game","0","68","852427","0-0","","200","180","4","CORN CROP","Right","200","190","4","NETTLE WEED","experimental","21","1,2,3,4","190,207.04215624336365,233.26088714983376,255.97865414793034","4,3,2,1","NETTLE WEED,NETTLE WEED,NETTLE WEED,NETTLE WEED","180,181.64525286842957,195.9438327057586,214.2543800738199","4,3,2,1","CORN CROP,CORN CROP,CORN CROP,CORN CROP","0,0,0,0","20,20,20,20","10,10,10,10","20,20,20,20","20,20,20,20","20,20,20,20","0,0,0,0","20,20,20,20","10,10,10,10","20,20,20,20","20,20,20,20","20,20,20,20","1,1,1,0","1938,1623,535,605","17.04215624336365,26.21873090647012,22.717766998096565,13.03656433861849","1.6452528684295622,14.298579837329033,18.31054736806128,6.647287183434512","0","0"
"576","86","text","0","69","853130","0-0","","","","","","","","","","","","","","","","","","","","","","","","","","","","","","","","","","","","",""
"","","plant-game","0","70","862613","0-0","","200","190","1","CORN CROP","Left","200","180","2","THISTLE WEED","experimental","22","1,2","190,190","1,1","CORN CROP,WHEAT CROP","180,196.26393436967942","2,1","THISTLE WEED,THISTLE WEED","20,20","20,20","10,10","20,20","0,0","20,20","20,20","20,20","10,10","20,20","0,0","20,20","0,0","2500,2347","36.32506333400761,-0.21210338871962975","16.263934369679415,2.8630297201298625","0","0"
"486","86","text","0","71","863239","0-0","","","","","","","","","","","","","","","","","","","","","","","","","","","","","","","","","","","","",""
"","","plant-game","0","72","869399","0-0","","200","190","1","CORN CROP","Right","200","180","1","NETTLE WEED","experimental","23","1","180","1","NETTLE WEED","190","1","CORN CROP","0","20","10","20","20","20","0","20","10","20","20","20","1","3020","25.250757933876734","-5.877966794233732","0","0"
"479","86","text","0","73","869998","0-0","","","","","","","","","","","","","","","","","","","","","","","","","","","","","","","","","","","","",""
"","","plant-game","0","74","885664","0-0","","200","120","8","CORN CROP","Right","200","120","1","NETTLE WEED","experimental","24","1,2,3,4,5,6,7,8","120,130,147.0349085953383,170.83472013818317,194.4817990941034,227.56231197987225,246.99495875477803,275.5708036472165","1,7,6,5,4,3,2,1","NETTLE WEED,THISTLE WEED,THISTLE WEED,THISTLE WEED,THISTLE WEED,THISTLE WEED,THISTLE WEED,THISTLE WEED","120,105.25725143814822,94.2025942959768,119.76256741527865,156.16930842423588,156.94980585626342,181.91835386269202,196.96603714955975","8,7,6,5,4,3,2,1","CORN CROP,CORN CROP,CORN CROP,CORN CROP,CORN CROP,CORN CROP,CORN CROP,CORN CROP","0,0,0,0,0,0,0,0","20,20,20,20,20,20,20,20","10,10,10,10,10,10,10,10","20,20,20,20,20,20,20,20","20,20,20,20,20,20,20,20","20,20,20,20,20,20,20,20","0,0,0,0,0,0,0,0","20,20,20,20,20,20,20,20","10,10,10,10,10,10,10,10","20,20,20,20,20,20,20,20","20,20,20,20,20,20,20,20","20,20,20,20,20,20,20,20","1,1,1,1,1,1,1,1","2539,2675,616,380,322,1017,322,789","40.22588824065184,17.034908595338294,23.799811542844893,23.64707895592022,33.080512885768854,19.432646774905777,28.57584489243848,19.02258706866079","-14.742748561851784,-11.054657142171425,25.559973119301866,36.406741008957226,0.7804974320275306,24.968548006428602,15.047683286867743,53.95288491655115","0","0"
"445","86","text","0","75","886261","0-0","","","","","","","","","","","","","","","","","","","","","","","","","","","","","","","","","","","","",""
"","","plant-game","0","76","897076","0-0","","200","180","8","CORN CROP","Left","200","190","4","NETTLE WEED","experimental","25","1,2,3,4,5,6,7,8","180,238.61349216895002,266.7164874978868,304.0247365677691,322.8103466272891,301.911601438519,318.3561570210811,318.1430552492403","8,7,6,5,4,3,2,1","CORN CROP,CORN CROP,CORN CROP,CORN CROP,CORN CROP,CORN CROP,CORN CROP,CORN CROP","190,238.17669464633656,255.69854547491255,283.9631039481207,160,135.64112711267245,122.63506788776576,109.10839703635625","4,3,2,1,4,3,2,1","NETTLE WEED,NETTLE WEED,NETTLE WEED,NETTLE WEED,THISTLE WEED,THISTLE WEED,THISTLE WEED,THISTLE WEED","20,20,20,20,20,20,20,20","20,20,20,20,20,20,20,20","10,10,10,10,10,10,10,10","20,20,20,20,20,20,20,20","0,0,0,0,0,0,0,0","20,20,20,20,20,20,20,20","20,20,20,20,20,20,20,20","20,20,20,20,20,20,20,20","10,10,10,10,10,10,10,10","20,20,20,20,20,20,20,20","0,0,0,0,0,0,0,0","20,20,20,20,20,20,20,20","0,0,0,0,1,1,1,1","882,202,127,108,3462,133,97,112","58.61349216895002,28.102995328936778,37.30824906988225,18.78561005952003,-20.898745188770103,16.444555582562103,-0.21310177184081555,18.354218633960958","48.17669464633657,17.521850828576003,28.264558473208172,26.747564973586094,-24.35887288732754,-13.0060592249067,-13.526670851409499,39.67076401841725","0","0"
"201","86","text","0","77","897357","0-0","","","","","","","","","","","","","","","","","","","","","","","","","","","","","","","","","","","","",""
"","","plant-game","0","78","908223","0-0","","200","160","2","WHEAT CROP","Left","200","120","4","NETTLE WEED","experimental","26","1,2,3,4","160,166.2005498524906,180,200.4134694721297","2,1,2,1","WHEAT CROP,WHEAT CROP,CORN CROP,CORN CROP","120,154.83827268922437,168.3318994216002,160.2008038143615","4,3,2,1","NETTLE WEED,NETTLE WEED,NETTLE WEED,NETTLE WEED","20,20,20,20","20,20,20,20","10,10,10,10","20,20,20,20","0,0,0,0","20,20,20,20","20,20,20,20","20,20,20,20","10,10,10,10","20,20,20,20","0,0,0,0","20,20,20,20","0,0,0,0","2426,891,1767,42","6.200549852490614,3.007155439749205,20.413469472129695,-30.927277047329284","34.83827268922437,13.49362673237583,-8.131095607238699,65.69209081558228","0","0"
"476","86","text","0","79","908829","0-0","","","","","","","","","","","","","","","","","","","","","","","","","","","","","","","","","","","","",""
"","","plant-game","0","80","921341","0-0","","200","120","2","CORN CROP","Left","200","190","1","NETTLE WEED","experimental","27","1,2","120,94.84927521255335","2,1","CORN CROP,CORN CROP","190,190","1,1","NETTLE WEED,THISTLE WEED","20,20","20,20","10,10","20,20","0,0","20,20","20,20","20,20","10,10","20,20","0,0","20,20","1,0","3733,4481","-25.15072478744665,1.7014227163876612","46.503988838576575,-0.5089104332116605","0","0"
"506","86","text","0","81","921987","0-0","","","","","","","","","","","","","","","","","","","","","","","","","","","","","","","","","","","","",""
"","","plant-game","0","82","934287","0-0","","200","180","8","CORN CROP","Right","200","120","4","THISTLE WEED","experimental","28","1,2,3,4,5,6,7,8","120,150.0002629075654,155.5360261318552,200.10588453746323,160,180.9659052698143,190.81304688496766,202.95881043324854","4,3,2,1,4,3,2,1","THISTLE WEED,THISTLE WEED,THISTLE WEED,THISTLE WEED,NETTLE WEED,NETTLE WEED,NETTLE WEED,NETTLE WEED","180,186.09458280448283,212.90316136886224,238.6914839990128,272.00899070965363,330.0889356346487,346.61781415046767,359.73217114576767","8,7,6,5,4,3,2,1","CORN CROP,CORN CROP,CORN CROP,CORN CROP,CORN CROP,CORN CROP,CORN CROP,CORN CROP","0,0,0,0,0,0,0,0","20,20,20,20,20,20,20,20","10,10,10,10,10,10,10,10","20,20,20,20,20,20,20,20","20,20,20,20,20,20,20,20","20,20,20,20,20,20,20,20","0,0,0,0,0,0,0,0","20,20,20,20,20,20,20,20","10,10,10,10,10,10,10,10","20,20,20,20,20,20,20,20","20,20,20,20,20,20,20,20","20,20,20,20,20,20,20,20","1,1,1,0,1,0,0,0","3465,108,135,726,2227,349,197,151","30.000262907565407,5.535763224289809,44.56985840560801,-8.477412084274066,20.965905269814296,9.847141615153367,12.145763548280879,7.24650013808785","6.094582804482831,26.808578564379427,25.788322630150546,33.31750671064084,58.07994492499509,16.528878515818988,13.114356995300016,34.32098430736534","0","0"
"483","86","text","0","83","934880","0-0","","","","","","","","","","","","","","","","","","","","","","","","","","","","","","","","","","","","",""
"","","plant-game","0","84","942236","0-0","","200","180","2","CORN CROP","Right","200","160","4","THISTLE WEED","experimental","29","1,2,3,4","160,146.2526601421542,153.29562688957023,157.0924174264244","4,3,2,1","THISTLE WEED,THISTLE WEED,THISTLE WEED,THISTLE WEED","180,204.8176977088092,180,234.49266211384355","2,1,2,1","CORN CROP,CORN CROP,WHEAT CROP,WHEAT CROP","0,0,0,0","20,20,20,20","10,10,10,10","20,20,20,20","20,20,20,20","20,20,20,20","0,0,0,0","20,20,20,20","10,10,10,10","20,20,20,20","20,20,20,20","20,20,20,20","1,1,1,1","828,106,1775,136","-13.747339857845787,7.0429667474160205,3.79679053685415,2.7639491207731766","24.817697708809177,3.547652696508589,54.492662113843544,42.81392265609131","0","0"
"511","86","text","0","85","942867","0-0","","","","","","","","","","","","","","","","","","","","","","","","","","","","","","","","","","","","",""
"","","plant-game","0","86","957483","0-0","","200","160","8","CORN CROP","Left","200","190","4","NETTLE WEED","experimental","30","1,2,3,4,5,6,7,8","160,172.42563061965546,179.47032539726834,226.9298664429706,260.57578673907744,288.061998488008,335.9809911676656,326.9585890656687","8,7,6,5,4,3,2,1","CORN CROP,CORN CROP,CORN CROP,CORN CROP,CORN CROP,CORN CROP,CORN CROP,CORN CROP","190,174.24891976533283,215.93627315594028,278.89058127640305,160,173.3336807132851,196.25883872428113,240.09076948320808","4,3,2,1,4,3,2,1","NETTLE WEED,NETTLE WEED,NETTLE WEED,NETTLE WEED,THISTLE WEED,THISTLE WEED,THISTLE WEED,THISTLE WEED","20,20,20,20,20,20,20,20","20,20,20,20,20,20,20,20","10,10,10,10,10,10,10,10","20,20,20,20,20,20,20,20","0,0,0,0,0,0,0,0","20,20,20,20,20,20,20,20","20,20,20,20,20,20,20,20","20,20,20,20,20,20,20,20","10,10,10,10,10,10,10,10","20,20,20,20,20,20,20,20","0,0,0,0,0,0,0,0","20,20,20,20,20,20,20,20","0,0,0,0,0,0,0,1","2127,75,76,430,1854,743,617,1457","12.425630619655472,7.044694777612882,47.45954104570225,33.64592029610684,27.486211748930543,47.91899267965758,-9.022402101996892,-2.802514915719478","-15.751080234667171,41.68735339060747,62.954308120462755,13.381984727951323,13.333680713285094,22.92515801099603,43.831930758926944,-1.4901784236734423","0","0"
"520","86","text","0","87","958134","0-0","","","","","","","","","","","","","","","","","","","","","","","","","","","","","","","","","","","","",""
"","","plant-game","0","88","968451","0-0","","200","190","4","WHEAT CROP","Left","200","160","1","THISTLE WEED","experimental","31","1,2,3,4","190,228.38209644932937,273.30465657951214,270.82584182038886","4,3,2,1","WHEAT CROP,WHEAT CROP,WHEAT CROP,WHEAT CROP","160,170,172.63113116553114,185.62977323498637","1,3,2,1","THISTLE WEED,NETTLE WEED,NETTLE WEED,NETTLE WEED","20,20,20,20","20,20,20,20","10,10,10,10","20,20,20,20","0,0,0,0","20,20,20,20","20,20,20,20","20,20,20,20","10,10,10,10","20,20,20,20","0,0,0,0","20,20,20,20","0,1,1,1","1626,2511,57,665","38.38209644932935,44.92256013018276,-2.4788147591232796,-15.978331669430052","12.92115006076257,2.6311311655311527,12.998642069455236,11.66074501021517","0","0"
"512","86","text","0","89","969103","0-0","","","","","","","","","","","","","","","","","","","","","","","","","","","","","","","","","","","","",""
"","","plant-game","0","90","972660","0-0","","200","180","2","CORN CROP","Left","200","160","2","THISTLE WEED","experimental","32","1,2","180,211.51471646436207","2,1","CORN CROP,CORN CROP","160,164.88451142884787","2,1","THISTLE WEED,THISTLE WEED","20,20","20,20","10,10","20,20","0,0","20,20","20,20","20,20","10,10","20,20","0,0","20,20","0,0","946,40","31.514716464362074,64.34903940229223","4.884511428847858,22.819161412706993","0","0"
"196","86","text","0","91","972936","0-0","","","","","","","","","","","","","","","","","","","","","","","","","","","","","","","","","","","","",""
"","","plant-game","0","92","983618","0-0","","200","180","1","CORN CROP","Right","200","190","8","NETTLE WEED","experimental","33","1,2,3,4,5,6,7,8","190,181.99605314735663,158.51912970226687,141.86094041826487,160.20975036017455,197.90621674827128,212.09217601431624,214.46667464660285","8,7,6,5,4,3,2,1","NETTLE WEED,NETTLE WEED,NETTLE WEED,NETTLE WEED,NETTLE WEED,NETTLE WEED,NETTLE WEED,NETTLE WEED","180,130,177.0439784548603,180.77884826425566,200.35954438052866,245.57117560968095,215.5094860396738,216.60302937760753","1,7,6,5,4,3,2,1","CORN CROP,WHEAT CROP,WHEAT CROP,WHEAT CROP,WHEAT CROP,WHEAT CROP,WHEAT CROP,WHEAT CROP","0,0,0,0,0,0,0,0","20,20,20,20,20,20,20,20","10,10,10,10,10,10,10,10","20,20,20,20,20,20,20,20","20,20,20,20,20,20,20,20","20,20,20,20,20,20,20,20","0,0,0,0,0,0,0,0","20,20,20,20,20,20,20,20","10,10,10,10,10,10,10,10","20,20,20,20,20,20,20,20","20,20,20,20,20,20,20,20","20,20,20,20,20,20,20,20","0,1,1,1,1,1,1,1","680,2068,72,89,79,69,185,658","-8.00394685264337,-23.476923445089753,-16.658189284001978,18.348809941909668,37.69646638809671,14.185959266044964,2.374498632286606,-17.594857883520717","7.622464383994286,47.04397845486031,3.734869809395363,19.580696116273,45.211631229152296,-30.061689570007147,1.0935433379337454,9.423798054096133","0","0"
"564","86","text","0","93","984310","0-0","","","","","","","","","","","","","","","","","","","","","","","","","","","","","","","","","","","","",""
"","","plant-game","0","94","993319","0-0","","200","120","2","WHEAT CROP","Right","200","120","4","NETTLE WEED","experimental","34","1,2,3,4","120,171.15188245298086,229.63933642158784,238.33643062714387","4,3,2,1","NETTLE WEED,NETTLE WEED,NETTLE WEED,NETTLE WEED","120,151.52181277268033,180,204.98887032518363","2,1,2,1","WHEAT CROP,WHEAT CROP,CORN CROP,CORN CROP","0,0,0,0","20,20,20,20","10,10,10,10","20,20,20,20","20,20,20,20","20,20,20,20","0,0,0,0","20,20,20,20","10,10,10,10","20,20,20,20","20,20,20,20","20,20,20,20","1,1,0,1","1170,81,2566,518","51.15188245298086,58.487453968606985,8.697094205556024,12.350924961275593","31.521812772680335,4.784301021351144,24.988870325183633,13.814263979426869","0","0"
"691","86","text","0","95","994151","0-0","","","","","","","","","","","","","","","","","","","","","","","","","","","","","","","","","","","","",""
"","","plant-game","0","96","1005031","0-0","","200","120","8","WHEAT CROP","Left","200","180","2","THISTLE WEED","experimental","35","1,2,3,4,5,6,7,8","120,138.85092807277115,135.90577760138373,163.4475995262219,158.03752296561808,165.93583566341482,194.04715260431772,202.06582234264403","8,7,6,5,4,3,2,1","WHEAT CROP,WHEAT CROP,WHEAT CROP,WHEAT CROP,WHEAT CROP,WHEAT CROP,WHEAT CROP,WHEAT CROP","180,222.6695312309327,140,149.83400857932835,186.57750866822738,180.2090659163515,192.85840907390747,220.95004735005065","2,1,6,5,4,3,2,1","THISTLE WEED,THISTLE WEED,NETTLE WEED,NETTLE WEED,NETTLE WEED,NETTLE WEED,NETTLE WEED,NETTLE WEED","20,20,20,20,20,20,20,20","20,20,20,20,20,20,20,20","10,10,10,10,10,10,10,10","20,20,20,20,20,20,20,20","0,0,0,0,0,0,0,0","20,20,20,20,20,20,20,20","20,20,20,20,20,20,20,20","20,20,20,20,20,20,20,20","10,10,10,10,10,10,10,10","20,20,20,20,20,20,20,20","0,0,0,0,0,0,0,0","20,20,20,20,20,20,20,20","0,0,0,0,0,0,0,0","1336,135,2155,359,338,364,286,316","18.850928072771165,-2.9451504713874215,27.541821924838167,-5.410076560603805,7.8983126977967295,28.11131694090289,8.018669738326295,-14.340841925547444","42.66953123093272,42.0024235559934,9.834008579328364,36.74350008889901,-6.368442751875865,12.649343157555954,28.09163827614318,19.715654741208702","0","0"
"424","86","text","0","97","1005615","0-0","","","","","","","","","","","","","","","","","","","","","","","","","","","","","","","","","","","","",""
"","","plant-game","0","98","1012128","0-0","","200","180","2","CORN CROP","Right","200","190","2","THISTLE WEED","experimental","36","1,2","190,208.55395432607003","2,1","THISTLE WEED,THISTLE WEED","180,177.96252550675808","2,1","CORN CROP,CORN CROP","0,0","20,20","10,10","20,20","20,20","20,20","0,0","20,20","10,10","20,20","20,20","20,20","1,1","3473,92","18.55395432607002,24.351854039679598","-2.037474493241909,26.532316349783137","0","0"
"295","86","text","0","99","1012503","0-0","","","","","","","","","","","","","","","","","","","","","","","","","","","","","","","","","","","","",""
"","","plant-game","0","100","1021840","0-0","","200","120","8","CORN CROP","Left","200","120","4","THISTLE WEED","experimental","37","1,2,3,4,5,6,7,8","120,137.12570440225863,120.11288464223807,123.55192312963916,137.6573941719277,152.37648364241718,155.93774715546382,150.0316987007494","8,7,6,5,4,3,2,1","CORN CROP,CORN CROP,CORN CROP,CORN CROP,CORN CROP,CORN CROP,CORN CROP,CORN CROP","120,139.48346978754287,116.2597578044618,131.7705105348963,160,186.11809537621932,158.3026372644656,147.4826807063883","4,3,2,1,4,3,2,1","THISTLE WEED,THISTLE WEED,THISTLE WEED,THISTLE WEED,NETTLE WEED,NETTLE WEED,NETTLE WEED,NETTLE WEED","20,20,20,20,20,20,20,20","20,20,20,20,20,20,20,20","10,10,10,10,10,10,10,10","20,20,20,20,20,20,20,20","0,0,0,0,0,0,0,0","20,20,20,20,20,20,20,20","20,20,20,20,20,20,20,20","20,20,20,20,20,20,20,20","10,10,10,10,10,10,10,10","20,20,20,20,20,20,20,20","0,0,0,0,0,0,0,0","20,20,20,20,20,20,20,20","0,0,0,0,0,0,0,0","1210,117,1506,93,1417,132,125,231","17.125704402258645,-17.012819760020555,3.439038487401099,14.105471042288544,14.719089470489486,3.5612635130466366,-5.906048454714437,40.36240376443797","19.48346978754288,-23.22371198308108,15.510752730434483,9.951935012713072,26.118095376219305,-27.8154581117537,-10.819956558077312,15.179727595394555","0","0"
"522","86","text","0","101","1022482","0-0","","","","","","","","","","","","","","","","","","","","","","","","","","","","","","","","","","","","",""
"","","plant-game","0","102","1033784","0-0","","200","190","4","CORN CROP","Right","200","120","8","NETTLE WEED","experimental","38","1,2,3,4,5,6,7,8","120,152.3076275280518,144.0024841679315,188.70178186077186,218.2860225030337,243.49958418568482,223.0265664204881,244.17526327159922","8,7,6,5,4,3,2,1","NETTLE WEED,NETTLE WEED,NETTLE WEED,NETTLE WEED,NETTLE WEED,NETTLE WEED,NETTLE WEED,NETTLE WEED","190,253.4065029719487,269.6935891286204,292.4645049196489,160,205.86161688772145,231.70374245109122,232.0583197452616","4,3,2,1,4,3,2,1","CORN CROP,CORN CROP,CORN CROP,CORN CROP,WHEAT CROP,WHEAT CROP,WHEAT CROP,WHEAT CROP","0,0,0,0,0,0,0,0","20,20,20,20,20,20,20,20","10,10,10,10,10,10,10,10","20,20,20,20,20,20,20,20","20,20,20,20,20,20,20,20","20,20,20,20,20,20,20,20","0,0,0,0,0,0,0,0","20,20,20,20,20,20,20,20","10,10,10,10,10,10,10,10","20,20,20,20,20,20,20,20","20,20,20,20,20,20,20,20","20,20,20,20,20,20,20,20","1,1,1,1,1,1,0,0","1101,171,195,121,1364,1508,956,271","32.30762752805179,-8.305143360120294,44.69929769284036,29.584240642261854,25.21356168265113,-20.473017765196715,21.148696851111115,-24.637734173870285","63.406502971948704,16.2870861566717,22.77091579102855,38.54982514201405,45.861616887721446,25.842125563369756,0.3545772941703765,5.927205058425281","0","0"
"573","86","text","0","103","1034487","0-0","","","","","","","","","","","","","","","","","","","","","","","","","","","","","","","","","","","","",""
"","","plant-game","0","104","1044072","0-0","","200","180","4","CORN CROP","Right","200","180","2","THISTLE WEED","experimental","39","1,2,3,4","180,213.52965360022978,180,172.2546774072195","2,1,2,1","THISTLE WEED,THISTLE WEED,NETTLE WEED,NETTLE WEED","180,195.17632036502417,239.47543464418618,248.76089294245986","4,3,2,1","CORN CROP,CORN CROP,CORN CROP,CORN CROP","0,0,0,0","20,20,20,20","10,10,10,10","20,20,20,20","20,20,20,20","20,20,20,20","0,0,0,0","20,20,20,20","10,10,10,10","20,20,20,20","20,20,20,20","20,20,20,20","1,1,1,0","956,122,2014,2405","33.529653600229786,12.883699131719627,-7.745322592780489,-12.008458191453599","15.17632036502416,44.299114279162026,9.285458298273692,-25.431140402520164","0","0"
"463","86","text","0","105","1044615","0-0","","","","","","","","","","","","","","","","","","","","","","","","","","","","","","","","","","","","",""
"","","plant-game","0","106","1055009","0-0","","200","160","8","CORN CROP","Left","200","160","4","THISTLE WEED","experimental","40","1,2,3,4,5,6,7,8","160,202.41059188533612,224.5482689282323,240.76342550066227,241.54932425574881,243.70573454167672,254.01412788777094,219.4458240972739","8,7,6,5,4,3,2,1","CORN CROP,CORN CROP,CORN CROP,CORN CROP,CORN CROP,CORN CROP,CORN CROP,CORN CROP","160,136.0225977568881,150.0013022416428,164.93475736019482,160,176.1889109307224,175.07171946352526,193.2562483637639","4,3,2,1,4,3,2,1","THISTLE WEED,THISTLE WEED,THISTLE WEED,THISTLE WEED,NETTLE WEED,NETTLE WEED,NETTLE WEED,NETTLE WEED","20,20,20,20,20,20,20,20","20,20,20,20,20,20,20,20","10,10,10,10,10,10,10,10","20,20,20,20,20,20,20,20","0,0,0,0,0,0,0,0","20,20,20,20,20,20,20,20","20,20,20,20,20,20,20,20","20,20,20,20,20,20,20,20","10,10,10,10,10,10,10,10","20,20,20,20,20,20,20,20","0,0,0,0,0,0,0,0","20,20,20,20,20,20,20,20","0,0,1,1,0,1,1,1","1760,542,789,151,2386,74,100,103","42.41059188533612,22.137677042896172,16.21515657242996,0.7858987550865614,2.1564102859279117,10.308393346094233,-34.56830379049703,-12.919964782515517","-23.977402243111896,13.97870448475469,14.933455118552013,-0.7101867525914219,16.188910930722383,-1.1171914671971421,18.18452890023864,4.575906717130131","0","0"
"86","86","text","0","107","1055205","0-0","","","","","","","","","","","","","","","","","","","","","","","","","","","","","","","","","","","","",""
"","","plant-game","0","108","1065504","0-0","","200","120","4","WHEAT CROP","Right","200","160","1","NETTLE WEED","experimental","41","1,2,3,4","160,170,215.28885014069294,242.4309464953063","1,3,2,1","NETTLE WEED,THISTLE WEED,THISTLE WEED,THISTLE WEED","120,149.41017856485368,174.89601567947318,201.22027470792523","4,3,2,1","WHEAT CROP,WHEAT CROP,WHEAT CROP,WHEAT CROP","0,0,0,0","20,20,20,20","10,10,10,10","20,20,20,20","20,20,20,20","20,20,20,20","0,0,0,0","20,20,20,20","10,10,10,10","20,20,20,20","20,20,20,20","20,20,20,20","1,1,1,0","1426,1953,171,633","39.668299011340075,45.28885014069296,27.14209635461336,-11.066203201867273","29.410178564853688,25.48583711461949,26.32425902845206,2.339810462087894","0","0"
"591","86","text","0","109","1066225","0-0","","","","","","","","","","","","","","","","","","","","","","","","","","","","","","","","","","","","",""
"","","plant-game","0","110","1074125","0-0","","200","160","4","CORN CROP","Left","200","190","1","NETTLE WEED","experimental","42","1,2,3,4","160,223.54824303470724,232.88778572844333,259.63400827130124","4,3,2,1","CORN CROP,CORN CROP,CORN CROP,CORN CROP","190,170,193.70447307460955,182.96506617150584","1,3,2,1","NETTLE WEED,THISTLE WEED,THISTLE WEED,THISTLE WEED","20,20,20,20","20,20,20,20","10,10,10,10","20,20,20,20","0,0,0,0","20,20,20,20","20,20,20,20","20,20,20,20","10,10,10,10","20,20,20,20","0,0,0,0","20,20,20,20","0,1,1,1","1580,2253,51,48","63.54824303470725,9.339542693736101,26.746222542857932,-35.76495577522567","36.31546637342295,23.70447307460955,-10.739406903103706,-5.634603579991563","0","0"
"549","86","text","0","111","1074804","0-0","","","","","","","","","","","","","","","","","","","","","","","","","","","","","","","","","","","","",""
"","","plant-game","0","112","1086476","0-0","","200","160","4","CORN CROP","Left","200","120","2","THISTLE WEED","experimental","43","1,2,3,4","160,154.75680464267552,182.52292556234767,153.73300213430625","4,3,2,1","CORN CROP,CORN CROP,CORN CROP,CORN CROP","120,118.35048750742673,180,180.71333625441014","2,1,2,1","THISTLE WEED,THISTLE WEED,NETTLE WEED,NETTLE WEED","20,20,20,20","20,20,20,20","10,10,10,10","20,20,20,20","0,0,0,0","20,20,20,20","20,20,20,20","20,20,20,20","10,10,10,10","20,20,20,20","0,0,0,0","20,20,20,20","1,1,1,1","4516,310,1827,44","-5.243195357324488,27.766120919672144,-28.789923428041426,32.053734180953","-1.6495124925732618,-7.8547058057942385,0.713336254410143,-23.716725919962602","0","0"
"599","86","text","0","113","1087199","0-0","","","","","","","","","","","","","","","","","","","","","","","","","","","","","","","","","","","","",""
"","","plant-game","0","114","1092098","0-0","","200","190","4","CORN CROP","Left","200","180","4","THISTLE WEED","experimental","44","1,2,3,4","190,211.50732951324676,211.3805962980098,236.65267766212312","4,3,2,1","CORN CROP,CORN CROP,CORN CROP,CORN CROP","180,145.44754236055064,139.60978167279654,98.07282668828593","4,3,2,1","THISTLE WEED,THISTLE WEED,THISTLE WEED,THISTLE WEED","20,20,20,20","20,20,20,20","10,10,10,10","20,20,20,20","0,0,0,0","20,20,20,20","20,20,20,20","20,20,20,20","10,10,10,10","20,20,20,20","0,0,0,0","20,20,20,20","1,1,1,1","882,207,177,95","21.50732951324676,-0.1267332152369438,25.272081364113326,41.572493294891004","-34.55245763944936,-5.837760687754098,-41.536954984510615,33.789749298255344","0","0"
"508","86","text","0","115","1092729","0-0","","","","","","","","","","","","","","","","","","","","","","","","","","","","","","","","","","","","",""
"","","plant-game","0","116","1099922","0-0","","200","180","1","CORN CROP","Right","200","160","2","NETTLE WEED","experimental","45","1,2","160,167.5707362071303","2,1","NETTLE WEED,NETTLE WEED","180,190","1,1","CORN CROP,WHEAT CROP","0,0","20,20","10,10","20,20","20,20","20,20","0,0","20,20","10,10","20,20","20,20","20,20","1,1","822,2199","7.570736207130306,35.79411125062702","-7.445085638377744,32.24666755286307","0","0"
"62","86","text","0","117","1100094","0-0","","","","","","","","","","","","","","","","","","","","","","","","","","","","","","","","","","","","",""
"","","plant-game","0","118","1104245","0-0","","200","120","2","WHEAT CROP","Right","200","120","2","NETTLE WEED","experimental","46","1,2","120,179.41198684288253","2,1","NETTLE WEED,NETTLE WEED","120,187.09143922218468","2,1","WHEAT CROP,WHEAT CROP","0,0","20,20","10,10","20,20","20,20","20,20","0,0","20,20","10,10","20,20","20,20","20,20","1,1","959,149","59.41198684288253,31.664144177332872","67.09143922218468,19.482493919224755","0","0"
"655","86","text","0","119","1105030","0-0","","","","","","","","","","","","","","","","","","","","","","","","","","","","","","","","","","","","",""
"","","plant-game","0","120","1113674","0-0","","200","120","4","CORN CROP","Right","200","160","2","THISTLE WEED","experimental","47","1,2,3,4","160,148.95535101534944,180,163.33731237497176","2,1,2,1","THISTLE WEED,THISTLE WEED,NETTLE WEED,NETTLE WEED","120,173.3762690451548,200.57828065343378,176.5865925971177","4,3,2,1","CORN CROP,CORN CROP,CORN CROP,CORN CROP","0,0,0,0","20,20,20,20","10,10,10,10","20,20,20,20","20,20,20,20","20,20,20,20","0,0,0,0","20,20,20,20","10,10,10,10","20,20,20,20","20,20,20,20","20,20,20,20","1,1,0,0","1327,910,1570,43","-11.044648984650564,2.9965237326606164,-16.662687625028234,-45.99135076526672","53.37626904515481,27.202011608278973,-23.99168805631609,-6.233910396667368","0","0"
"582","86","text","0","121","1114376","0-0","","","","","","","","","","","","","","","","","","","","","","","","","","","","","","","","","","","","",""
"","","plant-game","0","122","1119987","0-0","","200","120","2","WHEAT CROP","Right","200","190","2","NETTLE WEED","experimental","48","1,2","190,191.01260407191506","2,1","NETTLE WEED,NETTLE WEED","120,129.460396140655","2,1","WHEAT CROP,WHEAT CROP","0,0","20,20","10,10","20,20","20,20","20,20","0,0","20,20","10,10","20,20","20,20","20,20","0,0","2479,71","1.012604071915059,42.97228338685929","9.460396140655002,31.403679877625574","0","0"
"1447","86","text","0","123","1121594","0-0","","","","","","","","","","","","","","","","","","","","","","","","","","","","","","","","","","","","",""
"","","plant-game","0","124","1129434","0-0","","200","180","4","WHEAT CROP","Right","200","180","8","THISTLE WEED","experimental","49","1,2,3,4,5,6,7,8","180,223.98054573730607,251.99357057682397,290.66648580089566,342.5009175219806,298.3317705607294,272.4298505309877,258.81375245023844","8,7,6,5,4,3,2,1","THISTLE WEED,THISTLE WEED,THISTLE WEED,THISTLE WEED,THISTLE WEED,THISTLE WEED,THISTLE WEED,THISTLE WEED","180,207.47913799902574,248.33467518285394,246.56702714390613,160,164.95103731974856,156.66510085661184,171.85006439776183","4,3,2,1,4,3,2,1","WHEAT CROP,WHEAT CROP,WHEAT CROP,WHEAT CROP,CORN CROP,CORN CROP,CORN CROP,CORN CROP","0,0,0,0,0,0,0,0","20,20,20,20,20,20,20,20","10,10,10,10,10,10,10,10","20,20,20,20,20,20,20,20","20,20,20,20,20,20,20,20","20,20,20,20,20,20,20,20","0,0,0,0,0,0,0,0","20,20,20,20,20,20,20,20","10,10,10,10,10,10,10,10","20,20,20,20,20,20,20,20","20,20,20,20,20,20,20,20","20,20,20,20,20,20,20,20","1,1,1,1,0,0,0,0","860,83,89,78,1526,78,76,85","43.98054573730607,28.013024839517904,38.672915224071666,51.83443172108498,-44.16914696125123,-25.901920029741696,-13.6160980807493,-19.390178978948505","27.47913799902574,40.855537183828204,-1.7676480389478009,22.94980119538698,4.9510373197485675,-8.285936463136709,15.184963541149985,-1.453726272986557","0","0"
"517","86","text","0","125","1130081","0-0","","","","","","","","","","","","","","","","","","","","","","","","","","","","","","","","","","","","",""
"","","plant-game","0","126","1137216","0-0","","200","160","8","WHEAT CROP","Right","200","180","8","NETTLE WEED","experimental","50","1,2,3,4,5,6,7,8","180,197.26256339106976,195.1298885724163,188.75000937781877,198.82342250648037,222.88835751440956,201.20901589316696,181.1141577144272","8,7,6,5,4,3,2,1","NETTLE WEED,NETTLE WEED,NETTLE WEED,NETTLE WEED,NETTLE WEED,NETTLE WEED,NETTLE WEED,NETTLE WEED","160,161.8302141071309,175.68883940495047,207.93935680179007,201.70709108868198,204.31969367090335,175.99142988112723,173.8994410949749","8,7,6,5,4,3,2,1","WHEAT CROP,WHEAT CROP,WHEAT CROP,WHEAT CROP,WHEAT CROP,WHEAT CROP,WHEAT CROP,WHEAT CROP","0,0,0,0,0,0,0,0","20,20,20,20,20,20,20,20","10,10,10,10,10,10,10,10","20,20,20,20,20,20,20,20","20,20,20,20,20,20,20,20","20,20,20,20,20,20,20,20","0,0,0,0,0,0,0,0","20,20,20,20,20,20,20,20","10,10,10,10,10,10,10,10","20,20,20,20,20,20,20,20","20,20,20,20,20,20,20,20","20,20,20,20,20,20,20,20","1,1,1,1,1,0,0,1","1731,91,100,107,100,752,63,542","17.262563391069754,-2.132674818653477,-6.379879194597532,10.073413128661613,24.064935007929208,-21.679341621242607,-20.09485817873977,40.779989376367276","1.8302141071308888,13.858625297819561,32.25051739683959,-6.232265713108088,2.6126025822213848,-28.328263789776127,-2.0919887861523483,2.1788970566330192","0","0"
"541","86","text","0","127","1137858","0-0","","","","","","","","","","","","","","","","","","","","","","","","","","","","","","","","","","","","",""
"","","plant-game","0","128","1147297","0-0","","200","160","8","WHEAT CROP","Right","200","180","4","THISTLE WEED","experimental","51","1,2,3,4,5,6,7,8","180,197.0930713029451,251.02854338219487,268.1651675153793,160,190.21095040664062,193.75258921090014,214.59570565076282","4,3,2,1,4,3,2,1","THISTLE WEED,THISTLE WEED,THISTLE WEED,THISTLE WEED,NETTLE WEED,NETTLE WEED,NETTLE WEED,NETTLE WEED","160,214.02161596740888,196.01975914873776,201.07006743260598,183.42722389257426,199.32945135586453,241.9734892590397,265.25160426212983","8,7,6,5,4,3,2,1","WHEAT CROP,WHEAT CROP,WHEAT CROP,WHEAT CROP,WHEAT CROP,WHEAT CROP,WHEAT CROP,WHEAT CROP","0,0,0,0,0,0,0,0","20,20,20,20,20,20,20,20","10,10,10,10,10,10,10,10","20,20,20,20,20,20,20,20","20,20,20,20,20,20,20,20","20,20,20,20,20,20,20,20","0,0,0,0,0,0,0,0","20,20,20,20,20,20,20,20","10,10,10,10,10,10,10,10","20,20,20,20,20,20,20,20","20,20,20,20,20,20,20,20","20,20,20,20,20,20,20,20","1,1,0,0,1,1,0,0","1434,124,681,73,1370,68,1188,70","17.0930713029451,53.93547207924978,17.13662413318447,-4.8734248062706635,30.21095040664062,3.541638804259513,20.84311643986268,18.796292422782436","54.02161596740887,-18.00185681867113,5.050308283868229,-17.64284354003172,15.902227463290284,42.64403790317516,23.27811500309016,5.313491306280689","0","0"
"439","86","text","0","129","1147856","0-0","","","","","","","","","","","","","","","","","","","","","","","","","","","","","","","","","","","","",""
"","","plant-game","0","130","1156652","0-0","","200","190","8","CORN CROP","Left","200","190","8","THISTLE WEED","experimental","52","1,2,3,4,5,6,7,8","190,222.33531279398062,229.67882604432165,229.01606182083205,244.36078317982646,241.63342410801266,242.31088061667887,239.6049426135618","8,7,6,5,4,3,2,1","CORN CROP,CORN CROP,CORN CROP,CORN CROP,CORN CROP,CORN CROP,CORN CROP,CORN CROP","190,237.3205123797428,264.47645454428766,233.8329111087176,237.56611973106027,261.61913121953773,262.78835337486066,285.1716742096409","8,7,6,5,4,3,2,1","THISTLE WEED,THISTLE WEED,THISTLE WEED,THISTLE WEED,THISTLE WEED,THISTLE WEED,THISTLE WEED,THISTLE WEED","20,20,20,20,20,20,20,20","20,20,20,20,20,20,20,20","10,10,10,10,10,10,10,10","20,20,20,20,20,20,20,20","0,0,0,0,0,0,0,0","20,20,20,20,20,20,20,20","20,20,20,20,20,20,20,20","20,20,20,20,20,20,20,20","10,10,10,10,10,10,10,10","20,20,20,20,20,20,20,20","0,0,0,0,0,0,0,0","20,20,20,20,20,20,20,20","0,0,1,1,1,1,0,0","1981,74,476,51,391,55,716,379","32.33531279398063,7.343513250341028,-0.6627642234895923,15.344721358994413,-2.7273590718137832,0.6774565086661979,-2.705938003117062,-21.45902892609493","47.32051237974281,27.155942164544832,-30.643543435570045,3.733208622342648,24.053011488477466,1.1692221553229136,22.383320834780253,29.19242530645447","0","0"
"589","86","text","0","131","1157401","0-0","","","","","","","","","","","","","","","","","","","","","","","","","","","","","","","","","","","","",""
"","","plant-game","0","132","1167882","0-0","","200","180","1","CORN CROP","Left","200","180","8","THISTLE WEED","experimental","53","1,2,3,4,5,6,7,8","180,130,99.5745650555933,97.31456226914844,117.35272611883448,119.10238476780376,93.38128496344017,92.78276897049753","1,7,6,5,4,3,2,1","CORN CROP,WHEAT CROP,WHEAT CROP,WHEAT CROP,WHEAT CROP,WHEAT CROP,WHEAT CROP,WHEAT CROP","180,224.59540049824105,248.37512026881322,239.81189085633986,232.43512069804063,239.35911779720794,233.70865558190738,239.6488077095113","8,7,6,5,4,3,2,1","THISTLE WEED,THISTLE WEED,THISTLE WEED,THISTLE WEED,THISTLE WEED,THISTLE WEED,THISTLE WEED,THISTLE WEED","20,20,20,20,20,20,20,20","20,20,20,20,20,20,20,20","10,10,10,10,10,10,10,10","20,20,20,20,20,20,20,20","0,0,0,0,0,0,0,0","20,20,20,20,20,20,20,20","20,20,20,20,20,20,20,20","20,20,20,20,20,20,20,20","10,10,10,10,10,10,10,10","20,20,20,20,20,20,20,20","0,0,0,0,0,0,0,0","20,20,20,20,20,20,20,20","0,1,1,1,1,1,1,1","1330,3626,122,103,111,118,120,107","20.797424715068786,-30.425434944406703,-2.2600027864448604,20.038163849686047,1.7496586489692785,-25.72109980436359,-0.5985159929426385,56.31337258988131","44.59540049824105,23.77971977057216,-8.563229412473355,-7.376770158299225,6.923997099167315,-5.650462215300571,5.9401521276039,9.427377386385972","0","0"
"522","86","text","0","133","1168524","0-0","","","","","","","","","","","","","","","","","","","","","","","","","","","","","","","","","","","","",""
"","","plant-game","0","134","1179801","0-0","","200","180","8","WHEAT CROP","Left","200","160","4","THISTLE WEED","experimental","54","1,2,3,4,5,6,7,8","180,179.53947909232417,201.5183180432033,271.13354277941676,227.1284334473877,256.02961062861004,274.0989868718343,313.3609908383654","8,7,6,5,4,3,2,1","WHEAT CROP,WHEAT CROP,WHEAT CROP,WHEAT CROP,WHEAT CROP,WHEAT CROP,WHEAT CROP,WHEAT CROP","160,179.31726135376542,214.68305801953355,229.65894638724544,160,145.4130720629722,152.0158693885429,184.26848889072477","4,3,2,1,4,3,2,1","THISTLE WEED,THISTLE WEED,THISTLE WEED,THISTLE WEED,NETTLE WEED,NETTLE WEED,NETTLE WEED,NETTLE WEED","20,20,20,20,20,20,20,20","20,20,20,20,20,20,20,20","10,10,10,10,10,10,10,10","20,20,20,20,20,20,20,20","0,0,0,0,0,0,0,0","20,20,20,20,20,20,20,20","20,20,20,20,20,20,20,20","20,20,20,20,20,20,20,20","10,10,10,10,10,10,10,10","20,20,20,20,20,20,20,20","0,0,0,0,0,0,0,0","20,20,20,20,20,20,20,20","0,0,0,1,0,0,0,0","1619,102,114,719,2499,367,316,233","-0.46052090767582143,21.97883895087912,69.61522473621343,-44.00510933202906,28.90117718122238,18.069376243224276,39.26200396653107,22.833603201960337","19.317261353765414,35.36579666576813,14.975888367711878,17.740470222784147,-14.586927937027802,6.602797325570728,32.25261950218187,18.99706924299187","0","0"
"531","86","text","0","135","1180432","0-0","","","","","","","","","","","","","","","","","","","","","","","","","","","","","","","","","","","","",""
"","","plant-game","0","136","1188606","0-0","","200","160","2","WHEAT CROP","Left","200","190","1","THISTLE WEED","experimental","55","1,2","160,196.90624276156086","2,1","WHEAT CROP,WHEAT CROP","190,190","1,1","THISTLE WEED,NETTLE WEED","20,20","20,20","10,10","20,20","0,0","20,20","20,20","20,20","10,10","20,20","0,0","20,20","0,1","1573,2541","36.906242761560854,3.733827929791904","9.71207809804692,19.750073112215873","0","0"
"78","86","text","0","137","1188774","0-0","","","","","","","","","","","","","","","","","","","","","","","","","","","","","","","","","","","","",""
"","","plant-game","0","138","1196455","0-0","","200","160","2","WHEAT CROP","Right","200","180","1","NETTLE WEED","experimental","56","1,2","180,190","1,1","NETTLE WEED,THISTLE WEED","160,182.66273423821707","2,1","WHEAT CROP,WHEAT CROP","0,0","20,20","10,10","20,20","20,20","20,20","0,0","20,20","10,10","20,20","20,20","20,20","1,0","1244,1850","-16.399683570194902,-9.318921671928948","22.662734238217062,3.2520708245960224","0","0"
"502","86","text","0","139","1197077","0-0","","","","","","","","","","","","","","","","","","","","","","","","","","","","","","","","","","","","",""
"","","plant-game","0","140","1205200","0-0","","200","120","1","CORN CROP","Left","200","120","4","NETTLE WEED","experimental","57","1,2,3,4","120,170,193.47619080761254,201.89484445880086","1,3,2,1","CORN CROP,WHEAT CROP,WHEAT CROP,WHEAT CROP","120,153.43672676655154,169.20998259618233,183.95251739129188","4,3,2,1","NETTLE WEED,NETTLE WEED,NETTLE WEED,NETTLE WEED","20,20,20,20","20,20,20,20","10,10,10,10","20,20,20,20","0,0,0,0","20,20,20,20","20,20,20,20","20,20,20,20","10,10,10,10","20,20,20,20","0,0,0,0","20,20,20,20","1,0,0,0","2565,1406,81,87","-6.089504876241403,23.47619080761255,8.418653651188322,28.622497758169857","33.43672676655153,15.773255829630799,14.742534795109556,17.576468053086447","0","0"
"508","86","text","0","141","1205828","0-0","","","","","","","","","","","","","","","","","","","","","","","","","","","","","","","","","","","","",""
"","","plant-game","0","142","1215453","0-0","","200","120","4","CORN CROP","Left","200","120","8","NETTLE WEED","experimental","58","1,2,3,4,5,6,7,8","120,138.29252074236894,118.83400285268931,121.54117454459163,160,198.6525962237329,237.69329023689403,229.48462527259866","4,3,2,1,4,3,2,1","CORN CROP,CORN CROP,CORN CROP,CORN CROP,WHEAT CROP,WHEAT CROP,WHEAT CROP,WHEAT CROP","120,152.64993539272206,137.6308533934081,149.38552362594712,157.23826376950055,140.52884169129896,132.58633290237134,144.1746833988347","8,7,6,5,4,3,2,1","NETTLE WEED,NETTLE WEED,NETTLE WEED,NETTLE WEED,NETTLE WEED,NETTLE WEED,NETTLE WEED,NETTLE WEED","20,20,20,20,20,20,20,20","20,20,20,20,20,20,20,20","10,10,10,10,10,10,10,10","20,20,20,20,20,20,20,20","0,0,0,0,0,0,0,0","20,20,20,20,20,20,20,20","20,20,20,20,20,20,20,20","20,20,20,20,20,20,20,20","10,10,10,10,10,10,10,10","20,20,20,20,20,20,20,20","0,0,0,0,0,0,0,0","20,20,20,20,20,20,20,20","0,0,0,0,0,0,0,0","1665,71,81,616,1530,916,427,402","18.292520742368925,-19.458517889679626,2.707171691902314,8.577857365621227,38.6525962237329,39.04069401316113,-8.208664964295373,13.974000852072775","32.64993539272206,-15.019081999313954,11.754670232539022,7.852740143553433,-16.709422078201584,-7.9425087889276185,11.58835049646337,20.299815069338703","0","0"
"234","86","text","0","143","1215757","0-0","","","","","","","","","","","","","","","","","","","","","","","","","","","","","","","","","","","","",""
"","","plant-game","0","144","1222005","0-0","","200","120","1","CORN CROP","Left","200","160","2","THISTLE WEED","experimental","59","1,2","120,190","1,1","CORN CROP,WHEAT CROP","160,134.91572420596012","2,1","THISTLE WEED,THISTLE WEED","20,20","20,20","10,10","20,20","0,0","20,20","20,20","20,20","10,10","20,20","0,0","20,20","1,0","1435,1262","3.0485300820397683,26.653772388135888","-25.08427579403989,2.288125121196366","0","0"
"550","86","text","0","145","1222645","0-0","","","","","","","","","","","","","","","","","","","","","","","","","","","","","","","","","","","","",""
"","","plant-game","0","146","1233295","0-0","","200","160","1","CORN CROP","Right","200","190","8","THISTLE WEED","experimental","60","1,2,3,4,5,6,7,8","190,219.66851490607016,259.60703598303513,299.5699095056655,318.81147044563403,321.83072401905,323.07291595093704,336.23831082526266","8,7,6,5,4,3,2,1","THISTLE WEED,THISTLE WEED,THISTLE WEED,THISTLE WEED,THISTLE WEED,THISTLE WEED,THISTLE WEED,THISTLE WEED","160,130,135.89895971407375,170.70716388888718,197.33798317522883,223.1497578831607,263.2377896175418,272.48072131367667","1,7,6,5,4,3,2,1","CORN CROP,WHEAT CROP,WHEAT CROP,WHEAT CROP,WHEAT CROP,WHEAT CROP,WHEAT CROP,WHEAT CROP","0,0,0,0,0,0,0,0","20,20,20,20,20,20,20,20","10,10,10,10,10,10,10,10","20,20,20,20,20,20,20,20","20,20,20,20,20,20,20,20","20,20,20,20,20,20,20,20","0,0,0,0,0,0,0,0","20,20,20,20,20,20,20,20","10,10,10,10,10,10,10,10","20,20,20,20,20,20,20,20","20,20,20,20,20,20,20,20","20,20,20,20,20,20,20,20","0,1,1,1,1,1,1,1","4460,1404,58,58,55,59,74,124","29.668514906070158,39.93852107696499,39.96287352263041,19.241560939968533,3.019253573415998,1.2421919318869996,13.165394874325614,8.830221344166123","6.2111390869691006,5.898959714073753,34.80820417481344,26.630819286341634,25.81177470793189,40.08803173438111,9.242931696134844,30.655547051391025","0","0"
"145","86","text","0","147","1233560","0-0","","","","","","","","","","","","","","","","","","","","","","","","","","","","","","","","","","","","",""
"","","plant-game","0","148","1244400","0-0","","200","160","4","WHEAT CROP","Right","200","160","1","THISTLE WEED","experimental","61","1,2,3,4","160,170,167.12255297226417,166.56779023543456","1,3,2,1","THISTLE WEED,NETTLE WEED,NETTLE WEED,NETTLE WEED","160,173.35135176710327,201.17038949526386,212.5085411488079","4,3,2,1","WHEAT CROP,WHEAT CROP,WHEAT CROP,WHEAT CROP","0,0,0,0","20,20,20,20","10,10,10,10","20,20,20,20","20,20,20,20","20,20,20,20","0,0,0,0","20,20,20,20","10,10,10,10","20,20,20,20","20,20,20,20","20,20,20,20","0,1,1,1","2744,1320,2712,185","17.362042836597524,-2.877447027735826,-0.5547627368296268,14.996169414834723","13.35135176710327,27.81903772816061,11.338151653544026,12.571884923252407","0","0"
"440","86","text","0","149","1244957","0-0","","","","","","","","","","","","","","","","","","","","","","","","","","","","","","","","","","","","",""
"","","plant-game","0","150","1253317","0-0","","200","180","8","CORN CROP","Right","200","180","1","THISTLE WEED","experimental","62","1,2,3,4,5,6,7,8","180,130,126.38318954990497,133.4036248569152,134.40697477311994,155.69003158086042,151.00836542740615,154.30346180377484","1,7,6,5,4,3,2,1","THISTLE WEED,NETTLE WEED,NETTLE WEED,NETTLE WEED,NETTLE WEED,NETTLE WEED,NETTLE WEED,NETTLE WEED","180,178.4386905719854,169.57138326940378,193.12000266986826,228.75901073327452,284.860958803023,345.3553362692084,383.69913488861","8,7,6,5,4,3,2,1","CORN CROP,CORN CROP,CORN CROP,CORN CROP,CORN CROP,CORN CROP,CORN CROP,CORN CROP","0,0,0,0,0,0,0,0","20,20,20,20,20,20,20,20","10,10,10,10,10,10,10,10","20,20,20,20,20,20,20,20","20,20,20,20,20,20,20,20","20,20,20,20,20,20,20,20","0,0,0,0,0,0,0,0","20,20,20,20,20,20,20,20","10,10,10,10,10,10,10,10","20,20,20,20,20,20,20,20","20,20,20,20,20,20,20,20","20,20,20,20,20,20,20,20","1,1,1,1,1,1,1,0","1277,1125,81,71,60,186,663,637","22.677353956840218,-3.6168104500950307,7.020435307010233,1.0033499162047406,21.283056807740483,-4.681666153454259,3.2950963763686794,13.264273954402224","-1.5613094280145923,-8.867307302581622,23.54861940046449,35.63900806340626,56.10194806974845,60.49437746618541,38.34379861940159,36.66152183060829","0","0"
"507","86","text","0","151","1253940","0-0","","","","","","","","","","","","","","","","","","","","","","","","","","","","","","","","","","","","",""
"","","plant-game","0","152","1261605","0-0","","200","160","4","WHEAT CROP","Right","200","180","2","THISTLE WEED","experimental","63","1,2,3,4","180,179.7075310467941,180,160.4673270968114","2,1,2,1","THISTLE WEED,THISTLE WEED,NETTLE WEED,NETTLE WEED","160,166.42493693978278,137.62485636366716,146.89116977530423","4,3,2,1","WHEAT CROP,WHEAT CROP,WHEAT CROP,WHEAT CROP","0,0,0,0","20,20,20,20","10,10,10,10","20,20,20,20","20,20,20,20","20,20,20,20","0,0,0,0","20,20,20,20","10,10,10,10","20,20,20,20","20,20,20,20","20,20,20,20","0,0,1,1","2774,78,1365,43","-0.29246895320592275,26.772906632543236,-19.532672903188605,-20.32702685840124","6.424936939782787,-28.800080576115622,9.266313411637073,38.73388881369732","0","0"
"258","86","text","0","153","1261952","0-0","","","","","","","","","","","","","","","","","","","","","","","","","","","","","","","","","","","","",""
"","","plant-game","0","154","1269231","0-0","","200","160","4","CORN CROP","Right","200","160","8","THISTLE WEED","experimental","64","1,2,3,4,5,6,7,8","160,171.46356558957675,165.85968874537187,186.66053090604228,193.9756965435103,216.10897648636916,238.29840929148878,262.3445097684078","8,7,6,5,4,3,2,1","THISTLE WEED,THISTLE WEED,THISTLE WEED,THISTLE WEED,THISTLE WEED,THISTLE WEED,THISTLE WEED,THISTLE WEED","160,151.78965040292576,165.34637505655033,180.90266785253434,160,161.09480570117205,168.48397595281966,154.18387044998826","4,3,2,1,4,3,2,1","CORN CROP,CORN CROP,CORN CROP,CORN CROP,WHEAT CROP,WHEAT CROP,WHEAT CROP,WHEAT CROP","0,0,0,0,0,0,0,0","20,20,20,20,20,20,20,20","10,10,10,10,10,10,10,10","20,20,20,20,20,20,20,20","20,20,20,20,20,20,20,20","20,20,20,20,20,20,20,20","0,0,0,0,0,0,0,0","20,20,20,20,20,20,20,20","10,10,10,10,10,10,10,10","20,20,20,20,20,20,20,20","20,20,20,20,20,20,20,20","20,20,20,20,20,20,20,20","1,1,1,1,1,1,1,1","1348,76,89,73,1283,59,39,23","11.463565589576753,-5.603876844204876,20.800842160670424,7.3151656374680165,22.13327994285884,22.189432805119626,24.046100476919015,10.444683524221478","-8.210349597074238,13.55672465362456,15.556292795984003,51.200893276668964,1.0948057011720493,7.3891702516476006,-14.300105502831414,28.480568078336734","0","0"
"87","86","text","0","155","1269428","0-0","","","","","","","","","","","","","","","","","","","","","","","","","","","","","","","","","","","","",""
"","","plant-game","0","156","1275590","0-0","","200","190","1","CORN CROP","Left","200","190","1","NETTLE WEED","experimental","65","1","190","1","CORN CROP","190","1","NETTLE WEED","20","20","10","20","0","20","20","20","10","20","0","20","1","3115","-22.25889198734759","2.707450153763582","0","0"
"459","86","text","0","157","1276149","0-0","","","","","","","","","","","","","","","","","","","","","","","","","","","","","","","","","","","","",""
"","","plant-game","0","158","1288874","0-0","","200","180","1","CORN CROP","Left","200","120","8","THISTLE WEED","experimental","66","1,2,3,4,5,6,7,8","180,130,160.51617509872673,187.23883904681932,209.5841341308835,209.39846537953846,197.527777052951,213.0421832800829","1,7,6,5,4,3,2,1","CORN CROP,WHEAT CROP,WHEAT CROP,WHEAT CROP,WHEAT CROP,WHEAT CROP,WHEAT CROP,WHEAT CROP","120,131.18000656198683,142.78288026496756,140.49051159399363,165.0208137977334,203.1934508904344,201.64642890459095,229.49436418986988","8,7,6,5,4,3,2,1","THISTLE WEED,THISTLE WEED,THISTLE WEED,THISTLE WEED,THISTLE WEED,THISTLE WEED,THISTLE WEED,THISTLE WEED","20,20,20,20,20,20,20,20","20,20,20,20,20,20,20,20","10,10,10,10,10,10,10,10","20,20,20,20,20,20,20,20","0,0,0,0,0,0,0,0","20,20,20,20,20,20,20,20","20,20,20,20,20,20,20,20","20,20,20,20,20,20,20,20","10,10,10,10,10,10,10,10","20,20,20,20,20,20,20,20","0,0,0,0,0,0,0,0","20,20,20,20,20,20,20,20","0,0,0,0,0,1,1,1","3145,3186,49,62,84,690,285,705","-2.9725311318418726,30.51617509872674,26.7226639480926,22.345295084064205,-0.18566875134503746,-11.87068832658747,15.514406227131909,-24.986622834270825","11.18000656198683,11.602873702980727,-2.292368670973932,24.530302203739765,38.17263709270099,-1.5470219858434606,27.847935285278925,15.237708602838179","0","0"
"67","86","text","0","159","1289062","0-0","","","","","","","","","","","","","","","","","","","","","","","","","","","","","","","","","","","","",""
"","","plant-game","0","160","1296447","0-0","","200","160","2","WHEAT CROP","Left","200","120","1","THISTLE WEED","experimental","67","1,2","160,182.33458312057974","2,1","WHEAT CROP,WHEAT CROP","120,190","1,1","THISTLE WEED,NETTLE WEED","20,20","20,20","10,10","20,20","0,0","20,20","20,20","20,20","10,10","20,20","0,0","20,20","0,1","1257,1730","22.33458312057975,-32.65735391076155","39.65709894225955,12.378746376628074","0","0"
"85","86","text","0","161","1296642","0-0","","","","","","","","","","","","","","","","","","","","","","","","","","","","","","","","","","","","",""
"","","plant-game","0","162","1304659","0-0","","200","120","2","CORN CROP","Left","200","120","8","THISTLE WEED","experimental","68","1,2,3,4,5,6,7,8","120,132.6279002297516,140,148.2289460293752,164.89631608789543,158.0655374262649,165.44162849215468,193.82446344833494","2,1,6,5,4,3,2,1","CORN CROP,CORN CROP,WHEAT CROP,WHEAT CROP,WHEAT CROP,WHEAT CROP,WHEAT CROP,WHEAT CROP","120,148.89127580223027,196.86412449672042,242.1937263297043,271.46732691206165,315.1884372600248,339.3160016034836,336.74375767076117","8,7,6,5,4,3,2,1","THISTLE WEED,THISTLE WEED,THISTLE WEED,THISTLE WEED,THISTLE WEED,THISTLE WEED,THISTLE WEED,THISTLE WEED","20,20,20,20,20,20,20,20","20,20,20,20,20,20,20,20","10,10,10,10,10,10,10,10","20,20,20,20,20,20,20,20","0,0,0,0,0,0,0,0","20,20,20,20,20,20,20,20","20,20,20,20,20,20,20,20","20,20,20,20,20,20,20,20","10,10,10,10,10,10,10,10","20,20,20,20,20,20,20,20","0,0,0,0,0,0,0,0","20,20,20,20,20,20,20,20","0,0,0,0,0,0,0,0","882,73,2179,68,80,75,78,107","12.627900229751589,18.452768880545985,8.22894602937521,16.667370058520223,-6.830778661630514,7.376091065889781,28.382834956180247,26.15735556583829","28.89127580223027,47.97284869449017,45.32960183298387,29.27360058235737,43.72111034796315,24.127564343458804,-2.5722439327224365,47.6000018123789","0","0"
"99","86","text","0","163","1304858","0-0","","","","","","","","","","","","","","","","","","","","","","","","","","","","","","","","","","","","",""
"","","plant-game","0","164","1314787","0-0","","200","190","8","WHEAT CROP","Right","200","180","8","THISTLE WEED","experimental","69","1,2,3,4,5,6,7,8","180,204.2032143969587,229.32379311869857,215.47461610344763,225.57776821274186,194.77604677088374,190.35755019967434,211.413260513004","8,7,6,5,4,3,2,1","THISTLE WEED,THISTLE WEED,THISTLE WEED,THISTLE WEED,THISTLE WEED,THISTLE WEED,THISTLE WEED,THISTLE WEED","190,203.4718575136399,199.95037998756834,215.07606497633884,235.05778635403644,247.32461447015237,224.09696018401013,258.78453796764813","8,7,6,5,4,3,2,1","WHEAT CROP,WHEAT CROP,WHEAT CROP,WHEAT CROP,WHEAT CROP,WHEAT CROP,WHEAT CROP,WHEAT CROP","0,0,0,0,0,0,0,0","20,20,20,20,20,20,20,20","10,10,10,10,10,10,10,10","20,20,20,20,20,20,20,20","20,20,20,20,20,20,20,20","20,20,20,20,20,20,20,20","0,0,0,0,0,0,0,0","20,20,20,20,20,20,20,20","10,10,10,10,10,10,10,10","20,20,20,20,20,20,20,20","20,20,20,20,20,20,20,20","20,20,20,20,20,20,20,20","1,0,0,0,0,0,1,0","1792,2238,100,520,306,455,558,386","24.203214396958725,25.120578721739847,-13.849177015250934,10.103152109294221,-30.801721441858113,-4.418496571209399,21.05571031332967,17.035662025656805","13.4718575136399,-3.521477526071548,15.125684988770494,19.981721377697607,12.266828116115924,-23.227654286142233,34.68757778363803,-39.05202499426984","0","0"
"483","86","text","0","165","1315430","0-0","","","","","","","","","","","","","","","","","","","","","","","","","","","","","","","","","","","","",""
"","","plant-game","0","166","1326769","0-0","","200","190","8","WHEAT CROP","Right","200","120","2","NETTLE WEED","experimental","70","1,2,3,4,5,6,7,8","120,164.04450806543036,140,190.1654738611693,208.04408046583185,216.96993206914104,239.66840968993105,241.45262719275638","2,1,6,5,4,3,2,1","NETTLE WEED,NETTLE WEED,THISTLE WEED,THISTLE WEED,THISTLE WEED,THISTLE WEED,THISTLE WEED,THISTLE WEED","190,175.3165091472742,184.90428028987293,167.2025162235649,176.42114366550493,189.58714432161776,211.50594634777292,194.9997472118973","8,7,6,5,4,3,2,1","WHEAT CROP,WHEAT CROP,WHEAT CROP,WHEAT CROP,WHEAT CROP,WHEAT CROP,WHEAT CROP,WHEAT CROP","0,0,0,0,0,0,0,0","20,20,20,20,20,20,20,20","10,10,10,10,10,10,10,10","20,20,20,20,20,20,20,20","20,20,20,20,20,20,20,20","20,20,20,20,20,20,20,20","0,0,0,0,0,0,0,0","20,20,20,20,20,20,20,20","10,10,10,10,10,10,10,10","20,20,20,20,20,20,20,20","20,20,20,20,20,20,20,20","20,20,20,20,20,20,20,20","1,1,1,1,0,1,0,1","2005,89,1249,43,1541,870,884,434","44.044508065430364,6.202900892805134,50.1654738611693,17.878606604662565,8.925851603309185,22.698477620790023,1.7842175028253247,-15.450752263413989","-14.68349085272581,9.587771142598749,-17.701764066308016,9.218627441940024,13.166000656112814,21.918802026155163,-16.506199135875626,31.98819451642506","0","0"
"145","86","text","0","167","1327043","0-0","","","","","","","","","","","","","","","","","","","","","","","","","","","","","","","","","","","","",""
"","","plant-game","0","168","1333194","0-0","","200","180","1","WHEAT CROP","Right","200","180","4","NETTLE WEED","experimental","71","1,2,3,4","180,207.31589668853573,226.15027819660645,272.31941616595094","4,3,2,1","NETTLE WEED,NETTLE WEED,NETTLE WEED,NETTLE WEED","180,170,190.9532599792454,221.27221152943784","1,3,2,1","WHEAT CROP,CORN CROP,CORN CROP,CORN CROP","0,0,0,0","20,20,20,20","10,10,10,10","20,20,20,20","20,20,20,20","20,20,20,20","0,0,0,0","20,20,20,20","10,10,10,10","20,20,20,20","20,20,20,20","20,20,20,20","1,1,1,1","668,775,65,57","27.315896688535737,18.83438150807072,46.169137969344476,14.655533768706128","23.4222523934934,20.95325997924538,30.31895155019245,3.2212956503656294","0","0"
"491","86","text","0","169","1333795","0-0","","","","","","","","","","","","","","","","","","","","","","","","","","","","","","","","","","","","",""
"","","plant-game","0","170","1346583","0-0","","200","180","4","CORN CROP","Right","200","120","8","NETTLE WEED","experimental","72","1,2,3,4,5,6,7,8","120,133.64259543659983,130.2082590977058,164.1222733312427,145.33765237709812,159.49070599940262,168.24321837667833,154.5477721576068","8,7,6,5,4,3,2,1","NETTLE WEED,NETTLE WEED,NETTLE WEED,NETTLE WEED,NETTLE WEED,NETTLE WEED,NETTLE WEED,NETTLE WEED","180,240.20104893649528,255.66230936759553,298.1309181005358,160,172.1386580527885,215.43748967883468,261.9146170232403","4,3,2,1,4,3,2,1","CORN CROP,CORN CROP,CORN CROP,CORN CROP,WHEAT CROP,WHEAT CROP,WHEAT CROP,WHEAT CROP","0,0,0,0,0,0,0,0","20,20,20,20,20,20,20,20","10,10,10,10,10,10,10,10","20,20,20,20,20,20,20,20","20,20,20,20,20,20,20,20","20,20,20,20,20,20,20,20","0,0,0,0,0,0,0,0","20,20,20,20,20,20,20,20","10,10,10,10,10,10,10,10","20,20,20,20,20,20,20,20","20,20,20,20,20,20,20,20","20,20,20,20,20,20,20,20","1,1,1,0,1,1,1,1","1702,326,507,2620,1836,93,627,995","13.64259543659982,-3.4343363388940347,33.91401423353689,-18.784620954144565,14.153053622304496,8.7525123772757,-13.695446219071542,34.320447224101656","60.2010489364953,15.461260431100236,42.468608732940254,17.762621463486507,12.138658052788495,43.29883162604619,46.47712734440561,1.697377773084309","0","0"
"425","86","text","0","171","1347130","0-0","","","","","","","","","","","","","","","","","","","","","","","","","","","","","","","","","","","","",""
"","","plant-game","0","172","1355628","0-0","","200","160","2","CORN CROP","Left","200","180","4","THISTLE WEED","experimental","73","1,2,3,4","160,196.56913543742587,180,183.13184992540442","2,1,2,1","CORN CROP,CORN CROP,WHEAT CROP,WHEAT CROP","180,216.07537674901857,225.13362542295482,272.1809673161781","4,3,2,1","THISTLE WEED,THISTLE WEED,THISTLE WEED,THISTLE WEED","20,20,20,20","20,20,20,20","10,10,10,10","20,20,20,20","0,0,0,0","20,20,20,20","20,20,20,20","20,20,20,20","10,10,10,10","20,20,20,20","0,0,0,0","20,20,20,20","0,0,0,0","1890,1362,1520,86","36.56913543742586,40.82376586462188,3.13184992540441,14.587580498972411","36.07537674901859,9.058248673936253,47.047341893223305,2.5850621197194243","0","0"
"515","86","text","0","173","1356263","0-0","","","","","","","","","","","","","","","","","","","","","","","","","","","","","","","","","","","","",""
"","","plant-game","0","174","1368553","0-0","","200","190","8","CORN CROP","Left","200","160","1","THISTLE WEED","experimental","74","1,2,3,4,5,6,7,8","190,196.4867462171016,212.13755035634642,230.54169265971987,271.5772048772342,271.24483648240647,281.4630934943345,302.89255152598474","8,7,6,5,4,3,2,1","CORN CROP,CORN CROP,CORN CROP,CORN CROP,CORN CROP,CORN CROP,CORN CROP,CORN CROP","160,130,142.91480538324987,174.17279872535747,196.57323083912934,242.28762535564414,252.45111611464125,226.67276567860023","1,7,6,5,4,3,2,1","THISTLE WEED,NETTLE WEED,NETTLE WEED,NETTLE WEED,NETTLE WEED,NETTLE WEED,NETTLE WEED,NETTLE WEED","20,20,20,20,20,20,20,20","20,20,20,20,20,20,20,20","10,10,10,10,10,10,10,10","20,20,20,20,20,20,20,20","0,0,0,0,0,0,0,0","20,20,20,20,20,20,20,20","20,20,20,20,20,20,20,20","20,20,20,20,20,20,20,20","10,10,10,10,10,10,10,10","20,20,20,20,20,20,20,20","0,0,0,0,0,0,0,0","20,20,20,20,20,20,20,20","0,0,0,0,0,0,1,1","1874,2186,557,355,291,393,730,48","6.486746217101588,15.650804139244837,18.404142303373444,41.03551221751434,-0.33236839482772496,10.218257011928028,21.429458031650274,-25.689083496325125","63.9548251550671,12.914805383249863,31.257993342107593,22.40043211377187,45.71439451651479,10.163490758997115,-25.77835043604101,34.58915072745465","0","0"
"670","86","text","0","175","1369383","0-0","","","","","","","","","","","","","","","","","","","","","","","","","","","","","","","","","","","","",""
"","","plant-game","0","176","1378571","0-0","","200","190","4","CORN CROP","Left","200","190","2","NETTLE WEED","experimental","75","1,2,3,4","190,226.74153483065402,220.46180452576772,240.71324389686097","4,3,2,1","CORN CROP,CORN CROP,CORN CROP,CORN CROP","190,202.23579076653522,180,213.20605526357002","2,1,2,1","NETTLE WEED,NETTLE WEED,THISTLE WEED,THISTLE WEED","20,20,20,20","20,20,20,20","10,10,10,10","20,20,20,20","0,0,0,0","20,20,20,20","20,20,20,20","20,20,20,20","10,10,10,10","20,20,20,20","0,0,0,0","20,20,20,20","0,1,1,1","1484,1192,2196,47","36.741534830654004,-6.279730304886305,20.251439371093262,15.846375807458205","12.235790766535205,-3.155128050107399,33.206055263570036,-25.399978786514655","0","0"
"294","86","text","0","177","1378935","0-0","","","","","","","","","","","","","","","","","","","","","","","","","","","","","","","","","","","","",""
"","","plant-game","0","178","1385522","0-0","","200","160","4","WHEAT CROP","Right","200","160","4","THISTLE WEED","experimental","76","1,2,3,4","160,176.63252633672985,227.30320220669972,213.33456032648263","4,3,2,1","THISTLE WEED,THISTLE WEED,THISTLE WEED,THISTLE WEED","160,190.30835608428606,201.93587565120896,215.10499346318065","4,3,2,1","WHEAT CROP,WHEAT CROP,WHEAT CROP,WHEAT CROP","0,0,0,0","20,20,20,20","10,10,10,10","20,20,20,20","20,20,20,20","20,20,20,20","0,0,0,0","20,20,20,20","10,10,10,10","20,20,20,20","20,20,20,20","20,20,20,20","1,1,0,0","1555,811,1179,96","16.63252633672986,50.670675869969884,-13.968641880217085,0.8165033304652057","30.30835608428605,11.627519566922905,13.169117811971677,-16.990164033385025","0","0"
"478","86","text","0","179","1386124","0-0","","","","","","","","","","","","","","","","","","","","","","","","","","","","","","","","","","","","",""
"","","plant-game","0","180","1394380","0-0","","200","190","1","WHEAT CROP","Right","200","180","4","THISTLE WEED","experimental","77","1,2,3,4","180,167.9380325725251,158.61213894340224,186.88400192650985","4,3,2,1","THISTLE WEED,THISTLE WEED,THISTLE WEED,THISTLE WEED","190,170,215.59529284967013,240.71928634963535","1,3,2,1","WHEAT CROP,CORN CROP,CORN CROP,CORN CROP","0,0,0,0","20,20,20,20","10,10,10,10","20,20,20,20","20,20,20,20","20,20,20,20","0,0,0,0","20,20,20,20","10,10,10,10","20,20,20,20","20,20,20,20","20,20,20,20","0,1,1,0","1566,2369,75,933","-12.061967427474903,-9.325893629122849,28.271862983107617,-0.3703914702390638","32.44546341432285,45.59529284967012,25.12399349996523,10.731275946342382","0","0"
"469","86","text","0","181","1394949","0-0","","","","","","","","","","","","","","","","","","","","","","","","","","","","","","","","","","","","",""
"","","plant-game","0","182","1398514","0-0","","200","160","2","WHEAT CROP","Left","200","180","2","THISTLE WEED","experimental","78","1,2","160,186.32881552629425","2,1","WHEAT CROP,WHEAT CROP","180,205.97182401587568","2,1","THISTLE WEED,THISTLE WEED","20,20","20,20","10,10","20,20","0,0","20,20","20,20","20,20","10,10","20,20","0,0","20,20","0,0","1105,54","26.328815526294264,-9.01570793729848","25.971824015875676,31.007691344747386","0","0"
"586","86","text","0","183","1399210","0-0","","","","","","","","","","","","","","","","","","","","","","","","","","","","","","","","","","","","",""
"","","plant-game","0","184","1405608","0-0","","200","190","1","CORN CROP","Left","200","120","1","NETTLE WEED","experimental","79","1","190","1","CORN CROP","120","1","NETTLE WEED","20","20","10","20","0","20","20","20","10","20","0","20","1","2365","-6.4398017232531535","-4.264651179707393","0","0"
"475","86","text","0","185","1406213","0-0","","","","","","","","","","","","","","","","","","","","","","","","","","","","","","","","","","","","",""
"","","plant-game","0","186","1416637","0-0","","200","180","4","WHEAT CROP","Right","200","120","1","THISTLE WEED","experimental","80","1,2,3,4","120,170,172.5728396180247,161.25357345638744","1,3,2,1","THISTLE WEED,NETTLE WEED,NETTLE WEED,NETTLE WEED","180,227.83683185566923,232.73819110179633,253.2336290862247","4,3,2,1","WHEAT CROP,WHEAT CROP,WHEAT CROP,WHEAT CROP","0,0,0,0","20,20,20,20","10,10,10,10","20,20,20,20","20,20,20,20","20,20,20,20","0,0,0,0","20,20,20,20","10,10,10,10","20,20,20,20","20,20,20,20","20,20,20,20","1,0,1,1","2617,3445,413,507","20.143792994485626,2.572839618024681,-11.319266161637252,29.703575775147016","47.83683185566922,4.9013592461271,20.495437984428364,13.23545376340833","0","0"
"208","86","text","0","187","1416975","0-0","","","","","","","","","","","","","","","","","","","","","","","","","","","","","","","","","","","","",""
"","","plant-game","0","188","1424779","0-0","","200","160","2","WHEAT CROP","Left","200","160","4","NETTLE WEED","experimental","81","1,2,3,4","160,213.03530274238256,180,209.43160522358664","2,1,2,1","WHEAT CROP,WHEAT CROP,CORN CROP,CORN CROP","160,173.34125542146603,168.43066337584864,184.49164428235787","4,3,2,1","NETTLE WEED,NETTLE WEED,NETTLE WEED,NETTLE WEED","20,20,20,20","20,20,20,20","10,10,10,10","20,20,20,20","0,0,0,0","20,20,20,20","20,20,20,20","20,20,20,20","10,10,10,10","20,20,20,20","0,0,0,0","20,20,20,20","0,0,0,0","1982,85,2455,47","53.03530274238254,26.149299454040648,29.43160522358665,-24.36220301119335","13.341255421466041,-4.910592045617403,16.060980906509222,50.706670040339354","0","0"
"466","86","text","0","189","1425355","0-0","","","","","","","","","","","","","","","","","","","","","","","","","","","","","","","","","","","","",""
"","","plant-game","0","190","1433493","0-0","","200","190","1","WHEAT CROP","Right","200","120","4","NETTLE WEED","experimental","82","1,2,3,4","120,138.9478496558448,167.65701359926214,188.34773369242947","4,3,2,1","NETTLE WEED,NETTLE WEED,NETTLE WEED,NETTLE WEED","190,170,176.18519214815944,170.70691898959277","1,3,2,1","WHEAT CROP,CORN CROP,CORN CROP,CORN CROP","0,0,0,0","20,20,20,20","10,10,10,10","20,20,20,20","20,20,20,20","20,20,20,20","0,0,0,0","20,20,20,20","10,10,10,10","20,20,20,20","20,20,20,20","20,20,20,20","1,1,1,1","2194,2358,50,44","18.947849655844795,28.70916394341734,20.690720093167343,31.310204442642494","40.03472948092494,6.185192148159446,-5.478273158566672,27.45268148802664","0","0"
"70","86","text","0","191","1433663","0-0","","","","","","","","","","","","","","","","","","","","","","","","","","","","","","","","","","","","",""
