"rt","key_press","trial_type","trial_index","trial_index_global","time_elapsed","internal_chunk_id","responses","experimental_goal_height","experimental_start_height","experimental_weeks_total","experimental_crop_type","experimental_crop_side","fixed_goal_height","fixed_start_height","fixed_weeks_total","fixed_crop_type","trial_kind","trial_number","stage","left_current_height","left_weeks_remaining","left_crop_type","right_current_height","right_weeks_remaining","right_crop_type","mean_left_growth_given_left","sd_left_growth_given_left","mean_left_growth_given_middle","sd_left_growth_given_middle","mean_left_growth_given_right","sd_left_growth_given_right","mean_right_growth_given_left","sd_right_growth_given_left","mean_right_growth_given_middle","sd_right_growth_given_middle","mean_right_growth_given_right","sd_right_growth_given_right","response","response_time","left_growth","right_growth","other_key_pressed","mouse_clicked"
"3348354","87","text","0","0","3348434","0-0","","","","","","","","","","","","","","","","","","","","","","","","","","","","","","","","","","","","",""
"125279","","survey-text","0","1","3474723","0-0","{""Q0"":""24""}","","","","","","","","","","","","","","","","","","","","","","","","","","","","","","","","","","","",""
"36543","86","text","0","2","36637","0-0","","","","","","","","","","","","","","","","","","","","","","","","","","","","","","","","","","","","",""
"","","plant-game","0","3","104201","0-0","","200","120","8","CORN CROP","Left","200","120","8","THISTLE WEED","practice","1","1,2,3,4,5,6,7,8","120,157.39067896056827,180.47998525827896,225.61682933544577,238.28228468794023,224.58933599888144,205.1079517511405,221.93274834092028","8,7,6,5,4,3,2,1","CORN CROP,CORN CROP,CORN CROP,CORN CROP,CORN CROP,CORN CROP,CORN CROP,CORN CROP","120,124.07247336717255,153.98825902411403,195.6579092949196,206.49557918922542,190.85891077321168,207.14194578309645,216.04390597802418","8,7,6,5,4,3,2,1","THISTLE WEED,THISTLE WEED,THISTLE WEED,THISTLE WEED,THISTLE WEED,THISTLE WEED,THISTLE WEED,THISTLE WEED","20,20,20,20,20,20,20,20","20,20,20,20,20,20,20,20","10,10,10,10,10,10,10,10","20,20,20,20,20,20,20,20","0,0,0,0,0,0,0,0","20,20,20,20,20,20,20,20","20,20,20,20,20,20,20,20","20,20,20,20,20,20,20,20","10,10,10,10,10,10,10,10","20,20,20,20,20,20,20,20","0,0,0,0,0,0,0,0","20,20,20,20,20,20,20,20","0,0,0,0,1,1,1,0","7868,2572,3851,2261,6470,1903,3927,3228","37.39067896056825,23.089306297710685,45.13684407716681,12.665455352494464,-13.692948689058799,-19.481384247740937,16.824796589779794,26.7014894219042","4.072473367172552,29.915785656941477,41.669650270805576,10.837669894305836,-15.63666841601374,16.28303500988478,8.901960194927746,-3.242334707533363","0","0"
"1609","86","text","0","4","105888","0-0","","","","","","","","","","","","","","","","","","","","","","","","","","","","","","","","","","","","",""
"","","plant-game","0","5","142352","0-0","","200","160","4","WHEAT CROP","Right","200","160","4","THISTLE WEED","practice","2","1,2,3,4","160,182.137071204867,184.22063940297826,178.57536304125352","4,3,2,1","THISTLE WEED,THISTLE WEED,THISTLE WEED,THISTLE WEED","160,182.8742894036892,193.3547748009549,218.4286866718959","4,3,2,1","WHEAT CROP,WHEAT CROP,WHEAT CROP,WHEAT CROP","0,0,0,0","20,20,20,20","10,10,10,10","20,20,20,20","20,20,20,20","20,20,20,20","0,0,0,0","20,20,20,20","10,10,10,10","20,20,20,20","20,20,20,20","20,20,20,20","1,1,1,0","3387,3620,4558,3604","22.137071204867,2.0835681981112657,-5.645276361724754,-15.353282566171103","22.874289403689204,10.480485397265717,25.07391187094099,17.278972190782987","0","0"
"1100","86","text","0","6","143532","0-0","","","","","","","","","","","","","","","","","","","","","","","","","","","","","","","","","","","","",""
"","","plant-game","0","7","168019","0-0","","200","180","2","CORN CROP","Left","200","180","2","NETTLE WEED","practice","3","1,2","180,206.51407476713246","2,1","CORN CROP,CORN CROP","180,183.06002104867696","2,1","NETTLE WEED,NETTLE WEED","20,20","20,20","10,10","20,20","0,0","20,20","20,20","20,20","10,10","20,20","0,0","20,20","0,1","1994,4161","26.514074767132467,19.128086507159704","3.0600210486769726,20.128784666243476","0","0"
"1357","86","text","0","8","169466","0-0","","","","","","","","","","","","","","","","","","","","","","","","","","","","","","","","","","","","",""
"","","plant-game","0","9","193774","0-0","","200","190","1","WHEAT CROP","Left","200","190","1","NETTLE WEED","practice","4","1","190","1","WHEAT CROP","190","1","NETTLE WEED","20","20","10","20","0","20","20","20","10","20","0","20","1","1221","-20.547324088110592","-10.377840842952429","0","0"
"871","86","text","0","10","194707","0-0","","","","","","","","","","","","","","","","","","","","","","","","","","","","","","","","","","","","",""
"","","plant-game","0","11","224353","0-0","","200","120","8","WHEAT CROP","Left","200","160","8","NETTLE WEED","practice","5","1,2,3,4,5,6,7,8","120,95.50148773882188,62.98919852351777,84.51747950652192,79.721295109772,59.36308112961171,94.40280891225805,121.31153017660489","8,7,6,5,4,3,2,1","WHEAT CROP,WHEAT CROP,WHEAT CROP,WHEAT CROP,WHEAT CROP,WHEAT CROP,WHEAT CROP,WHEAT CROP","160,167.87556422378893,159.9696526911081,195.9081730355332,208.06218482188552,219.3382499643733,235.3940682710773,243.9626905267037","8,7,6,5,4,3,2,1","NETTLE WEED,NETTLE WEED,NETTLE WEED,NETTLE WEED,NETTLE WEED,NETTLE WEED,NETTLE WEED,NETTLE WEED","20,20,20,20,20,20,20,20","20,20,20,20,20,20,20,20","10,10,10,10,10,10,10,10","20,20,20,20,20,20,20,20","0,0,0,0,0,0,0,0","20,20,20,20,20,20,20,20","20,20,20,20,20,20,20,20","20,20,20,20,20,20,20,20","10,10,10,10,10,10,10,10","20,20,20,20,20,20,20,20","0,0,0,0,0,0,0,0","20,20,20,20,20,20,20,20","1,1,0,1,1,0,0,0","6211,3301,5775,1123,725,1144,263,107","-24.49851226117812,-32.51228921530411,21.528280983004155,-4.796184396749915,-20.358213980160293,35.03972778264634,26.908721264346838,14.217749330908877","7.875564223788931,-7.905911532680813,35.9385203444251,12.154011786352319,11.276065142487761,16.05581830670399,8.568622255626433,18.40686261949214","0","0"
"659","86","text","0","12","225072","0-0","","","","","","","","","","","","","","","","","","","","","","","","","","","","","","","","","","","","",""
"","","plant-game","0","13","248269","0-0","","200","180","4","CORN CROP","Right","200","160","4","NETTLE WEED","practice","6","1,2,3,4","160,183.67321308814797,207.55743475762566,167.15474036113494","4,3,2,1","NETTLE WEED,NETTLE WEED,NETTLE WEED,NETTLE WEED","180,181.520217584743,212.98181089461616,221.67396457376014","4,3,2,1","CORN CROP,CORN CROP,CORN CROP,CORN CROP","0,0,0,0","20,20,20,20","10,10,10,10","20,20,20,20","20,20,20,20","20,20,20,20","0,0,0,0","20,20,20,20","10,10,10,10","20,20,20,20","20,20,20,20","20,20,20,20","1,1,0,0","3858,3064,4446,2367","23.673213088147968,23.88422166947767,-40.40269439649072,-13.199607420394972","1.520217584742987,31.461593309873173,8.692153679143992,-15.705205910302062","0","0"
"827","86","text","0","14","249176","0-0","","","","","","","","","","","","","","","","","","","","","","","","","","","","","","","","","","","","",""
"","","plant-game","0","15","266027","0-0","","200","180","2","CORN CROP","Right","200","190","2","NETTLE WEED","practice","7","1,2","190,221.4012213551236","2,1","NETTLE WEED,NETTLE WEED","180,217.69156461724393","2,1","CORN CROP,CORN CROP","0,0","20,20","10,10","20,20","20,20","20,20","0,0","20,20","10,10","20,20","20,20","20,20","1,0","3958,2705","31.401221355123596,-12.15975737720276","37.691564617243934,-22.118778472818782","0","0"
"1153","86","text","0","16","267260","0-0","","","","","","","","","","","","","","","","","","","","","","","","","","","","","","","","","","","","",""
"","","plant-game","0","17","307903","0-0","","200","120","4","CORN CROP","Right","200","120","8","NETTLE WEED","practice","8","1,2,3,4,5,6,7,8","120,134.03605596387965,147.27901737129685,161.89381260188617,193.00455608773063,199.26988162174678,190.72402255504713,176.63636251430705","8,7,6,5,4,3,2,1","NETTLE WEED,NETTLE WEED,NETTLE WEED,NETTLE WEED,NETTLE WEED,NETTLE WEED,NETTLE WEED,NETTLE WEED","120,104.25227352180724,106.06151535886343,127.50866872777203,160,176.9542258965784,196.17419960817557,238.32069955777138","4,3,2,1,4,3,2,1","CORN CROP,CORN CROP,CORN CROP,CORN CROP,WHEAT CROP,WHEAT CROP,WHEAT CROP,WHEAT CROP","0,0,0,0,0,0,0,0","20,20,20,20,20,20,20,20","10,10,10,10,10,10,10,10","20,20,20,20,20,20,20,20","20,20,20,20,20,20,20,20","20,20,20,20,20,20,20,20","0,0,0,0,0,0,0,0","20,20,20,20,20,20,20,20","10,10,10,10,10,10,10,10","20,20,20,20,20,20,20,20","20,20,20,20,20,20,20,20","20,20,20,20,20,20,20,20","1,1,1,1,1,1,1,0","629,408,2231,602,4993,1137,1014,2765","14.036055963879638,13.242961407417187,14.614795230589312,31.110743485844477,6.265325534016153,-8.545859066699645,-14.087660040740076,-56.90880842721012","-15.74772647819276,1.809241837056188,21.447153368908598,15.877471908949564,16.95422589657841,19.219973711597156,42.14649994959581,23.30229741987838","0","0"
"991","86","text","0","18","308974","0-0","","","","","","","","","","","","","","","","","","","","","","","","","","","","","","","","","","","","",""
"","","plant-game","0","19","334801","0-0","","200","160","4","CORN CROP","Left","200","160","2","THISTLE WEED","practice","9","1,2,3,4","160,186.32441575132526,198.76931530719378,217.55938287631295","4,3,2,1","CORN CROP,CORN CROP,CORN CROP,CORN CROP","160,182.70452333732476,180,208.79900220111244","2,1,2,1","THISTLE WEED,THISTLE WEED,NETTLE WEED,NETTLE WEED","20,20,20,20","20,20,20,20","10,10,10,10","20,20,20,20","0,0,0,0","20,20,20,20","20,20,20,20","20,20,20,20","10,10,10,10","20,20,20,20","0,0,0,0","20,20,20,20","0,0,0,1","4317,622,411,949","26.32441575132527,12.444899555868503,18.790067569119174,-5.58466981337305","22.704523337324755,5.1146159171416485,28.799002201112454,-2.36758327099095","0","0"
"724","86","text","0","20","335605","0-0","","","","","","","","","","","","","","","","","","","","","","","","","","","","","","","","","","","","",""
"","","plant-game","0","21","364016","0-0","","200","180","2","WHEAT CROP","Left","200","180","1","THISTLE WEED","practice","10","1,2","180,201.3460057254768","2,1","WHEAT CROP,WHEAT CROP","180,190","1,1","THISTLE WEED,NETTLE WEED","20,20","20,20","10,10","20,20","0,0","20,20","20,20","20,20","10,10","20,20","0,0","20,20","0,1","6458,4043","21.346005725476804,-16.455870010208866","-0.8866227209400215,1.9240063834180452","0","0"
"820","86","text","0","22","364945","0-0","","","","","","","","","","","","","","","","","","","","","","","","","","","","","","","","","","","","",""
"","","plant-game","0","23","398278","0-0","","200","120","8","CORN CROP","Left","200","160","4","THISTLE WEED","practice","11","1,2,3,4,5,6,7,8","120,114.0464703646843,116.39939460842635,109.77906693599272,141.3721315165,164.06426949361222,182.55070590741744,228.84850740236203","8,7,6,5,4,3,2,1","CORN CROP,CORN CROP,CORN CROP,CORN CROP,CORN CROP,CORN CROP,CORN CROP,CORN CROP","160,177.51458807543602,167.2830602404626,166.20643500083344,160,179.252353534409,219.71700516251934,267.15552080179407","4,3,2,1,4,3,2,1","THISTLE WEED,THISTLE WEED,THISTLE WEED,THISTLE WEED,NETTLE WEED,NETTLE WEED,NETTLE WEED,NETTLE WEED","20,20,20,20,20,20,20,20","20,20,20,20,20,20,20,20","10,10,10,10,10,10,10,10","20,20,20,20,20,20,20,20","0,0,0,0,0,0,0,0","20,20,20,20,20,20,20,20","20,20,20,20,20,20,20,20","20,20,20,20,20,20,20,20","10,10,10,10,10,10,10,10","20,20,20,20,20,20,20,20","0,0,0,0,0,0,0,0","20,20,20,20,20,20,20,20","0,0,0,0,0,0,0,1","467,1459,380,640,927,1268,2422,1516","-5.953529635315704,2.3529242437420486,-6.620327672433639,31.593064580507274,22.692137977112232,18.486436413805222,46.29780149494461,47.78561256169394","17.514588075436027,-10.23152783497343,-1.076625239629145,79.60320070401764,19.252353534408996,40.46465162811035,47.43851563927471,-26.466610279340742","0","0"
"1227","86","text","0","24","399605","0-0","","","","","","","","","","","","","","","","","","","","","","","","","","","","","","","","","","","","",""
"","","plant-game","0","25","482046","0-0","","200","180","2","CORN CROP","Left","200","160","4","THISTLE WEED","practice","12","1,2,3,4","180,200.77838030276686,180,161.3857904700438","2,1,2,1","CORN CROP,CORN CROP,WHEAT CROP,WHEAT CROP","160,217.93810491182475,228.64614609995425,237.04372103731257","4,3,2,1","THISTLE WEED,THISTLE WEED,THISTLE WEED,THISTLE WEED","20,20,20,20","20,20,20,20","10,10,10,10","20,20,20,20","0,0,0,0","20,20,20,20","20,20,20,20","20,20,20,20","10,10,10,10","20,20,20,20","0,0,0,0","20,20,20,20","0,1,1,1","20101,2021,663,2301","20.77838030276687,3.22414621721522,-18.6142095299562,-49.84567224061486","57.93810491182476,10.70804118812951,8.397574937358304,51.54696886685269","0","0"
"6704","86","text","0","26","488828","0-0","","","","","","","","","","","","","","","","","","","","","","","","","","","","","","","","","","","","",""
"5039","86","text","0","27","494969","0-0","","","","","","","","","","","","","","","","","","","","","","","","","","","","","","","","","","","","",""
"","","plant-game","0","28","600057","0-0","","200","190","4","WHEAT CROP","Left","200","120","8","THISTLE WEED","experimental","1","1,2,3,4,5,6,7,8","190,216.25819324505488,204.28865953648645,213.83627062234598,160,178.6652243771578,185.22421385088649,179.0969778320304","4,3,2,1,4,3,2,1","WHEAT CROP,WHEAT CROP,WHEAT CROP,WHEAT CROP,CORN CROP,CORN CROP,CORN CROP,CORN CROP","120,179.8130712843415,171.12389863098107,164.43220969199797,182.7057839813834,225.59702791979055,287.1863138059308,294.09616018148404","8,7,6,5,4,3,2,1","THISTLE WEED,THISTLE WEED,THISTLE WEED,THISTLE WEED,THISTLE WEED,THISTLE WEED,THISTLE WEED,THISTLE WEED","20,20,20,20,20,20,20,20","20,20,20,20,20,20,20,20","10,10,10,10,10,10,10,10","20,20,20,20,20,20,20,20","0,0,0,0,0,0,0,0","20,20,20,20,20,20,20,20","20,20,20,20,20,20,20,20","20,20,20,20,20,20,20,20","10,10,10,10,10,10,10,10","20,20,20,20,20,20,20,20","0,0,0,0,0,0,0,0","20,20,20,20,20,20,20,20","0,1,1,1,0,0,0,0","83874,1723,2180,1192,4262,1233,737,908","26.258193245054887,-11.969533708568434,9.547611085859526,3.2427232413019063,18.665224377157806,6.558989473728685,-6.127236018856074,5.900013219212795","59.81307128434149,-8.68917265336042,-6.6916889389831,18.273574289385436,42.89124393840715,61.58928588614026,6.909846375553201,23.528426999194032","0","0"
"990","86","text","0","29","601137","0-0","","","","","","","","","","","","","","","","","","","","","","","","","","","","","","","","","","","","",""
"","","plant-game","0","30","784928","0-0","","200","160","1","CORN CROP","Left","200","190","8","NETTLE WEED","experimental","2","1,2,3,4,5,6,7,8","160,130,149.4562199860124,184.164511748733,170.82324249739483,173.66979673937936,155.91490094148935,178.6271866588862","1,7,6,5,4,3,2,1","CORN CROP,WHEAT CROP,WHEAT CROP,WHEAT CROP,WHEAT CROP,WHEAT CROP,WHEAT CROP,WHEAT CROP","190,208.52350264095597,187.2809382859777,166.3104543716964,165.25011131765416,172.58626647171934,173.54851806923597,168.35624600449398","8,7,6,5,4,3,2,1","NETTLE WEED,NETTLE WEED,NETTLE WEED,NETTLE WEED,NETTLE WEED,NETTLE WEED,NETTLE WEED,NETTLE WEED","20,20,20,20,20,20,20,20","20,20,20,20,20,20,20,20","10,10,10,10,10,10,10,10","20,20,20,20,20,20,20,20","0,0,0,0,0,0,0,0","20,20,20,20,20,20,20,20","20,20,20,20,20,20,20,20","20,20,20,20,20,20,20,20","10,10,10,10,10,10,10,10","20,20,20,20,20,20,20,20","0,0,0,0,0,0,0,0","20,20,20,20,20,20,20,20","0,1,1,1,0,1,0,0","106017,3810,705,831,1813,2694,618,467","22.984562349067232,19.456219986012407,34.70829176272058,-13.341269251338158,2.8465542419845207,-17.75489579789,22.712285717396846,15.392161139537397","18.52350264095598,-21.242564354978256,-20.970483914281285,-1.0603430540422427,7.336155154065182,0.9622515975166189,-5.192272064741985,18.415262438239903","0","0"
"993","86","text","0","31","786014","0-0","","","","","","","","","","","","","","","","","","","","","","","","","","","","","","","","","","","","",""
"","","plant-game","0","32","809567","0-0","","200","190","2","CORN CROP","Right","200","120","1","NETTLE WEED","experimental","3","1,2","120,190","1,1","NETTLE WEED,THISTLE WEED","190,230.91060042190736","2,1","CORN CROP,CORN CROP","0,0","20,20","10,10","20,20","20,20","20,20","0,0","20,20","10,10","20,20","20,20","20,20","1,0","7911,3773","21.493446715126893,17.849673664561823","40.910600421907354,7.282794463449578","0","0"
"910","86","text","0","33","810557","0-0","","","","","","","","","","","","","","","","","","","","","","","","","","","","","","","","","","","","",""
"","","plant-game","0","34","829351","0-0","","200","190","8","WHEAT CROP","Right","200","120","2","THISTLE WEED","experimental","4","1,2,3,4,5,6,7,8","120,99.42114361556771,140,152.18382749212233,155.12137738010392,135.1822205236224,153.78336409710795,179.7913671469028","2,1,6,5,4,3,2,1","THISTLE WEED,THISTLE WEED,NETTLE WEED,NETTLE WEED,NETTLE WEED,NETTLE WEED,NETTLE WEED,NETTLE WEED","190,220.53780209283877,202.07654125059116,212.8813472786864,221.73982201527994,204.76450730188537,192.78791556112205,179.44350782313296","8,7,6,5,4,3,2,1","WHEAT CROP,WHEAT CROP,WHEAT CROP,WHEAT CROP,WHEAT CROP,WHEAT CROP,WHEAT CROP,WHEAT CROP","0,0,0,0,0,0,0,0","20,20,20,20,20,20,20,20","10,10,10,10,10,10,10,10","20,20,20,20,20,20,20,20","20,20,20,20,20,20,20,20","20,20,20,20,20,20,20,20","0,0,0,0,0,0,0,0","20,20,20,20,20,20,20,20","10,10,10,10,10,10,10,10","20,20,20,20,20,20,20,20","20,20,20,20,20,20,20,20","20,20,20,20,20,20,20,20","0,0,0,0,0,0,0,1","3957,858,2905,469,497,493,463,1234","-20.578856384432285,21.70042048543614,12.18382749212232,2.9375498879815765,-19.939156856481542,18.601143573485555,26.008003049794834,61.622258798180155","30.537802092838774,-18.461260842247597,10.804806028095244,8.858474736593536,-16.975314713394564,-11.976591740763325,-13.344407737989073,21.3482340256819","0","0"
"1477","86","text","0","35","830918","0-0","","","","","","","","","","","","","","","","","","","","","","","","","","","","","","","","","","","","",""
"","","plant-game","0","36","933648","0-0","","200","190","8","WHEAT CROP","Left","200","190","1","THISTLE WEED","experimental","5","1,2,3,4,5,6,7,8","190,197.9066280891647,225.14324325017876,210.57233577626775,198.08583019940093,223.3640644280187,220.49578162626077,214.3891363724188","8,7,6,5,4,3,2,1","WHEAT CROP,WHEAT CROP,WHEAT CROP,WHEAT CROP,WHEAT CROP,WHEAT CROP,WHEAT CROP,WHEAT CROP","190,130,127.14504745903758,113.20155462778177,118.99581806477259,146.01803494593702,161.01478278915164,157.1270910472773","1,7,6,5,4,3,2,1","THISTLE WEED,NETTLE WEED,NETTLE WEED,NETTLE WEED,NETTLE WEED,NETTLE WEED,NETTLE WEED,NETTLE WEED","20,20,20,20,20,20,20,20","20,20,20,20,20,20,20,20","10,10,10,10,10,10,10,10","20,20,20,20,20,20,20,20","0,0,0,0,0,0,0,0","20,20,20,20,20,20,20,20","20,20,20,20,20,20,20,20","20,20,20,20,20,20,20,20","10,10,10,10,10,10,10,10","20,20,20,20,20,20,20,20","0,0,0,0,0,0,0,0","20,20,20,20,20,20,20,20","1,1,1,1,0,1,1,0","87151,2497,743,357,1063,1234,556,630","7.906628089164722,27.236615161014036,-14.570907473911006,-12.486505576866819,25.278234228617762,-2.8682828017579505,-6.10664525384197,-4.214705360603087","-3.6352995898730556,-2.854952540962411,-13.943492831255803,5.794263436990816,27.022216881164415,14.996747843214608,-3.8876917418743426,45.01318038213886","0","0"
"744","86","text","0","37","934509","0-0","","","","","","","","","","","","","","","","","","","","","","","","","","","","","","","","","","","","",""
"","","plant-game","0","38","948086","0-0","","200","190","1","CORN CROP","Left","200","180","4","THISTLE WEED","experimental","6","1,2,3,4","190,170,157.20116499133016,143.64226935547293","1,3,2,1","CORN CROP,WHEAT CROP,WHEAT CROP,WHEAT CROP","180,188.81704990390685,192.14344804362116,175.23152275242273","4,3,2,1","THISTLE WEED,THISTLE WEED,THISTLE WEED,THISTLE WEED","20,20,20,20","20,20,20,20","10,10,10,10","20,20,20,20","0,0,0,0","20,20,20,20","20,20,20,20","20,20,20,20","10,10,10,10","20,20,20,20","0,0,0,0","20,20,20,20","0,1,1,0","3002,2774,684,1136","26.679033663290586,-12.798835008669851,-13.558895635857215,15.20487515063034","8.817049903906858,3.326398139714305,-16.911925291198436,39.48901666079831","0","0"
"866","86","text","0","39","949048","0-0","","","","","","","","","","","","","","","","","","","","","","","","","","","","","","","","","","","","",""
"","","plant-game","0","40","976751","0-0","","200","160","2","CORN CROP","Right","200","190","8","NETTLE WEED","experimental","7","1,2,3,4,5,6,7,8","190,177.39452856479772,166.03141706136708,152.16069258809864,173.50823784881155,190.6389988280655,202.76296412600576,220.7222822244062","8,7,6,5,4,3,2,1","NETTLE WEED,NETTLE WEED,NETTLE WEED,NETTLE WEED,NETTLE WEED,NETTLE WEED,NETTLE WEED,NETTLE WEED","160,186.32400708613028,140,135.41434520284145,170.95401836533694,230.94490684241217,194.293256822334,166.60141135953393","2,1,6,5,4,3,2,1","CORN CROP,CORN CROP,WHEAT CROP,WHEAT CROP,WHEAT CROP,WHEAT CROP,WHEAT CROP,WHEAT CROP","0,0,0,0,0,0,0,0","20,20,20,20,20,20,20,20","10,10,10,10,10,10,10,10","20,20,20,20,20,20,20,20","20,20,20,20,20,20,20,20","20,20,20,20,20,20,20,20","0,0,0,0,0,0,0,0","20,20,20,20,20,20,20,20","10,10,10,10,10,10,10,10","20,20,20,20,20,20,20,20","20,20,20,20,20,20,20,20","20,20,20,20,20,20,20,20","0,1,1,1,1,0,0,1","3254,4505,3971,1493,912,3168,3067,450","-12.605471435202261,-11.363111503430652,-13.870724473268432,21.3475452607129,17.13076097925396,12.123965297940263,17.959318098400438,15.982009050218588","26.324007086130283,7.665141490109757,-4.585654797158568,35.539673162495504,59.99088847707523,-36.65165002007816,-27.691845462800085,41.59178864939395","0","0"
"632","86","text","0","41","977459","0-0","","","","","","","","","","","","","","","","","","","","","","","","","","","","","","","","","","","","",""
"","","plant-game","0","42","989579","0-0","","200","180","4","WHEAT CROP","Right","200","120","1","THISTLE WEED","experimental","8","1,2,3,4","120,170,164.00548144842207,164.30879054771083","1,3,2,1","THISTLE WEED,NETTLE WEED,NETTLE WEED,NETTLE WEED","180,190.3841515256634,203.09156859719945,201.98247969856124","4,3,2,1","WHEAT CROP,WHEAT CROP,WHEAT CROP,WHEAT CROP","0,0,0,0","20,20,20,20","10,10,10,10","20,20,20,20","20,20,20,20","20,20,20,20","0,0,0,0","20,20,20,20","10,10,10,10","20,20,20,20","20,20,20,20","20,20,20,20","1,1,1,1","2210,1226,1293,1096","8.448588712776683,-5.9945185515779364,0.3033090992887679,5.2873317311716335","10.38415152566342,12.707417071536028,-1.1090888986382268,15.143603654671967","0","0"
"834","86","text","0","43","990493","0-0","","","","","","","","","","","","","","","","","","","","","","","","","","","","","","","","","","","","",""
"","","plant-game","0","44","1006590","0-0","","200","120","4","WHEAT CROP","Left","200","180","1","NETTLE WEED","experimental","9","1,2,3,4","120,119.61889949700627,124.44631123676143,155.8204927153437","4,3,2,1","WHEAT CROP,WHEAT CROP,WHEAT CROP,WHEAT CROP","180,170,213.30313102211113,243.22770434262378","1,3,2,1","NETTLE WEED,THISTLE WEED,THISTLE WEED,THISTLE WEED","20,20,20,20","20,20,20,20","10,10,10,10","20,20,20,20","0,0,0,0","20,20,20,20","20,20,20,20","20,20,20,20","10,10,10,10","20,20,20,20","0,0,0,0","20,20,20,20","0,0,0,1","4722,1255,1483,1064","-0.38110050299372844,4.827411739755156,31.374181478582262,28.647659816578713","13.708056319586627,43.30313102211114,29.924573320512664,4.065410642964204","0","0"
"12862","86","text","0","45","1019545","0-0","","","","","","","","","","","","","","","","","","","","","","","","","","","","","","","","","","","","",""
"","","plant-game","0","46","1087248","0-0","","200","180","1","CORN CROP","Right","200","180","8","THISTLE WEED","experimental","10","1,2,3,4,5,6,7,8","180,218.99811585583285,209.36219911286491,257.54481772765195,275.82582505247893,281.3165833068167,290.9389589943591,307.8865964231199","8,7,6,5,4,3,2,1","THISTLE WEED,THISTLE WEED,THISTLE WEED,THISTLE WEED,THISTLE WEED,THISTLE WEED,THISTLE WEED,THISTLE WEED","180,130,140.31248972970627,167.87151083883407,174.8310406011095,200.51061346681485,194.4009532446638,218.07621652925633","1,7,6,5,4,3,2,1","CORN CROP,WHEAT CROP,WHEAT CROP,WHEAT CROP,WHEAT CROP,WHEAT CROP,WHEAT CROP,WHEAT CROP","0,0,0,0,0,0,0,0","20,20,20,20,20,20,20,20","10,10,10,10,10,10,10,10","20,20,20,20,20,20,20,20","20,20,20,20,20,20,20,20","20,20,20,20,20,20,20,20","0,0,0,0,0,0,0,0","20,20,20,20,20,20,20,20","10,10,10,10,10,10,10,10","20,20,20,20,20,20,20,20","20,20,20,20,20,20,20,20","20,20,20,20,20,20,20,20","1,1,1,1,1,0,0,0","52766,2010,435,487,672,1407,148,131","38.99811585583286,-9.635916742967932,48.18261861478703,18.28100732482698,5.490758254337768,9.622375687542386,16.9476374287608,42.17105115972302","12.487883843861876,10.312489729706263,27.559021109127812,6.959529762275418,25.67957286570536,-6.109660222151022,23.67526328459251,-3.6104260865257305","0","0"
"647","86","text","0","47","1087985","0-0","","","","","","","","","","","","","","","","","","","","","","","","","","","","","","","","","","","","",""
"","","plant-game","0","48","1097064","0-0","","200","180","4","WHEAT CROP","Left","200","190","4","NETTLE WEED","experimental","11","1,2,3,4","180,173.3125661773067,184.12552489537364,189.1540543160118","4,3,2,1","WHEAT CROP,WHEAT CROP,WHEAT CROP,WHEAT CROP","190,210.75152748582758,190.02700032679343,214.43537241965055","4,3,2,1","NETTLE WEED,NETTLE WEED,NETTLE WEED,NETTLE WEED","20,20,20,20","20,20,20,20","10,10,10,10","20,20,20,20","0,0,0,0","20,20,20,20","20,20,20,20","20,20,20,20","10,10,10,10","20,20,20,20","0,0,0,0","20,20,20,20","0,1,1,1","3340,1801,312,576","-6.6874338226933006,10.812958718066927,5.028529420638166,-17.72528855499147","20.751527485827577,-20.724527159034146,24.408372092857128,-18.877754630002933","0","0"
"816","86","text","0","49","1097980","0-0","","","","","","","","","","","","","","","","","","","","","","","","","","","","","","","","","","","","",""
"","","plant-game","0","50","1102870","0-0","","200","160","2","WHEAT CROP","Right","200","180","2","NETTLE WEED","experimental","12","1,2","180,181.90005570947548","2,1","NETTLE WEED,NETTLE WEED","160,178.66739485569818","2,1","WHEAT CROP,WHEAT CROP","0,0","20,20","10,10","20,20","20,20","20,20","0,0","20,20","10,10","20,20","20,20","20,20","1,1","1137,280","1.9000557094754882,4.800518158376805","18.667394855698166,7.959188686888961","0","0"
"734","86","text","0","51","1103734","0-0","","","","","","","","","","","","","","","","","","","","","","","","","","","","","","","","","","","","",""
"","","plant-game","0","52","1122152","0-0","","200","160","8","WHEAT CROP","Right","200","160","4","THISTLE WEED","experimental","13","1,2,3,4,5,6,7,8","160,162.6760763662495,151.85277987765568,148.87177757500817,160,156.16144954911866,142.43942981673675,115.7035091933023","4,3,2,1,4,3,2,1","THISTLE WEED,THISTLE WEED,THISTLE WEED,THISTLE WEED,NETTLE WEED,NETTLE WEED,NETTLE WEED,NETTLE WEED","160,191.3487766323985,246.60977662172917,256.8389904542725,287.5206902395029,284.79319805836906,309.3493290400918,329.928301213292","8,7,6,5,4,3,2,1","WHEAT CROP,WHEAT CROP,WHEAT CROP,WHEAT CROP,WHEAT CROP,WHEAT CROP,WHEAT CROP,WHEAT CROP","0,0,0,0,0,0,0,0","20,20,20,20,20,20,20,20","10,10,10,10,10,10,10,10","20,20,20,20,20,20,20,20","20,20,20,20,20,20,20,20","20,20,20,20,20,20,20,20","0,0,0,0,0,0,0,0","20,20,20,20,20,20,20,20","10,10,10,10,10,10,10,10","20,20,20,20,20,20,20,20","20,20,20,20,20,20,20,20","20,20,20,20,20,20,20,20","1,1,1,1,0,0,0,0","3355,632,2208,546,4394,331,291,333","2.676076366249518,-10.823296488593812,-2.981002302647507,5.818459679490077,-3.838550450881333,-13.722019732381913,-26.735920623434453,0.24123644289399027","31.348776632398515,55.26099998933066,10.22921383254336,30.681699785230407,-2.7274921811338877,24.556130981722717,20.578972173200206,9.599513784539937","0","0"
"950","86","text","0","53","1123192","0-0","","","","","","","","","","","","","","","","","","","","","","","","","","","","","","","","","","","","",""
"","","plant-game","0","54","1183019","0-0","","200","180","1","CORN CROP","Right","200","160","1","THISTLE WEED","experimental","14","1","160","1","THISTLE WEED","180","1","CORN CROP","0","20","10","20","20","20","0","20","10","20","20","20","1","42220","42.912889227027016","25.33173400250838","0","0"
"821","86","text","0","55","1183933","0-0","","","","","","","","","","","","","","","","","","","","","","","","","","","","","","","","","","","","",""
"","","plant-game","0","56","1196776","0-0","","200","120","8","CORN CROP","Left","200","190","1","THISTLE WEED","experimental","15","1,2,3,4,5,6,7,8","120,123.35847080404233,152.68427754296607,182.14084196209762,195.25650929478257,266.2978417260116,245.26574983905414,219.5605648224604","8,7,6,5,4,3,2,1","CORN CROP,CORN CROP,CORN CROP,CORN CROP,CORN CROP,CORN CROP,CORN CROP,CORN CROP","190,130,128.92409024441292,139.67672890598726,148.11525318730935,198.78780033360687,213.15163975966095,213.90545009613396","1,7,6,5,4,3,2,1","THISTLE WEED,NETTLE WEED,NETTLE WEED,NETTLE WEED,NETTLE WEED,NETTLE WEED,NETTLE WEED,NETTLE WEED","20,20,20,20,20,20,20,20","20,20,20,20,20,20,20,20","10,10,10,10,10,10,10,10","20,20,20,20,20,20,20,20","0,0,0,0,0,0,0,0","20,20,20,20,20,20,20,20","20,20,20,20,20,20,20,20","20,20,20,20,20,20,20,20","10,10,10,10,10,10,10,10","20,20,20,20,20,20,20,20","0,0,0,0,0,0,0,0","20,20,20,20,20,20,20,20","0,0,0,0,0,1,1,1","2219,832,280,277,322,851,535,413","3.3584708040423337,29.32580673892376,29.456564419131556,13.115667332684955,71.041332431229,-21.032091886957446,-25.705185016593735,-14.69506168059924","-9.956457119396585,-1.0759097555870696,10.752638661574325,8.438524281322096,50.67254714629752,14.363839426054097,0.7538103364730097,-45.25490297487848","0","0"
"737","86","text","0","57","1197623","0-0","","","","","","","","","","","","","","","","","","","","","","","","","","","","","","","","","","","","",""
"","","plant-game","0","58","1207170","0-0","","200","180","8","WHEAT CROP","Right","200","120","1","NETTLE WEED","experimental","16","1,2,3,4,5,6,7,8","120,130,184.75639597452397,221.80247083432317,199.49006957699203,170.87328131284247,145.65530254875827,166.82278988199857","1,7,6,5,4,3,2,1","NETTLE WEED,THISTLE WEED,THISTLE WEED,THISTLE WEED,THISTLE WEED,THISTLE WEED,THISTLE WEED,THISTLE WEED","180,202.21637329343642,207.53066505516585,150.716680286492,183.1511848101284,165.6208823669815,152.61796223864485,144.36530301954326","8,7,6,5,4,3,2,1","WHEAT CROP,WHEAT CROP,WHEAT CROP,WHEAT CROP,WHEAT CROP,WHEAT CROP,WHEAT CROP,WHEAT CROP","0,0,0,0,0,0,0,0","20,20,20,20,20,20,20,20","10,10,10,10,10,10,10,10","20,20,20,20,20,20,20,20","20,20,20,20,20,20,20,20","20,20,20,20,20,20,20,20","0,0,0,0,0,0,0,0","20,20,20,20,20,20,20,20","10,10,10,10,10,10,10,10","20,20,20,20,20,20,20,20","20,20,20,20,20,20,20,20","20,20,20,20,20,20,20,20","1,1,0,0,0,0,0,1","1320,1076,656,566,84,115,100,137","5.956765103005562,54.75639597452397,37.0460748597992,-22.312401257331132,-28.61678826414955,-25.217978764084194,21.16748733324031,22.270284762922266","22.216373293436423,5.3142917617294305,-56.81398476867387,32.434504523636406,-17.530302443146905,-13.002920128336665,-8.252659219101593,27.176482016733573","0","0"
"1366","86","text","0","59","1208636","0-0","","","","","","","","","","","","","","","","","","","","","","","","","","","","","","","","","","","","",""
"","","plant-game","0","60","1224459","0-0","","200","120","1","WHEAT CROP","Right","200","160","8","THISTLE WEED","experimental","17","1,2,3,4,5,6,7,8","160,187.9786346585672,218.69488983897912,243.66760855081282,285.6455661039088,270.1245969229735,300.1932578666007,306.0402046651789","8,7,6,5,4,3,2,1","THISTLE WEED,THISTLE WEED,THISTLE WEED,THISTLE WEED,THISTLE WEED,THISTLE WEED,THISTLE WEED,THISTLE WEED","120,130,152.36346730508498,223.40388797672495,249.68053030729715,285.5716866120955,302.675682030815,327.9984193101285","1,7,6,5,4,3,2,1","WHEAT CROP,CORN CROP,CORN CROP,CORN CROP,CORN CROP,CORN CROP,CORN CROP,CORN CROP","0,0,0,0,0,0,0,0","20,20,20,20,20,20,20,20","10,10,10,10,10,10,10,10","20,20,20,20,20,20,20,20","20,20,20,20,20,20,20,20","20,20,20,20,20,20,20,20","0,0,0,0,0,0,0,0","20,20,20,20,20,20,20,20","10,10,10,10,10,10,10,10","20,20,20,20,20,20,20,20","20,20,20,20,20,20,20,20","20,20,20,20,20,20,20,20","1,1,1,1,1,1,1,1","2531,3937,770,698,413,367,117,96","27.978634658567177,30.71625518041194,24.972718711833704,41.97795755309599,-15.520969180935225,30.068660943627144,5.846946798578241,-0.42432673249452435","20.39449357260048,22.363467305084978,71.04042067163995,26.27664233057221,35.891156304798365,17.103995418719457,25.322737279313518,22.459653919641113","0","0"
"835","86","text","0","61","1225394","0-0","","","","","","","","","","","","","","","","","","","","","","","","","","","","","","","","","","","","",""
"","","plant-game","0","62","1233845","0-0","","200","180","4","WHEAT CROP","Left","200","160","4","NETTLE WEED","experimental","18","1,2,3,4","180,209.8312300743451,252.16909217348342,246.76461155958563","4,3,2,1","WHEAT CROP,WHEAT CROP,WHEAT CROP,WHEAT CROP","160,180.29351056781312,186.7632597286813,180.51123155513946","4,3,2,1","NETTLE WEED,NETTLE WEED,NETTLE WEED,NETTLE WEED","20,20,20,20","20,20,20,20","10,10,10,10","20,20,20,20","0,0,0,0","20,20,20,20","20,20,20,20","20,20,20,20","10,10,10,10","20,20,20,20","0,0,0,0","20,20,20,20","0,0,0,1","1360,800,500,2100","29.831230074345086,42.337862099138334,-5.404480613897796,-5.721799059430114","20.29351056781312,6.469749160868188,-6.252028173541852,-18.383601180080756","0","0"
"927","86","text","0","63","1234892","0-0","","","","","","","","","","","","","","","","","","","","","","","","","","","","","","","","","","","","",""
"","","plant-game","0","64","1245570","0-0","","200","180","1","WHEAT CROP","Left","200","120","8","NETTLE WEED","experimental","19","1,2,3,4,5,6,7,8","180,130,155.3216952558657,167.82196365234913,168.81245436189883,187.49547295206366,201.36802046587434,195.0869672661544","1,7,6,5,4,3,2,1","WHEAT CROP,CORN CROP,CORN CROP,CORN CROP,CORN CROP,CORN CROP,CORN CROP,CORN CROP","120,135.44918129595766,183.83234874072997,199.1971635608834,206.85147614537226,227.87840885292405,234.77737894614722,226.2858106874678","8,7,6,5,4,3,2,1","NETTLE WEED,NETTLE WEED,NETTLE WEED,NETTLE WEED,NETTLE WEED,NETTLE WEED,NETTLE WEED,NETTLE WEED","20,20,20,20,20,20,20,20","20,20,20,20,20,20,20,20","10,10,10,10,10,10,10,10","20,20,20,20,20,20,20,20","0,0,0,0,0,0,0,0","20,20,20,20,20,20,20,20","20,20,20,20,20,20,20,20","20,20,20,20,20,20,20,20","10,10,10,10,10,10,10,10","20,20,20,20,20,20,20,20","0,0,0,0,0,0,0,0","20,20,20,20,20,20,20,20","0,0,0,1,1,1,1,1","611,881,274,970,549,100,83,76","10.178969707190774,25.321695255865706,12.500268396483417,0.9904907095497171,18.683018590164835,13.872547513810684,-6.281053199719942,-12.573426713834824","15.449181295957644,48.383167444772326,15.364814820153434,7.65431258448886,21.0269327075518,6.898970093223179,-8.491568258679408,-36.71071083667387","0","0"
"931","86","text","0","65","1246542","0-0","","","","","","","","","","","","","","","","","","","","","","","","","","","","","","","","","","","","",""
"","","plant-game","0","66","1255208","0-0","","200","180","1","WHEAT CROP","Left","200","120","2","THISTLE WEED","experimental","20","1,2","180,190","1,1","WHEAT CROP,CORN CROP","120,123.87573325056005","2,1","THISTLE WEED,THISTLE WEED","20,20","20,20","10,10","20,20","0,0","20,20","20,20","20,20","10,10","20,20","0,0","20,20","0,0","713,1330","-8.98598626141527,31.462807080622376","3.875733250560053,23.744833276635323","0","0"
"700","86","text","0","67","1255978","0-0","","","","","","","","","","","","","","","","","","","","","","","","","","","","","","","","","","","","",""
"","","plant-game","0","68","1274198","0-0","","200","190","1","CORN CROP","Right","200","120","2","THISTLE WEED","experimental","21","1,2","120,177.42779373086324","2,1","THISTLE WEED,THISTLE WEED","190,190","1,1","CORN CROP,WHEAT CROP","0,0","20,20","10,10","20,20","20,20","20,20","0,0","20,20","10,10","20,20","20,20","20,20","1,1","2003,8527","57.42779373086324,12.42592730593978","-3.6215782548332207,24.004502499518487","0","0"
"870","86","text","0","69","1275168","0-0","","","","","","","","","","","","","","","","","","","","","","","","","","","","","","","","","","","","",""
"","","plant-game","0","70","1293602","0-0","","200","120","8","WHEAT CROP","Left","200","160","4","THISTLE WEED","experimental","22","1,2,3,4,5,6,7,8","120,136.47325135459928,160.41204643478565,186.10936786348452,206.45589332573323,200.77856932550333,189.98936757657762,229.85373589380626","8,7,6,5,4,3,2,1","WHEAT CROP,WHEAT CROP,WHEAT CROP,WHEAT CROP,WHEAT CROP,WHEAT CROP,WHEAT CROP,WHEAT CROP","160,219.683065524601,246.8036944053729,245.06293751106,160,148.02799259509234,143.29936057238234,191.20368050458654","4,3,2,1,4,3,2,1","THISTLE WEED,THISTLE WEED,THISTLE WEED,THISTLE WEED,NETTLE WEED,NETTLE WEED,NETTLE WEED,NETTLE WEED","20,20,20,20,20,20,20,20","20,20,20,20,20,20,20,20","10,10,10,10,10,10,10,10","20,20,20,20,20,20,20,20","0,0,0,0,0,0,0,0","20,20,20,20,20,20,20,20","20,20,20,20,20,20,20,20","20,20,20,20,20,20,20,20","10,10,10,10,10,10,10,10","20,20,20,20,20,20,20,20","0,0,0,0,0,0,0,0","20,20,20,20,20,20,20,20","0,1,1,1,1,1,0,1","2595,1765,363,333,759,2507,1051,1373","16.47325135459928,23.938795080186374,25.697321428698856,20.3465254622487,-5.677324000229895,-10.789201748925702,39.86436831722863,-31.00739295286466","59.683065524601005,27.120628880771914,-1.7407568943129148,-26.553140210849037,-11.97200740490767,-4.72863202270999,47.90431993220422,8.429427346269149","0","0"
"2038","86","text","0","71","1295760","0-0","","","","","","","","","","","","","","","","","","","","","","","","","","","","","","","","","","","","",""
"","","plant-game","0","72","1303235","0-0","","200","120","4","CORN CROP","Left","200","120","4","THISTLE WEED","experimental","23","1,2,3,4","120,125.82706579743405,144.93254166486827,109.73484592743833","4,3,2,1","CORN CROP,CORN CROP,CORN CROP,CORN CROP","120,112.35275888521983,110.32317547743585,110.68352262336956","4,3,2,1","THISTLE WEED,THISTLE WEED,THISTLE WEED,THISTLE WEED","20,20,20,20","20,20,20,20","10,10,10,10","20,20,20,20","0,0,0,0","20,20,20,20","20,20,20,20","20,20,20,20","10,10,10,10","20,20,20,20","0,0,0,0","20,20,20,20","0,0,0,0","1499,781,347,822","5.827065797434049,19.10547586743423,-35.197695737429946,74.41393626477311","-7.647241114780165,-2.0295834077839743,0.36034714593369443,18.630338033297576","0","0"
"820","86","text","0","73","1304135","0-0","","","","","","","","","","","","","","","","","","","","","","","","","","","","","","","","","","","","",""
"","","plant-game","0","74","1312962","0-0","","200","160","4","CORN CROP","Right","200","180","4","THISTLE WEED","experimental","24","1,2,3,4","180,190.87222080670313,193.18286738010397,205.84484238106722","4,3,2,1","THISTLE WEED,THISTLE WEED,THISTLE WEED,THISTLE WEED","160,202.54442539201773,176.5263188340134,204.48331557443106","4,3,2,1","CORN CROP,CORN CROP,CORN CROP,CORN CROP","0,0,0,0","20,20,20,20","10,10,10,10","20,20,20,20","20,20,20,20","20,20,20,20","0,0,0,0","20,20,20,20","10,10,10,10","20,20,20,20","20,20,20,20","20,20,20,20","1,1,1,1","1921,920,1689,778","10.872220806703135,2.310646573400831,12.661975000963245,16.008194184607316","42.54442539201772,-26.018106558004312,27.95699674041766,-18.66970525466651","0","0"
"657","86","text","0","75","1313725","0-0","","","","","","","","","","","","","","","","","","","","","","","","","","","","","","","","","","","","",""
"","","plant-game","0","76","1321412","0-0","","200","190","4","CORN CROP","Left","200","120","4","NETTLE WEED","experimental","25","1,2,3,4","190,176.9277170696303,220.9890350913934,191.96519524057499","4,3,2,1","CORN CROP,CORN CROP,CORN CROP,CORN CROP","120,139.99465695889592,186.88972188251142,181.00313279809032","4,3,2,1","NETTLE WEED,NETTLE WEED,NETTLE WEED,NETTLE WEED","20,20,20,20","20,20,20,20","10,10,10,10","20,20,20,20","0,0,0,0","20,20,20,20","20,20,20,20","20,20,20,20","10,10,10,10","20,20,20,20","0,0,0,0","20,20,20,20","0,0,1,0","1083,1542,854,496","-13.072282930369703,44.06131802176309,-29.023839850818398,-2.579566625645949","19.99465695889593,46.89506492361552,-5.886589084421096,-11.021283506760149","0","0"
"680","86","text","0","77","1322182","0-0","","","","","","","","","","","","","","","","","","","","","","","","","","","","","","","","","","","","",""
"","","plant-game","0","78","1330262","0-0","","200","120","1","CORN CROP","Left","200","180","2","THISTLE WEED","experimental","26","1,2","120,190","1,1","CORN CROP,WHEAT CROP","180,208.10772083384296","2,1","THISTLE WEED,THISTLE WEED","20,20","20,20","10,10","20,20","0,0","20,20","20,20","20,20","10,10","20,20","0,0","20,20","0,0","590,526","49.80354267178746,28.567570081213077","28.107720833842976,12.95847387343603","0","0"
"643","86","text","0","79","1331005","0-0","","","","","","","","","","","","","","","","","","","","","","","","","","","","","","","","","","","","",""
"","","plant-game","0","80","1341286","0-0","","200","160","4","WHEAT CROP","Right","200","190","1","THISTLE WEED","experimental","27","1,2,3,4","190,170,181.41986222706487,206.1835422648415","1,3,2,1","THISTLE WEED,NETTLE WEED,NETTLE WEED,NETTLE WEED","160,169.9970667482426,162.70116937431254,175.73120547004953","4,3,2,1","WHEAT CROP,WHEAT CROP,WHEAT CROP,WHEAT CROP","0,0,0,0","20,20,20,20","10,10,10,10","20,20,20,20","20,20,20,20","20,20,20,20","0,0,0,0","20,20,20,20","10,10,10,10","20,20,20,20","20,20,20,20","20,20,20,20","0,1,1,1","531,1261,1220,390","-5.233117407283004,11.419862227064877,24.763680037776624,11.35189632461256","9.99706674824258,-7.295897373930057,13.030036095736993,25.42913367892263","0","0"
"710","86","text","0","81","1342086","0-0","","","","","","","","","","","","","","","","","","","","","","","","","","","","","","","","","","","","",""
"","","plant-game","0","82","1355064","0-0","","200","160","8","CORN CROP","Right","200","120","4","NETTLE WEED","experimental","28","1,2,3,4,5,6,7,8","120,146.81840347720913,179.1522386746289,186.8172679382746,160,202.94815859413262,197.1916922078288,223.63320795876115","4,3,2,1,4,3,2,1","NETTLE WEED,NETTLE WEED,NETTLE WEED,NETTLE WEED,THISTLE WEED,THISTLE WEED,THISTLE WEED,THISTLE WEED","160,158.7213586108467,168.9132140328089,180.54939512930582,191.0854600085458,200.77825742131088,225.69871590618786,270.9694752003513","8,7,6,5,4,3,2,1","CORN CROP,CORN CROP,CORN CROP,CORN CROP,CORN CROP,CORN CROP,CORN CROP,CORN CROP","0,0,0,0,0,0,0,0","20,20,20,20,20,20,20,20","10,10,10,10,10,10,10,10","20,20,20,20,20,20,20,20","20,20,20,20,20,20,20,20","20,20,20,20,20,20,20,20","0,0,0,0,0,0,0,0","20,20,20,20,20,20,20,20","10,10,10,10,10,10,10,10","20,20,20,20,20,20,20,20","20,20,20,20,20,20,20,20","20,20,20,20,20,20,20,20","1,1,0,0,1,1,1,1","2241,522,920,550,1140,412,82,72","26.818403477209138,32.33383519741977,7.665029263645681,-17.299811131787745,42.94815859413263,-5.756466386303835,26.441515750932346,25.421379967248342","-1.2786413891533073,10.19185542196221,11.636181096496927,10.536064879239962,9.692797412765078,24.92045848487698,45.27075929416347,35.067161896737694","0","0"
"690","86","text","0","83","1355844","0-0","","","","","","","","","","","","","","","","","","","","","","","","","","","","","","","","","","","","",""
"","","plant-game","0","84","1361887","0-0","","200","160","4","WHEAT CROP","Right","200","120","4","NETTLE WEED","experimental","29","1,2,3,4","120,116.6452696402387,130.06247704235574,126.61249905980584","4,3,2,1","NETTLE WEED,NETTLE WEED,NETTLE WEED,NETTLE WEED","160,179.86942948713903,226.46351198701842,228.33986281992688","4,3,2,1","WHEAT CROP,WHEAT CROP,WHEAT CROP,WHEAT CROP","0,0,0,0","20,20,20,20","10,10,10,10","20,20,20,20","20,20,20,20","20,20,20,20","0,0,0,0","20,20,20,20","10,10,10,10","20,20,20,20","20,20,20,20","20,20,20,20","1,1,0,0","1134,354,1226,196","-3.354730359761298,13.417207402117029,-3.4499779825498997,-10.985933140977702","19.869429487139037,46.594082499879406,1.8763508329084608,0.5368507051680154","0","0"
"3361","86","text","0","85","1365368","0-0","","","","","","","","","","","","","","","","","","","","","","","","","","","","","","","","","","","","",""
"","","plant-game","0","86","1375770","0-0","","200","190","8","WHEAT CROP","Right","200","120","1","NETTLE WEED","experimental","30","1,2,3,4,5,6,7,8","120,130,113.11185470995446,171.55149567499262,148.45986565900523,147.81703115640312,192.13231867902533,197.09103995812418","1,7,6,5,4,3,2,1","NETTLE WEED,THISTLE WEED,THISTLE WEED,THISTLE WEED,THISTLE WEED,THISTLE WEED,THISTLE WEED,THISTLE WEED","190,195.85349433926731,259.5522759000443,236.20756421039033,219.22681152145017,239.40430433703267,231.02317440105725,241.75486928517054","8,7,6,5,4,3,2,1","WHEAT CROP,WHEAT CROP,WHEAT CROP,WHEAT CROP,WHEAT CROP,WHEAT CROP,WHEAT CROP,WHEAT CROP","0,0,0,0,0,0,0,0","20,20,20,20,20,20,20,20","10,10,10,10,10,10,10,10","20,20,20,20,20,20,20,20","20,20,20,20,20,20,20,20","20,20,20,20,20,20,20,20","0,0,0,0,0,0,0,0","20,20,20,20,20,20,20,20","10,10,10,10,10,10,10,10","20,20,20,20,20,20,20,20","20,20,20,20,20,20,20,20","20,20,20,20,20,20,20,20","1,1,1,0,0,0,0,0","1277,507,446,623,310,267,393,914","17.886456903681477,-16.88814529004555,58.439640965038166,-23.0916300159874,-0.6428345026020996,44.31528752262221,4.958721279098844,6.57643435937734","5.853494339267302,63.69878156077699,-23.34471168965399,-16.98075268894015,20.177492815582482,-8.381129935975423,10.731694884113292,25.80040336994061","0","0"
"1082","86","text","0","87","1376962","0-0","","","","","","","","","","","","","","","","","","","","","","","","","","","","","","","","","","","","",""
"","","plant-game","0","88","1384740","0-0","","200","190","2","WHEAT CROP","Right","200","190","1","THISTLE WEED","experimental","31","1,2","190,190","1,1","THISTLE WEED,NETTLE WEED","190,227.85443090397158","2,1","WHEAT CROP,WHEAT CROP","0,0","20,20","10,10","20,20","20,20","20,20","0,0","20,20","10,10","20,20","20,20","20,20","1,1","1302,937","2.616420326484704,-4.352604961233553","37.85443090397158,15.631109064068347","0","0"
"690","86","text","0","89","1385540","0-0","","","","","","","","","","","","","","","","","","","","","","","","","","","","","","","","","","","","",""
"","","plant-game","0","90","1392517","0-0","","200","160","1","CORN CROP","Right","200","180","2","THISTLE WEED","experimental","32","1,2","180,202.6377466314591","2,1","THISTLE WEED,THISTLE WEED","160,190","1,1","CORN CROP,WHEAT CROP","0,0","20,20","10,10","20,20","20,20","20,20","0,0","20,20","10,10","20,20","20,20","20,20","1,1","1067,816","22.637746631459088,-9.359790435524687","40.02691584719748,9.323458546216672","0","0"
"920","86","text","0","91","1393527","0-0","","","","","","","","","","","","","","","","","","","","","","","","","","","","","","","","","","","","",""
"","","plant-game","0","92","1403681","0-0","","200","120","8","WHEAT CROP","Right","200","120","2","THISTLE WEED","experimental","33","1,2,3,4,5,6,7,8","120,184.23254086011463,140,142.2179336747517,197.7123534974962,183.56989716434362,184.15575018916613,165.1668096715292","2,1,6,5,4,3,2,1","THISTLE WEED,THISTLE WEED,NETTLE WEED,NETTLE WEED,NETTLE WEED,NETTLE WEED,NETTLE WEED,NETTLE WEED","120,155.34631216593073,189.40078382344348,194.08532296001175,210.4135387681547,254.13117159866425,251.13706379172686,285.97063473251865","8,7,6,5,4,3,2,1","WHEAT CROP,WHEAT CROP,WHEAT CROP,WHEAT CROP,WHEAT CROP,WHEAT CROP,WHEAT CROP,WHEAT CROP","0,0,0,0,0,0,0,0","20,20,20,20,20,20,20,20","10,10,10,10,10,10,10,10","20,20,20,20,20,20,20,20","20,20,20,20,20,20,20,20","20,20,20,20,20,20,20,20","0,0,0,0,0,0,0,0","20,20,20,20,20,20,20,20","10,10,10,10,10,10,10,10","20,20,20,20,20,20,20,20","20,20,20,20,20,20,20,20","20,20,20,20,20,20,20,20","1,1,1,1,1,1,1,1","877,357,986,327,284,2181,458,359","64.23254086011464,41.451553792307045,2.2179336747516913,55.4944198227445,-14.142456333152587,0.5858530248225158,-18.988940517636934,-11.755784917591804","35.34631216593074,34.05447165751275,4.684539136568265,16.328215808142946,43.717632830509565,-2.9941078069374036,34.83357094079176,14.853562026111101","0","0"
"592","86","text","0","93","1404363","0-0","","","","","","","","","","","","","","","","","","","","","","","","","","","","","","","","","","","","",""
"","","plant-game","0","94","1416687","0-0","","200","190","2","CORN CROP","Left","200","160","8","THISTLE WEED","experimental","34","1,2,3,4,5,6,7,8","190,239.40691322140057,140,180.3741044874841,227.70356614771424,237.05756464659726,204.44527350287223,189.7447098247253","2,1,6,5,4,3,2,1","CORN CROP,CORN CROP,WHEAT CROP,WHEAT CROP,WHEAT CROP,WHEAT CROP,WHEAT CROP,WHEAT CROP","160,167.24929255017574,180.07522170263272,191.1402841556896,223.83515644195467,216.4412290576638,234.2239776783499,247.68442246981058","8,7,6,5,4,3,2,1","THISTLE WEED,THISTLE WEED,THISTLE WEED,THISTLE WEED,THISTLE WEED,THISTLE WEED,THISTLE WEED,THISTLE WEED","20,20,20,20,20,20,20,20","20,20,20,20,20,20,20,20","10,10,10,10,10,10,10,10","20,20,20,20,20,20,20,20","0,0,0,0,0,0,0,0","20,20,20,20,20,20,20,20","20,20,20,20,20,20,20,20","20,20,20,20,20,20,20,20","10,10,10,10,10,10,10,10","20,20,20,20,20,20,20,20","0,0,0,0,0,0,0,0","20,20,20,20,20,20,20,20","0,1,0,1,1,1,1,1","1056,1484,1140,1187,571,358,468,485","49.40691322140057,18.481703768066733,40.374104487484104,47.32946166023014,9.353998498883021,-32.61229114372502,-14.700563678146906,-21.05132499750085","7.249292550175747,12.82592915245698,11.065062453056902,32.69487228626505,-7.393927384290871,17.782748620686114,13.460444791460663,-28.504659132352703","0","0"
"1117","86","text","0","95","1417954","0-0","","","","","","","","","","","","","","","","","","","","","","","","","","","","","","","","","","","","",""
"","","plant-game","0","96","1426053","0-0","","200","160","2","WHEAT CROP","Right","200","160","1","THISTLE WEED","experimental","35","1,2","160,190","1,1","THISTLE WEED,NETTLE WEED","160,165.63559403129918","2,1","WHEAT CROP,WHEAT CROP","0,0","20,20","10,10","20,20","20,20","20,20","0,0","20,20","10,10","20,20","20,20","20,20","1,1","717,476","8.005437141779915,5.85131686993809","5.635594031299174,38.8492303788692","0","0"
"687","86","text","0","97","1426810","0-0","","","","","","","","","","","","","","","","","","","","","","","","","","","","","","","","","","","","",""
"","","plant-game","0","98","1434826","0-0","","200","160","4","WHEAT CROP","Right","200","190","2","THISTLE WEED","experimental","36","1,2,3,4","190,232.62905760795064,180,213.8395029706563","2,1,2,1","THISTLE WEED,THISTLE WEED,NETTLE WEED,NETTLE WEED","160,183.70279243526588,199.6627753087636,206.08594843926883","4,3,2,1","WHEAT CROP,WHEAT CROP,WHEAT CROP,WHEAT CROP","0,0,0,0","20,20,20,20","10,10,10,10","20,20,20,20","20,20,20,20","20,20,20,20","0,0,0,0","20,20,20,20","10,10,10,10","20,20,20,20","20,20,20,20","20,20,20,20","1,1,1,1","767,1448,790,886","42.62905760795064,18.902973611940645,33.8395029706563,68.63657243894986","23.70279243526587,15.959982873497722,6.423173130505226,56.12100113705823","0","0"
"650","86","text","0","99","1435626","0-0","","","","","","","","","","","","","","","","","","","","","","","","","","","","","","","","","","","","",""
"","","plant-game","0","100","1448296","0-0","","200","180","1","WHEAT CROP","Right","200","120","4","NETTLE WEED","experimental","37","1,2,3,4","120,138.2018793250043,168.9570790504081,207.45384922380876","4,3,2,1","NETTLE WEED,NETTLE WEED,NETTLE WEED,NETTLE WEED","180,170,165.2868615750042,168.19588145156575","1,3,2,1","WHEAT CROP,CORN CROP,CORN CROP,CORN CROP","0,0,0,0","20,20,20,20","10,10,10,10","20,20,20,20","20,20,20,20","20,20,20,20","0,0,0,0","20,20,20,20","10,10,10,10","20,20,20,20","20,20,20,20","20,20,20,20","1,1,1,1","1880,1782,1291,1882","18.201879325004317,30.75519972540379,38.49677017340065,41.376364757608","15.69434043261889,-4.713138424995812,2.909019876561562,84.22036065373999","0","0"
"79992","86","text","0","101","1528366","0-0","","","","","","","","","","","","","","","","","","","","","","","","","","","","","","","","","","","","",""
"","","plant-game","0","102","1570369","0-0","","200","120","2","CORN CROP","Right","200","120","2","NETTLE WEED","experimental","38","1,2","120,123.48401712416249","2,1","NETTLE WEED,NETTLE WEED","120,122.90717297777124","2,1","CORN CROP,CORN CROP","0,0","20,20","10,10","20,20","20,20","20,20","0,0","20,20","10,10","20,20","20,20","20,20","1,1","9850,327","3.484017124162488,16.87099405778274","2.9071729777712463,14.48630338792307","0","0"
"538","86","text","0","103","1571000","0-0","","","","","","","","","","","","","","","","","","","","","","","","","","","","","","","","","","","","",""
"","","plant-game","0","104","1577793","0-0","","200","190","1","CORN CROP","Left","200","190","2","NETTLE WEED","experimental","39","1,2","190,190","1,1","CORN CROP,WHEAT CROP","190,194.7311030458643","2,1","NETTLE WEED,NETTLE WEED","20,20","20,20","10,10","20,20","0,0","20,20","20,20","20,20","10,10","20,20","0,0","20,20","1,1","1180,640","-4.200712135289284,2.3388693386708175","4.731103045864293,-42.21600833402934","0","0"
"644","86","text","0","105","1578546","0-0","","","","","","","","","","","","","","","","","","","","","","","","","","","","","","","","","","","","",""
"","","plant-game","0","106","1583013","0-0","","200","190","1","CORN CROP","Right","200","160","1","NETTLE WEED","experimental","40","1","160","1","NETTLE WEED","190","1","CORN CROP","0","20","10","20","20","20","0","20","10","20","20","20","1","1298","26.45566166777342","31.861819614726592","0","0"
"875","86","text","0","107","1584009","0-0","","","","","","","","","","","","","","","","","","","","","","","","","","","","","","","","","","","","",""
"","","plant-game","0","108","1588212","0-0","","200","190","1","WHEAT CROP","Right","200","180","1","NETTLE WEED","experimental","41","1","180","1","NETTLE WEED","190","1","WHEAT CROP","0","20","10","20","20","20","0","20","10","20","20","20","1","950","37.63712488874703","68.02355751322409","0","0"
"1260","86","text","0","109","1589560","0-0","","","","","","","","","","","","","","","","","","","","","","","","","","","","","","","","","","","","",""
"","","plant-game","0","110","1602085","0-0","","200","160","4","CORN CROP","Right","200","160","8","NETTLE WEED","experimental","42","1,2,3,4,5,6,7,8","160,182.23278080822416,174.04197957343126,166.78690875404612,183.97363205779888,215.98635754726348,230.32593836120932,251.06711123276887","8,7,6,5,4,3,2,1","NETTLE WEED,NETTLE WEED,NETTLE WEED,NETTLE WEED,NETTLE WEED,NETTLE WEED,NETTLE WEED,NETTLE WEED","160,155.95176515483908,154.17768940279484,154.86707920161456,160,168.08674091742088,166.60487556479876,200.64549929170533","4,3,2,1,4,3,2,1","CORN CROP,CORN CROP,CORN CROP,CORN CROP,WHEAT CROP,WHEAT CROP,WHEAT CROP,WHEAT CROP","0,0,0,0,0,0,0,0","20,20,20,20,20,20,20,20","10,10,10,10,10,10,10,10","20,20,20,20,20,20,20,20","20,20,20,20,20,20,20,20","20,20,20,20,20,20,20,20","0,0,0,0,0,0,0,0","20,20,20,20,20,20,20,20","10,10,10,10,10,10,10,10","20,20,20,20,20,20,20,20","20,20,20,20,20,20,20,20","20,20,20,20,20,20,20,20","1,1,1,0,1,0,1,1","860,1164,822,554,751,1098,1683,309","22.23278080822417,-8.19080123479289,-7.255070819385153,17.186723303752768,32.01272548946459,14.339580813945851,20.741172871559527,-6.34868606488287","-4.048234845160913,-1.7740757520442472,0.6893897988197111,-0.18873483470384417,8.086740917420874,-1.481865352622124,34.04062372690659,34.48900232952756","0","0"
"789","86","text","0","111","1603024","0-0","","","","","","","","","","","","","","","","","","","","","","","","","","","","","","","","","","","","",""
"","","plant-game","0","112","1618321","0-0","","200","180","8","CORN CROP","Left","200","190","2","NETTLE WEED","experimental","43","1,2,3,4,5,6,7,8","180,220.44171699781415,191.4218844355554,224.55473943423698,235.68043150557588,249.98938484857194,258.5768048492419,255.5822119443756","8,7,6,5,4,3,2,1","CORN CROP,CORN CROP,CORN CROP,CORN CROP,CORN CROP,CORN CROP,CORN CROP,CORN CROP","190,220.27831675885048,140,132.51902836289312,127.30113729751102,164.44988433769498,192.86170906208272,230.2905188535311","2,1,6,5,4,3,2,1","NETTLE WEED,NETTLE WEED,THISTLE WEED,THISTLE WEED,THISTLE WEED,THISTLE WEED,THISTLE WEED,THISTLE WEED","20,20,20,20,20,20,20,20","20,20,20,20,20,20,20,20","10,10,10,10,10,10,10,10","20,20,20,20,20,20,20,20","0,0,0,0,0,0,0,0","20,20,20,20,20,20,20,20","20,20,20,20,20,20,20,20","20,20,20,20,20,20,20,20","10,10,10,10,10,10,10,10","20,20,20,20,20,20,20,20","0,0,0,0,0,0,0,0","20,20,20,20,20,20,20,20","0,1,0,0,0,0,0,1","3150,1288,1877,940,396,929,450,436","40.44171699781416,-29.01983256225875,33.13285499868158,11.125692071338914,14.308953342996075,8.587420000669962,-2.994592904866316,-21.577536687052955","30.278316758850472,-6.851889515976225,-7.480971637106876,-5.217891065382105,37.14874704018398,28.411824724387753,37.42880979144837,27.884291837656868","0","0"
"565","86","text","0","113","1618976","0-0","","","","","","","","","","","","","","","","","","","","","","","","","","","","","","","","","","","","",""
"","","plant-game","0","114","1629339","0-0","","200","120","2","CORN CROP","Left","200","120","8","THISTLE WEED","experimental","44","1,2,3,4,5,6,7,8","120,90.92897314594111,140,129.59956835394274,155.9913077009902,158.10310543516266,149.9466817391483,142.9694011712433","2,1,6,5,4,3,2,1","CORN CROP,CORN CROP,WHEAT CROP,WHEAT CROP,WHEAT CROP,WHEAT CROP,WHEAT CROP,WHEAT CROP","120,170.00959842388212,216.34958848601747,202.90970228586204,195.00709323400028,192.26567252591738,194.6882850987043,236.96240421315818","8,7,6,5,4,3,2,1","THISTLE WEED,THISTLE WEED,THISTLE WEED,THISTLE WEED,THISTLE WEED,THISTLE WEED,THISTLE WEED,THISTLE WEED","20,20,20,20,20,20,20,20","20,20,20,20,20,20,20,20","10,10,10,10,10,10,10,10","20,20,20,20,20,20,20,20","0,0,0,0,0,0,0,0","20,20,20,20,20,20,20,20","20,20,20,20,20,20,20,20","20,20,20,20,20,20,20,20","10,10,10,10,10,10,10,10","20,20,20,20,20,20,20,20","0,0,0,0,0,0,0,0","20,20,20,20,20,20,20,20","0,0,1,1,1,1,1,1","717,785,187,1582,452,334,294,800","-29.071026854058893,9.025677229301454,-10.400431646057244,26.39173934704745,2.1117977341724434,-8.156423696014357,-6.97728056790499,1.8154749752594415","50.009598423882125,46.33999006213534,-13.43988620015542,-7.902609051861748,-2.7414207080828987,2.4226125727869454,42.27411911445387,14.018161455429771","0","0"
"617","86","text","0","115","1630041","0-0","","","","","","","","","","","","","","","","","","","","","","","","","","","","","","","","","","","","",""
"","","plant-game","0","116","1647759","0-0","","200","120","2","CORN CROP","Right","200","180","8","THISTLE WEED","experimental","45","1,2,3,4,5,6,7,8","180,213.27095016418434,212.86430520365792,167.83650174506954,138.4399099322421,196.09394292417065,176.9874145091851,157.67426765041716","8,7,6,5,4,3,2,1","THISTLE WEED,THISTLE WEED,THISTLE WEED,THISTLE WEED,THISTLE WEED,THISTLE WEED,THISTLE WEED,THISTLE WEED","120,96.98228342008596,140,129.95015806146128,136.99611228109532,166.3679437994744,168.69884833905215,176.1514565235386","2,1,6,5,4,3,2,1","CORN CROP,CORN CROP,WHEAT CROP,WHEAT CROP,WHEAT CROP,WHEAT CROP,WHEAT CROP,WHEAT CROP","0,0,0,0,0,0,0,0","20,20,20,20,20,20,20,20","10,10,10,10,10,10,10,10","20,20,20,20,20,20,20,20","20,20,20,20,20,20,20,20","20,20,20,20,20,20,20,20","0,0,0,0,0,0,0,0","20,20,20,20,20,20,20,20","10,10,10,10,10,10,10,10","20,20,20,20,20,20,20,20","20,20,20,20,20,20,20,20","20,20,20,20,20,20,20,20","1,0,0,0,1,0,1,1","1357,1767,2103,605,1478,695,1909,889","33.270950164184335,-0.40664496052642335,-45.02780345858837,-29.396591812827428,57.654032991928545,-19.106528414985537,-19.31314685876793,20.4932779118085","-23.017716579914037,19.05354776606622,-10.04984193853873,7.045954219634048,29.371831518379068,2.3309045395777366,7.452608184486454,44.03116246720098","0","0"
"720","86","text","0","117","1648567","0-0","","","","","","","","","","","","","","","","","","","","","","","","","","","","","","","","","","","","",""
"","","plant-game","0","118","1660865","0-0","","200","180","8","CORN CROP","Left","200","160","2","NETTLE WEED","experimental","46","1,2,3,4,5,6,7,8","180,207.29963486902074,233.54096049272079,255.62873991684847,286.81534038102086,335.65158196370413,348.44351041844783,371.84386945180836","8,7,6,5,4,3,2,1","CORN CROP,CORN CROP,CORN CROP,CORN CROP,CORN CROP,CORN CROP,CORN CROP,CORN CROP","160,161.86006424449485,140,132.8504506644675,140.46729012235323,153.2400169934461,161.3780531417293,166.09124863331937","2,1,6,5,4,3,2,1","NETTLE WEED,NETTLE WEED,THISTLE WEED,THISTLE WEED,THISTLE WEED,THISTLE WEED,THISTLE WEED,THISTLE WEED","20,20,20,20,20,20,20,20","20,20,20,20,20,20,20,20","10,10,10,10,10,10,10,10","20,20,20,20,20,20,20,20","0,0,0,0,0,0,0,0","20,20,20,20,20,20,20,20","20,20,20,20,20,20,20,20","20,20,20,20,20,20,20,20","10,10,10,10,10,10,10,10","20,20,20,20,20,20,20,20","0,0,0,0,0,0,0,0","20,20,20,20,20,20,20,20","0,0,0,0,0,0,0,0","1924,718,761,636,667,690,580,501","27.299634869020746,26.241325623700046,22.08777942412768,31.186600464172365,48.83624158268326,12.791928454743724,23.400359033360537,16.652178008236728","1.8600642444948576,-14.424057295393844,-7.149549335532498,7.616839457885739,12.772726871092857,8.13803614828322,4.713195491590067,32.444568980617504","0","0"
"1308","86","text","0","119","1662293","0-0","","","","","","","","","","","","","","","","","","","","","","","","","","","","","","","","","","","","",""
"","","plant-game","0","120","1674061","0-0","","200","120","4","WHEAT CROP","Left","200","190","8","NETTLE WEED","experimental","47","1,2,3,4,5,6,7,8","120,148.8120150344131,140.30321873019867,131.03113967379042,160,154.11461664217222,174.48784938273144,183.80736994272377","4,3,2,1,4,3,2,1","WHEAT CROP,WHEAT CROP,WHEAT CROP,WHEAT CROP,CORN CROP,CORN CROP,CORN CROP,CORN CROP","190,216.71890101527543,193.6062456857295,205.2146097163454,209.44014340729694,251.79175863865524,223.94016747449714,256.1710089441678","8,7,6,5,4,3,2,1","NETTLE WEED,NETTLE WEED,NETTLE WEED,NETTLE WEED,NETTLE WEED,NETTLE WEED,NETTLE WEED,NETTLE WEED","20,20,20,20,20,20,20,20","20,20,20,20,20,20,20,20","10,10,10,10,10,10,10,10","20,20,20,20,20,20,20,20","0,0,0,0,0,0,0,0","20,20,20,20,20,20,20,20","20,20,20,20,20,20,20,20","20,20,20,20,20,20,20,20","10,10,10,10,10,10,10,10","20,20,20,20,20,20,20,20","0,0,0,0,0,0,0,0","20,20,20,20,20,20,20,20","0,1,1,1,0,1,1,1","1182,807,337,473,850,737,430,423","28.812015034413093,-8.508796304214423,-9.272079056408243,-15.21608448212129,-5.885383357827791,20.373232740559224,9.319520559992327,14.88527165010225","26.71890101527542,-23.112655329545934,11.60836403061589,4.225533690951547,42.351615231358295,-27.851591164158105,32.23084146967067,-6.473998877946773","0","0"
"723","86","text","0","121","1674944","0-0","","","","","","","","","","","","","","","","","","","","","","","","","","","","","","","","","","","","",""
"","","plant-game","0","122","1684168","0-0","","200","190","2","WHEAT CROP","Right","200","190","4","NETTLE WEED","experimental","48","1,2,3,4","190,213.90963144762526,176.9048194186686,221.445681363642","4,3,2,1","NETTLE WEED,NETTLE WEED,NETTLE WEED,NETTLE WEED","190,193.3427063956555,180,221.71845320878387","2,1,2,1","WHEAT CROP,WHEAT CROP,CORN CROP,CORN CROP","0,0,0,0","20,20,20,20","10,10,10,10","20,20,20,20","20,20,20,20","20,20,20,20","0,0,0,0","20,20,20,20","10,10,10,10","20,20,20,20","20,20,20,20","20,20,20,20","1,0,1,0","1346,1199,1170,823","23.909631447625255,-37.00481202895665,44.54086194497337,-5.4642784926823555","3.3427063956555045,-2.2327719488501416,41.71845320878386,8.056058455599098","0","0"
"1640","86","text","0","123","1685945","0-0","","","","","","","","","","","","","","","","","","","","","","","","","","","","","","","","","","","","",""
"","","plant-game","0","124","1698931","0-0","","200","120","1","CORN CROP","Right","200","190","2","THISTLE WEED","experimental","49","1,2","190,207.38553362406756","2,1","THISTLE WEED,THISTLE WEED","120,190","1,1","CORN CROP,WHEAT CROP","0,0","20,20","10,10","20,20","20,20","20,20","0,0","20,20","10,10","20,20","20,20","20,20","1,1","1461,3511","17.385533624067552,46.64490415665007","74.2437221256716,50.745940306743314","0","0"
"762","86","text","0","125","1699797","0-0","","","","","","","","","","","","","","","","","","","","","","","","","","","","","","","","","","","","",""
"","","plant-game","0","126","1760591","0-0","","200","180","8","WHEAT CROP","Left","200","160","1","NETTLE WEED","experimental","50","1,2,3,4,5,6,7,8","180,179.0094074554005,210.34805517669952,192.49053153886794,232.13755715621284,234.00921164801545,271.39327290115875,259.24826996443045","8,7,6,5,4,3,2,1","WHEAT CROP,WHEAT CROP,WHEAT CROP,WHEAT CROP,WHEAT CROP,WHEAT CROP,WHEAT CROP,WHEAT CROP","160,130,159.8863215020813,184.30976496068183,165.88358921116372,137.5183083405859,169.94965518632716,181.44437576052854","1,7,6,5,4,3,2,1","NETTLE WEED,THISTLE WEED,THISTLE WEED,THISTLE WEED,THISTLE WEED,THISTLE WEED,THISTLE WEED,THISTLE WEED","20,20,20,20,20,20,20,20","20,20,20,20,20,20,20,20","10,10,10,10,10,10,10,10","20,20,20,20,20,20,20,20","0,0,0,0,0,0,0,0","20,20,20,20,20,20,20,20","20,20,20,20,20,20,20,20","20,20,20,20,20,20,20,20","10,10,10,10,10,10,10,10","20,20,20,20,20,20,20,20","0,0,0,0,0,0,0,0","20,20,20,20,20,20,20,20","1,0,1,0,0,0,1,0","49179,848,611,506,750,421,396,600","-0.9905925445995019,31.338647721299036,-17.857523637831576,39.64702561734489,1.871654491802623,37.384061253143315,-12.145002936728277,17.901812595003886","-26.32997174248077,29.886321502081298,24.423443458600524,-18.426175749518123,-28.365280870577834,32.43134684574128,11.494720574201388,16.2598419901369","0","0"
"813","86","text","0","127","1761514","0-0","","","","","","","","","","","","","","","","","","","","","","","","","","","","","","","","","","","","",""
"","","plant-game","0","128","1771448","0-0","","200","160","8","CORN CROP","Right","200","120","8","NETTLE WEED","experimental","51","1,2,3,4,5,6,7,8","120,122.62578350403322,145.50145995764007,154.35174065202654,197.26762760035308,206.9123400412579,231.89911653671712,244.85677372917894","8,7,6,5,4,3,2,1","NETTLE WEED,NETTLE WEED,NETTLE WEED,NETTLE WEED,NETTLE WEED,NETTLE WEED,NETTLE WEED,NETTLE WEED","160,207.02527499866,229.51887486012453,231.0371188223955,243.51150983464964,225.90445425838203,266.19529440189507,255.50043261954758","8,7,6,5,4,3,2,1","CORN CROP,CORN CROP,CORN CROP,CORN CROP,CORN CROP,CORN CROP,CORN CROP,CORN CROP","0,0,0,0,0,0,0,0","20,20,20,20,20,20,20,20","10,10,10,10,10,10,10,10","20,20,20,20,20,20,20,20","20,20,20,20,20,20,20,20","20,20,20,20,20,20,20,20","0,0,0,0,0,0,0,0","20,20,20,20,20,20,20,20","10,10,10,10,10,10,10,10","20,20,20,20,20,20,20,20","20,20,20,20,20,20,20,20","20,20,20,20,20,20,20,20","1,1,1,1,0,1,1,1","1707,1654,437,392,537,503,383,429","2.625783504033219,22.875676453606836,8.850280694386477,42.91588694832653,9.644712440904819,24.986776495459228,12.957657192461836,42.70003081158498","47.02527499866,22.493599861464528,1.51824396227099,12.47439101225412,-17.607055576267612,40.29084014351306,-10.69486178234748,45.83083130086735","0","0"
"804","86","text","0","129","1772352","0-0","","","","","","","","","","","","","","","","","","","","","","","","","","","","","","","","","","","","",""
"","","plant-game","0","130","1782272","0-0","","200","160","8","WHEAT CROP","Left","200","160","8","THISTLE WEED","experimental","52","1,2,3,4,5,6,7,8","160,212.46444811538547,235.92965442770458,232.72188330737183,243.71752709573585,204.29258063811892,221.45322093860574,251.8385486618695","8,7,6,5,4,3,2,1","WHEAT CROP,WHEAT CROP,WHEAT CROP,WHEAT CROP,WHEAT CROP,WHEAT CROP,WHEAT CROP,WHEAT CROP","160,168.51495304844286,184.09121934610624,168.15236265599037,145.54449360414816,158.18320717120173,189.16278919562257,197.0590041121476","8,7,6,5,4,3,2,1","THISTLE WEED,THISTLE WEED,THISTLE WEED,THISTLE WEED,THISTLE WEED,THISTLE WEED,THISTLE WEED,THISTLE WEED","20,20,20,20,20,20,20,20","20,20,20,20,20,20,20,20","10,10,10,10,10,10,10,10","20,20,20,20,20,20,20,20","0,0,0,0,0,0,0,0","20,20,20,20,20,20,20,20","20,20,20,20,20,20,20,20","20,20,20,20,20,20,20,20","10,10,10,10,10,10,10,10","20,20,20,20,20,20,20,20","0,0,0,0,0,0,0,0","20,20,20,20,20,20,20,20","0,0,1,1,1,1,1,1","1791,1388,504,607,640,543,507,606","52.464448115385466,23.465206312319108,-3.2077711203327492,10.99564378836402,-39.42494645761693,17.160640300486815,30.385327723263778,4.933851625618","8.514953048442859,15.57626629766338,-15.938856690115863,-22.607869051842208,12.638713567053571,30.979582024420846,7.896214916525039,-8.190143563913022","0","0"
"1846","86","text","0","131","1784198","0-0","","","","","","","","","","","","","","","","","","","","","","","","","","","","","","","","","","","","",""
"","","plant-game","0","132","1793234","0-0","","200","160","4","WHEAT CROP","Right","200","120","8","NETTLE WEED","experimental","53","1,2,3,4,5,6,7,8","120,95.52873241624557,74.4366228235397,65.14035014211215,48.603974237404515,69.31510757742541,92.17360089579473,158.732238964776","8,7,6,5,4,3,2,1","NETTLE WEED,NETTLE WEED,NETTLE WEED,NETTLE WEED,NETTLE WEED,NETTLE WEED,NETTLE WEED,NETTLE WEED","160,163.09085326808045,164.98089899644287,183.58274919251562,160,118.03234662803217,119.11679187343873,128.81116227731334","4,3,2,1,4,3,2,1","WHEAT CROP,WHEAT CROP,WHEAT CROP,WHEAT CROP,CORN CROP,CORN CROP,CORN CROP,CORN CROP","0,0,0,0,0,0,0,0","20,20,20,20,20,20,20,20","10,10,10,10,10,10,10,10","20,20,20,20,20,20,20,20","20,20,20,20,20,20,20,20","20,20,20,20,20,20,20,20","0,0,0,0,0,0,0,0","20,20,20,20,20,20,20,20","10,10,10,10,10,10,10,10","20,20,20,20,20,20,20,20","20,20,20,20,20,20,20,20","20,20,20,20,20,20,20,20","0,0,0,0,1,1,1,1","853,450,87,93,870,420,284,276","-24.47126758375443,-21.092109592705878,-9.296272681427538,-16.536375904707636,20.711133340020886,22.858493318369327,66.55863806898127,17.983396950023625","3.090853268080452,1.8900457283624177,18.601850196072753,12.559682480691098,-41.967653371967835,1.0844452454065632,9.694370403874624,9.730779180656263","0","0"
"544","86","text","0","133","1793872","0-0","","","","","","","","","","","","","","","","","","","","","","","","","","","","","","","","","","","","",""
"","","plant-game","0","134","1802349","0-0","","200","160","1","CORN CROP","Left","200","190","2","NETTLE WEED","experimental","54","1,2","160,190","1,1","CORN CROP,WHEAT CROP","190,187.4926672222306","2,1","NETTLE WEED,NETTLE WEED","20,20","20,20","10,10","20,20","0,0","20,20","20,20","20,20","10,10","20,20","0,0","20,20","0,1","691,768","31.193286825347947,-37.88382161239544","-2.507332777769385,-6.201973462306139","0","0"
"769","86","text","0","135","1803227","0-0","","","","","","","","","","","","","","","","","","","","","","","","","","","","","","","","","","","","",""
"","","plant-game","0","136","1808950","0-0","","200","190","8","CORN CROP","Right","200","190","8","NETTLE WEED","experimental","55","1,2,3,4,5,6,7,8","190,215.20452079567985,228.33980040476808,228.64846469269355,231.67347605505466,260.15461802812166,273.1938394435541,252.9843819132495","8,7,6,5,4,3,2,1","NETTLE WEED,NETTLE WEED,NETTLE WEED,NETTLE WEED,NETTLE WEED,NETTLE WEED,NETTLE WEED,NETTLE WEED","190,191.88138211630786,198.13365409015933,197.8168612809539,168.28106763253285,152.0629569456434,133.16526323568164,147.71584551861764","8,7,6,5,4,3,2,1","CORN CROP,CORN CROP,CORN CROP,CORN CROP,CORN CROP,CORN CROP,CORN CROP,CORN CROP","0,0,0,0,0,0,0,0","20,20,20,20,20,20,20,20","10,10,10,10,10,10,10,10","20,20,20,20,20,20,20,20","20,20,20,20,20,20,20,20","20,20,20,20,20,20,20,20","0,0,0,0,0,0,0,0","20,20,20,20,20,20,20,20","10,10,10,10,10,10,10,10","20,20,20,20,20,20,20,20","20,20,20,20,20,20,20,20","20,20,20,20,20,20,20,20","1,0,0,0,0,0,0,0","743,1289,151,76,76,49,84,24","25.20452079567985,13.135279609088235,0.3086642879254657,3.025011362361127,28.48114197306701,13.039221415432465,-20.209457530304608,31.77954927692454","1.8813821163078543,6.252271973851478,-0.31679280920541925,-29.53579364842105,-16.218110686889446,-18.89769370996176,14.550582282936,-0.1630544452341208","0","0"
"621","86","text","0","137","1809641","0-0","","","","","","","","","","","","","","","","","","","","","","","","","","","","","","","","","","","","",""
"","","plant-game","0","138","1818530","0-0","","200","120","8","WHEAT CROP","Right","200","180","2","NETTLE WEED","experimental","56","1,2,3,4,5,6,7,8","180,171.3100283647922,140,159.24336158249426,183.4262776727432,225.777591904794,234.39578908232215,234.57534961378974","2,1,6,5,4,3,2,1","NETTLE WEED,NETTLE WEED,THISTLE WEED,THISTLE WEED,THISTLE WEED,THISTLE WEED,THISTLE WEED,THISTLE WEED","120,115.5492207321569,98.35576762958156,130.3903658149567,163.21826231764726,164.66287272118754,176.6007027349518,192.60011532679562","8,7,6,5,4,3,2,1","WHEAT CROP,WHEAT CROP,WHEAT CROP,WHEAT CROP,WHEAT CROP,WHEAT CROP,WHEAT CROP,WHEAT CROP","0,0,0,0,0,0,0,0","20,20,20,20,20,20,20,20","10,10,10,10,10,10,10,10","20,20,20,20,20,20,20,20","20,20,20,20,20,20,20,20","20,20,20,20,20,20,20,20","0,0,0,0,0,0,0,0","20,20,20,20,20,20,20,20","10,10,10,10,10,10,10,10","20,20,20,20,20,20,20,20","20,20,20,20,20,20,20,20","20,20,20,20,20,20,20,20","1,1,1,1,1,1,1,1","920,389,869,315,254,437,642,456","-8.689971635207804,27.012119170348974,19.243361582494256,24.182916090248952,42.35131423205081,8.618197177528144,0.17956053146759388,5.259310102761091","-4.450779267843107,-17.193453102575333,32.034598185375145,32.82789650269055,1.4446104035402882,11.937830013764252,15.999412591843825,17.745304768238928","0","0"
"561","86","text","0","139","1819211","0-0","","","","","","","","","","","","","","","","","","","","","","","","","","","","","","","","","","","","",""
"","","plant-game","0","140","1823858","0-0","","200","120","8","WHEAT CROP","Left","200","160","8","NETTLE WEED","experimental","57","1,2,3,4,5,6,7,8","120,138.42540988694697,88.83048928758635,124.65025419785931,158.21922552222856,180.57142925553057,182.8306609348277,199.48434996204895","8,7,6,5,4,3,2,1","WHEAT CROP,WHEAT CROP,WHEAT CROP,WHEAT CROP,WHEAT CROP,WHEAT CROP,WHEAT CROP,WHEAT CROP","160,158.80506306680851,172.87435055809436,102.7631309103762,109.57475468413512,111.31403854475592,132.0375710560823,128.48359065745612","8,7,6,5,4,3,2,1","NETTLE WEED,NETTLE WEED,NETTLE WEED,NETTLE WEED,NETTLE WEED,NETTLE WEED,NETTLE WEED,NETTLE WEED","20,20,20,20,20,20,20,20","20,20,20,20,20,20,20,20","10,10,10,10,10,10,10,10","20,20,20,20,20,20,20,20","0,0,0,0,0,0,0,0","20,20,20,20,20,20,20,20","20,20,20,20,20,20,20,20","20,20,20,20,20,20,20,20","10,10,10,10,10,10,10,10","20,20,20,20,20,20,20,20","0,0,0,0,0,0,0,0","20,20,20,20,20,20,20,20","1,1,1,1,1,1,1,1","742,152,122,119,108,114,251,86","18.425409886946976,-49.59492059936061,35.81976491027297,33.56897132436925,22.352203733302012,2.2592316792971423,16.653689027221233,-38.51824239329011","-1.194936933191489,14.069287491285834,-70.11121964771816,6.811623773758907,1.7392838606208063,20.72353251132638,-3.553980398626181,-0.15819430105063964","0","0"
"546","86","text","0","141","1824494","0-0","","","","","","","","","","","","","","","","","","","","","","","","","","","","","","","","","","","","",""
"","","plant-game","0","142","1831557","0-0","","200","180","4","CORN CROP","Left","200","160","2","NETTLE WEED","experimental","58","1,2,3,4","180,139.03879059142358,147.90115718851763,148.42077429300187","4,3,2,1","CORN CROP,CORN CROP,CORN CROP,CORN CROP","160,140.74518943996176,180,181.87770848941085","2,1,2,1","NETTLE WEED,NETTLE WEED,THISTLE WEED,THISTLE WEED","20,20,20,20","20,20,20,20","10,10,10,10","20,20,20,20","0,0,0,0","20,20,20,20","20,20,20,20","20,20,20,20","10,10,10,10","20,20,20,20","0,0,0,0","20,20,20,20","1,1,1,1","1136,455,866,433","-40.961209408576416,8.862366597094045,0.5196171044842411,-6.673760828103751","-19.25481056003823,0.5611304293189453,1.8777084894108436,-22.519016684326566","0","0"
"113","86","text","0","143","1831800","0-0","","","","","","","","","","","","","","","","","","","","","","","","","","","","","","","","","","","","",""
"","","plant-game","0","144","1842081","0-0","","200","190","8","CORN CROP","Left","200","160","2","NETTLE WEED","experimental","59","1,2,3,4,5,6,7,8","190,178.84987218796633,202.74823551644542,209.86934219091972,253.72333960965335,264.3948594535083,295.34881151322105,309.78387606142667","8,7,6,5,4,3,2,1","CORN CROP,CORN CROP,CORN CROP,CORN CROP,CORN CROP,CORN CROP,CORN CROP,CORN CROP","160,202.1439668926933,140,162.51648729323887,192.75375433265606,213.9262775812614,226.71014861674024,219.2960954285432","2,1,6,5,4,3,2,1","NETTLE WEED,NETTLE WEED,THISTLE WEED,THISTLE WEED,THISTLE WEED,THISTLE WEED,THISTLE WEED,THISTLE WEED","20,20,20,20,20,20,20,20","20,20,20,20,20,20,20,20","10,10,10,10,10,10,10,10","20,20,20,20,20,20,20,20","0,0,0,0,0,0,0,0","20,20,20,20,20,20,20,20","20,20,20,20,20,20,20,20","20,20,20,20,20,20,20,20","10,10,10,10,10,10,10,10","20,20,20,20,20,20,20,20","0,0,0,0,0,0,0,0","20,20,20,20,20,20,20,20","0,0,0,0,0,1,1,1","900,1172,805,324,84,554,317,122","-11.150127812033666,23.898363328479096,7.121106674474298,43.85399741873364,10.671519843854947,30.953952059712783,14.43506454820562,8.701185282712915","42.1439668926933,36.814677043169354,22.51648729323887,30.23726703941718,21.172523248605327,12.783871035478853,-7.414053188197032,7.0998319251172335","0","0"
"613","86","text","0","145","1842797","0-0","","","","","","","","","","","","","","","","","","","","","","","","","","","","","","","","","","","","",""
"","","plant-game","0","146","1853672","0-0","","200","120","4","WHEAT CROP","Left","200","120","2","THISTLE WEED","experimental","60","1,2,3,4","120,104.6615159762602,126.69475359210492,118.71655573901091","4,3,2,1","WHEAT CROP,WHEAT CROP,WHEAT CROP,WHEAT CROP","120,100.33559505463697,180,172.19545322883488","2,1,2,1","THISTLE WEED,THISTLE WEED,NETTLE WEED,NETTLE WEED","20,20,20,20","20,20,20,20","10,10,10,10","20,20,20,20","0,0,0,0","20,20,20,20","20,20,20,20","20,20,20,20","10,10,10,10","20,20,20,20","0,0,0,0","20,20,20,20","1,0,1,0","972,896,2692,1596","-15.338484023739795,22.03323761584472,-7.978197853094003,30.359595255420704","-19.66440494536303,19.212816045683443,-7.804546771165132,21.745399936130827","0","0"
"500","86","text","0","147","1854242","0-0","","","","","","","","","","","","","","","","","","","","","","","","","","","","","","","","","","","","",""
"","","plant-game","0","148","1865592","0-0","","200","160","8","CORN CROP","Left","200","180","2","THISTLE WEED","experimental","61","1,2,3,4,5,6,7,8","160,168.35631077349396,197.7932945076799,215.60588893255263,234.09971893763824,258.8402357672141,290.3569344626053,288.8230330793338","8,7,6,5,4,3,2,1","CORN CROP,CORN CROP,CORN CROP,CORN CROP,CORN CROP,CORN CROP,CORN CROP,CORN CROP","180,199.28587682505727,140,149.60939195215258,183.0056871222546,191.95631443571224,209.67642098372602,224.19267162992202","2,1,6,5,4,3,2,1","THISTLE WEED,THISTLE WEED,NETTLE WEED,NETTLE WEED,NETTLE WEED,NETTLE WEED,NETTLE WEED,NETTLE WEED","20,20,20,20,20,20,20,20","20,20,20,20,20,20,20,20","10,10,10,10,10,10,10,10","20,20,20,20,20,20,20,20","0,0,0,0,0,0,0,0","20,20,20,20,20,20,20,20","20,20,20,20,20,20,20,20","20,20,20,20,20,20,20,20","10,10,10,10,10,10,10,10","20,20,20,20,20,20,20,20","0,0,0,0,0,0,0,0","20,20,20,20,20,20,20,20","0,1,0,0,0,1,1,1","1921,613,704,1009,380,332,486,353","8.356310773493965,29.43698373418593,17.81259442487275,18.493830005085616,24.740516829575864,31.5166986953912,-1.5339013832714836,-18.621432803805675","19.28587682505728,-23.920301417268025,9.609391952152592,33.39629517010204,8.950627313457623,17.72010654801376,14.516250646195987,8.870455445020124","0","0"
"143","86","text","0","149","1865845","0-0","","","","","","","","","","","","","","","","","","","","","","","","","","","","","","","","","","","","",""
"","","plant-game","0","150","1959070","0-0","","200","180","2","CORN CROP","Right","200","120","2","THISTLE WEED","experimental","62","1,2","120,149.75625433241504","2,1","THISTLE WEED,THISTLE WEED","180,208.28397959607884","2,1","CORN CROP,CORN CROP","0,0","20,20","10,10","20,20","20,20","20,20","0,0","20,20","10,10","20,20","20,20","20,20","1,1","86022,791","29.756254332415043,13.21211672917477","28.28397959607883,46.981762508658164","0","0"
"703","86","text","0","151","1959843","0-0","","","","","","","","","","","","","","","","","","","","","","","","","","","","","","","","","","","","",""
"","","plant-game","0","152","1967048","0-0","","200","190","4","WHEAT CROP","Left","200","120","2","THISTLE WEED","experimental","63","1,2,3,4","190,220.74347961243873,256.0771484702283,298.4597065809318","4,3,2,1","WHEAT CROP,WHEAT CROP,WHEAT CROP,WHEAT CROP","120,146.98433371061938,180,161.5906186491776","2,1,2,1","THISTLE WEED,THISTLE WEED,NETTLE WEED,NETTLE WEED","20,20,20,20","20,20,20,20","10,10,10,10","20,20,20,20","0,0,0,0","20,20,20,20","20,20,20,20","20,20,20,20","10,10,10,10","20,20,20,20","0,0,0,0","20,20,20,20","0,0,0,0","996,422,851,437","30.743479612438737,35.33366885778953,42.38255811070353,50.943594291797744","26.98433371061938,25.600599090135653,-18.409381350822414,55.800962885715066","0","0"
"3957","86","text","0","153","1971105","0-0","","","","","","","","","","","","","","","","","","","","","","","","","","","","","","","","","","","","",""
"","","plant-game","0","154","2035783","0-0","","200","120","4","WHEAT CROP","Left","200","160","1","NETTLE WEED","experimental","64","1,2,3,4","120,123.91213600209664,142.05505053011322,177.02583647680575","4,3,2,1","WHEAT CROP,WHEAT CROP,WHEAT CROP,WHEAT CROP","160,170,164.63434972808585,204.42360513178525","1,3,2,1","NETTLE WEED,THISTLE WEED,THISTLE WEED,THISTLE WEED","20,20,20,20","20,20,20,20","10,10,10,10","20,20,20,20","0,0,0,0","20,20,20,20","20,20,20,20","20,20,20,20","10,10,10,10","20,20,20,20","0,0,0,0","20,20,20,20","0,0,0,0","3285,1308,414,1234","3.912136002096638,18.14291452801657,34.97078594669253,12.997550535401604","10.728854061750397,-5.365650271914156,39.78925540369939,7.700927094728492","1","0"
"708","86","text","0","155","2036584","0-0","","","","","","","","","","","","","","","","","","","","","","","","","","","","","","","","","","","","",""
"","","plant-game","0","156","2045025","0-0","","200","180","4","CORN CROP","Right","200","180","4","THISTLE WEED","experimental","65","1,2,3,4","180,222.39264165138542,222.56020986288848,235.44053102027226","4,3,2,1","THISTLE WEED,THISTLE WEED,THISTLE WEED,THISTLE WEED","180,189.09774999690111,204.4389408128643,194.04753912687295","4,3,2,1","CORN CROP,CORN CROP,CORN CROP,CORN CROP","0,0,0,0","20,20,20,20","10,10,10,10","20,20,20,20","20,20,20,20","20,20,20,20","0,0,0,0","20,20,20,20","10,10,10,10","20,20,20,20","20,20,20,20","20,20,20,20","1,0,0,0","3493,1126,526,399","42.39264165138543,0.16756821150305262,12.880321157383763,-18.56989324665587","9.097749996901117,15.341190815963193,-10.391401685991362,21.58454341434132","3","0"
"680","86","text","0","157","2045802","0-0","","","","","","","","","","","","","","","","","","","","","","","","","","","","","","","","","","","","",""
"","","plant-game","0","158","2054403","0-0","","200","190","1","CORN CROP","Left","200","120","4","NETTLE WEED","experimental","66","1,2,3,4","190,170,211.14355125327074,224.35543091799948","1,3,2,1","CORN CROP,WHEAT CROP,WHEAT CROP,WHEAT CROP","120,122.41798115912778,109.53469258655402,124.34139765085858","4,3,2,1","NETTLE WEED,NETTLE WEED,NETTLE WEED,NETTLE WEED","20,20,20,20","20,20,20,20","10,10,10,10","20,20,20,20","0,0,0,0","20,20,20,20","20,20,20,20","20,20,20,20","10,10,10,10","20,20,20,20","0,0,0,0","20,20,20,20","0,0,0,0","1714,779,331,477","30.818197795278305,41.14355125327076,13.211879664728738,17.692559039797473","2.41798115912777,-12.883288572573761,14.80670506430457,12.412146803807886","0","0"
"676","86","text","0","159","2055185","0-0","","","","","","","","","","","","","","","","","","","","","","","","","","","","","","","","","","","","",""
"","","plant-game","0","160","2059269","0-0","","200","190","2","CORN CROP","Right","200","120","2","THISTLE WEED","experimental","67","1,2","120,107.71001162820895","2,1","THISTLE WEED,THISTLE WEED","190,223.11530970640837","2,1","CORN CROP,CORN CROP","0,0","20,20","10,10","20,20","20,20","20,20","0,0","20,20","10,10","20,20","20,20","20,20","1,1","692,479","-12.289988371791061,53.18554947146878","33.115309706408354,-7.390677671938143","0","0"
"627","86","text","0","161","2060011","0-0","","","","","","","","","","","","","","","","","","","","","","","","","","","","","","","","","","","","",""
"","","plant-game","0","162","2068120","0-0","","200","120","1","WHEAT CROP","Left","200","120","4","THISTLE WEED","experimental","68","1,2,3,4","120,170,185.17819508877216,203.21894311601562","1,3,2,1","WHEAT CROP,CORN CROP,CORN CROP,CORN CROP","120,112.4994881816917,154.2171507065421,157.6923225804767","4,3,2,1","THISTLE WEED,THISTLE WEED,THISTLE WEED,THISTLE WEED","20,20,20,20","20,20,20,20","10,10,10,10","20,20,20,20","0,0,0,0","20,20,20,20","20,20,20,20","20,20,20,20","10,10,10,10","20,20,20,20","0,0,0,0","20,20,20,20","0,0,0,0","1426,716,314,224","8.593242527361717,15.178195088772164,18.04074802724348,37.77479191481268","-7.500511818308297,41.71766252485041,3.4751718739346096,40.530642585017816","0","0"
"1059","86","text","0","163","2069325","0-0","","","","","","","","","","","","","","","","","","","","","","","","","","","","","","","","","","","","",""
"","","plant-game","0","164","2077991","0-0","","200","160","4","CORN CROP","Right","200","180","2","THISTLE WEED","experimental","69","1,2,3,4","180,213.3816242725639,180,190.50189754494076","2,1,2,1","THISTLE WEED,THISTLE WEED,NETTLE WEED,NETTLE WEED","160,171.76144802237104,174.99813351285133,226.71545197586633","4,3,2,1","CORN CROP,CORN CROP,CORN CROP,CORN CROP","0,0,0,0","20,20,20,20","10,10,10,10","20,20,20,20","20,20,20,20","20,20,20,20","0,0,0,0","20,20,20,20","10,10,10,10","20,20,20,20","20,20,20,20","20,20,20,20","1,1,1,1","1245,1783,703,350","33.3816242725639,21.828428104054932,10.501897544940768,5.912424079410501","11.761448022371043,3.236685490480273,51.717318463015005,0.4697396518526702","0","0"
"658","86","text","0","165","2078743","0-0","","","","","","","","","","","","","","","","","","","","","","","","","","","","","","","","","","","","",""
"","","plant-game","0","166","2091276","0-0","","200","160","8","WHEAT CROP","Left","200","160","1","NETTLE WEED","experimental","70","1,2,3,4,5,6,7,8","160,169.41543159421568,201.26335592209938,224.36987328339805,261.81326753346866,266.19778569970566,270.3534547804399,287.97887411613044","8,7,6,5,4,3,2,1","WHEAT CROP,WHEAT CROP,WHEAT CROP,WHEAT CROP,WHEAT CROP,WHEAT CROP,WHEAT CROP,WHEAT CROP","160,130,129.29428314634063,151.70948766569714,208.90788122828198,181.18348273429834,170.63125198815612,212.88359362598842","1,7,6,5,4,3,2,1","NETTLE WEED,THISTLE WEED,THISTLE WEED,THISTLE WEED,THISTLE WEED,THISTLE WEED,THISTLE WEED,THISTLE WEED","20,20,20,20,20,20,20,20","20,20,20,20,20,20,20,20","10,10,10,10,10,10,10,10","20,20,20,20,20,20,20,20","0,0,0,0,0,0,0,0","20,20,20,20,20,20,20,20","20,20,20,20,20,20,20,20","20,20,20,20,20,20,20,20","10,10,10,10,10,10,10,10","20,20,20,20,20,20,20,20","0,0,0,0,0,0,0,0","20,20,20,20,20,20,20,20","0,0,0,0,1,1,1,1","838,782,447,355,1260,298,410,965","9.41543159421568,31.847924327883707,23.10651736129868,37.44339425007058,4.384518166236974,4.155669080734257,17.625419335690566,-30.90507221333443","25.757904381049595,-0.7057168536593572,22.415204519356514,57.19839356258484,-27.72439849398364,-10.552230746142207,42.25234163783231,-31.319512979132135","0","0"
"624","86","text","0","167","2092000","0-0","","","","","","","","","","","","","","","","","","","","","","","","","","","","","","","","","","","","",""
"","","plant-game","0","168","2106715","0-0","","200","160","1","CORN CROP","Left","200","160","8","THISTLE WEED","experimental","71","1,2,3,4,5,6,7,8","160,130,105.04428197991561,129.58834034978116,111.11172852796516,109.18157670543046,139.83187937387638,168.91553560358892","1,7,6,5,4,3,2,1","CORN CROP,WHEAT CROP,WHEAT CROP,WHEAT CROP,WHEAT CROP,WHEAT CROP,WHEAT CROP,WHEAT CROP","160,184.92090905563447,237.4206991853601,234.29886301671357,261.2704342868431,252.5352185248927,278.5449301521774,307.0904072744701","8,7,6,5,4,3,2,1","THISTLE WEED,THISTLE WEED,THISTLE WEED,THISTLE WEED,THISTLE WEED,THISTLE WEED,THISTLE WEED,THISTLE WEED","20,20,20,20,20,20,20,20","20,20,20,20,20,20,20,20","10,10,10,10,10,10,10,10","20,20,20,20,20,20,20,20","0,0,0,0,0,0,0,0","20,20,20,20,20,20,20,20","20,20,20,20,20,20,20,20","20,20,20,20,20,20,20,20","10,10,10,10,10,10,10,10","20,20,20,20,20,20,20,20","0,0,0,0,0,0,0,0","20,20,20,20,20,20,20,20","0,1,1,1,1,0,0,0","2595,2725,1130,824,793,411,335,258","-11.162538743456455,-24.955718020084387,24.544058369865546,-18.476611821816004,-1.9301518225347036,30.65030266844592,29.08365622971256,77.29483580792561","24.920909055634468,52.499790129725625,-3.121836168646511,26.97157127012956,-8.735215761950387,26.009711627284688,28.545477122292695,-0.4665987882310354","0","0"
"507","86","text","0","169","2107302","0-0","","","","","","","","","","","","","","","","","","","","","","","","","","","","","","","","","","","","",""
"","","plant-game","0","170","2115717","0-0","","200","180","4","WHEAT CROP","Left","200","180","1","THISTLE WEED","experimental","72","1,2,3,4","180,211.67395759188773,226.38296259089245,212.9187550741658","4,3,2,1","WHEAT CROP,WHEAT CROP,WHEAT CROP,WHEAT CROP","180,170,175.20253388216923,173.49221611446433","1,3,2,1","THISTLE WEED,NETTLE WEED,NETTLE WEED,NETTLE WEED","20,20,20,20","20,20,20,20","10,10,10,10","20,20,20,20","0,0,0,0","20,20,20,20","20,20,20,20","20,20,20,20","10,10,10,10","20,20,20,20","0,0,0,0","20,20,20,20","0,1,1,0","792,1033,755,867","31.673957591887728,14.709004999004732,-13.464207516726638,-18.969318041098106","27.059463758740204,5.202533882169245,-1.7103177677049017,43.19530657732789","0","0"
"744","86","text","0","171","2116581","0-0","","","","","","","","","","","","","","","","","","","","","","","","","","","","","","","","","","","","",""
"","","plant-game","0","172","2124832","0-0","","200","120","8","WHEAT CROP","Left","200","120","4","THISTLE WEED","experimental","73","1,2,3,4,5,6,7,8","120,136.72577955909287,149.61066903438564,163.66065678093577,144.7933500554976,162.36969967579495,178.7967971410062,212.91348161598654","8,7,6,5,4,3,2,1","WHEAT CROP,WHEAT CROP,WHEAT CROP,WHEAT CROP,WHEAT CROP,WHEAT CROP,WHEAT CROP,WHEAT CROP","120,155.06617665743218,178.13870919553563,176.47264482802845,160,168.3391004117651,209.66751906949804,245.04682798007676","4,3,2,1,4,3,2,1","THISTLE WEED,THISTLE WEED,THISTLE WEED,THISTLE WEED,NETTLE WEED,NETTLE WEED,NETTLE WEED,NETTLE WEED","20,20,20,20,20,20,20,20","20,20,20,20,20,20,20,20","10,10,10,10,10,10,10,10","20,20,20,20,20,20,20,20","0,0,0,0,0,0,0,0","20,20,20,20,20,20,20,20","20,20,20,20,20,20,20,20","20,20,20,20,20,20,20,20","10,10,10,10,10,10,10,10","20,20,20,20,20,20,20,20","0,0,0,0,0,0,0,0","20,20,20,20,20,20,20,20","0,0,0,0,0,0,0,0","574,274,94,178,727,284,190,455","16.725779559092878,12.884889475292756,14.049987746550137,-18.86730672543817,17.576349620297353,16.427097465211272,34.11668447498034,19.53594211643089","35.06617665743219,23.072532538103445,-1.6660643675071825,2.1847962109418226,8.339100411765095,41.328418657732946,35.37930891057872,-10.288682261666935","0","0"
"1149","86","text","0","173","2126063","0-0","","","","","","","","","","","","","","","","","","","","","","","","","","","","","","","","","","","","",""
"","","plant-game","0","174","2135693","0-0","","200","180","8","WHEAT CROP","Left","200","190","1","NETTLE WEED","experimental","74","1,2,3,4,5,6,7,8","180,232.02707840559611,267.10458568516776,274.8948735393526,251.77622157154062,257.65469119710406,268.2295388325974,280.43196800194966","8,7,6,5,4,3,2,1","WHEAT CROP,WHEAT CROP,WHEAT CROP,WHEAT CROP,WHEAT CROP,WHEAT CROP,WHEAT CROP,WHEAT CROP","190,130,158.66887966962278,184.97110915699895,189.11876363373153,196.104520680197,167.98548554874574,177.1594334886758","1,7,6,5,4,3,2,1","NETTLE WEED,THISTLE WEED,THISTLE WEED,THISTLE WEED,THISTLE WEED,THISTLE WEED,THISTLE WEED,THISTLE WEED","20,20,20,20,20,20,20,20","20,20,20,20,20,20,20,20","10,10,10,10,10,10,10,10","20,20,20,20,20,20,20,20","0,0,0,0,0,0,0,0","20,20,20,20,20,20,20,20","20,20,20,20,20,20,20,20","20,20,20,20,20,20,20,20","10,10,10,10,10,10,10,10","20,20,20,20,20,20,20,20","0,0,0,0,0,0,0,0","20,20,20,20,20,20,20,20","0,0,0,1,1,1,1,1","533,744,693,448,366,397,615,443","52.0270784055961,35.07750727957162,7.790287854184834,-23.11865196781198,5.878469625563448,10.574847635493384,12.202429169352227,5.4868387869480495","34.06422015992986,28.66887966962279,26.302229487376177,4.147654476732572,6.985757046465465,-28.11903513145126,9.173947939930066,-0.7133240871076407","0","0"
"122","86","text","0","175","2135955","0-0","","","","","","","","","","","","","","","","","","","","","","","","","","","","","","","","","","","","",""
"","","plant-game","0","176","2146360","0-0","","200","180","4","WHEAT CROP","Right","200","120","8","THISTLE WEED","experimental","75","1,2,3,4,5,6,7,8","120,163.77060024355572,185.94262743342665,184.9230824772354,170.87500979710074,109.51663344902676,114.55642530449705,154.5862223817964","8,7,6,5,4,3,2,1","THISTLE WEED,THISTLE WEED,THISTLE WEED,THISTLE WEED,THISTLE WEED,THISTLE WEED,THISTLE WEED,THISTLE WEED","180,183.89777884769646,155.6002153782961,122.71164791296425,160,180.53181940447652,194.7041043617306,230.02503991098254","4,3,2,1,4,3,2,1","WHEAT CROP,WHEAT CROP,WHEAT CROP,WHEAT CROP,CORN CROP,CORN CROP,CORN CROP,CORN CROP","0,0,0,0,0,0,0,0","20,20,20,20,20,20,20,20","10,10,10,10,10,10,10,10","20,20,20,20,20,20,20,20","20,20,20,20,20,20,20,20","20,20,20,20,20,20,20,20","0,0,0,0,0,0,0,0","20,20,20,20,20,20,20,20","10,10,10,10,10,10,10,10","20,20,20,20,20,20,20,20","20,20,20,20,20,20,20,20","20,20,20,20,20,20,20,20","0,0,0,0,0,0,1,1","795,468,451,410,547,964,735,109","43.77060024355572,22.172027189870928,-1.019544956191242,-14.04807268013464,-61.35837634807399,5.039791855470303,40.02979707729936,44.61310957035212","3.8977788476964568,-28.29756346940036,-32.888567465331846,-2.9367186397681913,20.531819404476515,14.172284957254078,35.32093554925194,31.177273734765524","0","0"
"718","86","text","0","177","2147190","0-0","","","","","","","","","","","","","","","","","","","","","","","","","","","","","","","","","","","","",""
"","","plant-game","0","178","2157102","0-0","","200","190","4","CORN CROP","Left","200","190","1","NETTLE WEED","experimental","76","1,2,3,4","190,206.2057497894422,219.2167659263055,202.11760329781671","4,3,2,1","CORN CROP,CORN CROP,CORN CROP,CORN CROP","190,170,186.8249090760972,181.83912760861588","1,3,2,1","NETTLE WEED,THISTLE WEED,THISTLE WEED,THISTLE WEED","20,20,20,20","20,20,20,20","10,10,10,10","20,20,20,20","0,0,0,0","20,20,20,20","20,20,20,20","20,20,20,20","10,10,10,10","20,20,20,20","0,0,0,0","20,20,20,20","0,0,1,1","1736,1575,969,615","16.205749789442198,13.011016136863306,-17.09916262848878,11.269310140888303","-13.59923779569656,16.824909076097214,-4.9857814674813214,-4.250428586570247","0","0"
"693","86","text","0","179","2157905","0-0","","","","","","","","","","","","","","","","","","","","","","","","","","","","","","","","","","","","",""
"","","plant-game","0","180","2164033","0-0","","200","180","4","CORN CROP","Left","200","180","2","THISTLE WEED","experimental","77","1,2,3,4","180,224.54011763586914,263.11842224408645,276.08457965001327","4,3,2,1","CORN CROP,CORN CROP,CORN CROP,CORN CROP","180,213.5617054202925,180,213.82858631987335","2,1,2,1","THISTLE WEED,THISTLE WEED,NETTLE WEED,NETTLE WEED","20,20,20,20","20,20,20,20","10,10,10,10","20,20,20,20","0,0,0,0","20,20,20,20","20,20,20,20","20,20,20,20","10,10,10,10","20,20,20,20","0,0,0,0","20,20,20,20","0,0,0,0","1143,318,732,381","44.54011763586912,38.57830460821734,12.966157405926804,39.9697265042108","33.561705420292505,51.41722471707256,33.828586319873345,-18.437817492291693","0","0"
"151","86","text","0","181","2164284","0-0","","","","","","","","","","","","","","","","","","","","","","","","","","","","","","","","","","","","",""
"","","plant-game","0","182","2170665","0-0","","200","160","2","WHEAT CROP","Left","200","180","8","NETTLE WEED","experimental","78","1,2,3,4,5,6,7,8","160,196.10852153301101,140,143.4018283450933,158.2757225204805,184.47802770187815,174.17764015729009,176.36047912368144","2,1,6,5,4,3,2,1","WHEAT CROP,WHEAT CROP,CORN CROP,CORN CROP,CORN CROP,CORN CROP,CORN CROP,CORN CROP","180,187.14885107954342,223.64393815398017,249.736281718274,240.29283206149972,280.5256014098118,337.62602127774323,343.1155105316226","8,7,6,5,4,3,2,1","NETTLE WEED,NETTLE WEED,NETTLE WEED,NETTLE WEED,NETTLE WEED,NETTLE WEED,NETTLE WEED,NETTLE WEED","20,20,20,20,20,20,20,20","20,20,20,20,20,20,20,20","10,10,10,10,10,10,10,10","20,20,20,20,20,20,20,20","0,0,0,0,0,0,0,0","20,20,20,20,20,20,20,20","20,20,20,20,20,20,20,20","20,20,20,20,20,20,20,20","10,10,10,10,10,10,10,10","20,20,20,20,20,20,20,20","0,0,0,0,0,0,0,0","20,20,20,20,20,20,20,20","0,0,0,0,0,0,0,0","430,289,849,123,75,87,115,105","36.108521533011,-3.2090594070372767,3.401828345093289,14.873894175387214,26.202305181397634,-10.30038754458807,2.1828389663913477,17.447822198295967","7.148851079543434,36.49508707443675,26.09234356429382,-9.443449656774273,40.23276934831209,57.10041986793141,5.489489253879336,12.01811739360743","0","0"
"133","86","text","0","183","2170918","0-0","","","","","","","","","","","","","","","","","","","","","","","","","","","","","","","","","","","","",""
"","","plant-game","0","184","2176574","0-0","","200","120","4","CORN CROP","Right","200","180","2","THISTLE WEED","experimental","79","1,2,3,4","180,174.55955863416924,180,194.62690758039963","2,1,2,1","THISTLE WEED,THISTLE WEED,NETTLE WEED,NETTLE WEED","120,160.61556064077382,205.66078480024754,184.99025038107817","4,3,2,1","CORN CROP,CORN CROP,CORN CROP,CORN CROP","0,0,0,0","20,20,20,20","10,10,10,10","20,20,20,20","20,20,20,20","20,20,20,20","0,0,0,0","20,20,20,20","10,10,10,10","20,20,20,20","20,20,20,20","20,20,20,20","1,1,0,0","362,114,819,123","-5.440441365830765,35.82154655058154,14.626907580399617,-6.5740114202477775","40.61556064077381,45.04522415947373,-20.670534419169382,-14.142121562338428","0","0"
"198","86","text","0","185","2176862","0-0","","","","","","","","","","","","","","","","","","","","","","","","","","","","","","","","","","","","",""
"","","plant-game","0","186","2185683","0-0","","200","180","1","WHEAT CROP","Right","200","190","2","THISTLE WEED","experimental","80","1,2","190,189.12155873156524","2,1","THISTLE WEED,THISTLE WEED","180,190","1,1","WHEAT CROP,CORN CROP","0,0","20,20","10,10","20,20","20,20","20,20","0,0","20,20","10,10","20,20","20,20","20,20","0,1","901,2622","-0.8784412684347496,-23.197801828236805","-7.787010898755671,38.08844182175363","0","0"
"195","86","text","0","187","2186000","0-0","","","","","","","","","","","","","","","","","","","","","","","","","","","","","","","","","","","","",""
"","","plant-game","0","188","2190736","0-0","","200","180","1","WHEAT CROP","Right","200","120","1","NETTLE WEED","experimental","81","1","120","1","NETTLE WEED","180","1","WHEAT CROP","0","20","10","20","20","20","0","20","10","20","20","20","1","2007","24.72989710566439","62.47121262930007","0","0"
"639","86","text","0","189","2191465","0-0","","","","","","","","","","","","","","","","","","","","","","","","","","","","","","","","","","","","",""
