"rt","key_press","trial_type","trial_index","trial_index_global","time_elapsed","internal_chunk_id","responses","experimental_goal_height","experimental_start_height","experimental_weeks_total","experimental_crop_type","experimental_crop_side","fixed_goal_height","fixed_start_height","fixed_weeks_total","fixed_crop_type","trial_kind","trial_number","stage","left_current_height","left_weeks_remaining","left_crop_type","right_current_height","right_weeks_remaining","right_crop_type","mean_left_growth_given_left","sd_left_growth_given_left","mean_left_growth_given_middle","sd_left_growth_given_middle","mean_left_growth_given_right","sd_left_growth_given_right","mean_right_growth_given_left","sd_right_growth_given_left","mean_right_growth_given_middle","sd_right_growth_given_middle","mean_right_growth_given_right","sd_right_growth_given_right","response","response_time","left_growth","right_growth","other_key_pressed","mouse_clicked"
"2455508","77","text","0","0","2455712","0-0","","","","","","","","","","","","","","","","","","","","","","","","","","","","","","","","","","","","",""
"4495","","survey-text","0","1","2461225","0-0","{""Q0"":""18""}","","","","","","","","","","","","","","","","","","","","","","","","","","","","","","","","","","","",""
"3298","86","text","0","2","3423","0-0","","","","","","","","","","","","","","","","","","","","","","","","","","","","","","","","","","","","",""
"","","plant-game","0","3","68823","0-0","","200","120","8","CORN CROP","Right","200","120","8","THISTLE WEED","practice","1","1,2,3,4,5,6,7,8","120,108.70225797185907,115.56913548275675,135.41282676235792,145.05445788748278,134.07472907828856,175.15372522511365,166.36012426366898","8,7,6,5,4,3,2,1","THISTLE WEED,THISTLE WEED,THISTLE WEED,THISTLE WEED,THISTLE WEED,THISTLE WEED,THISTLE WEED,THISTLE WEED","120,151.18068014297765,168.11119952470577,211.44837604673938,230.50830050198232,191.24275517782036,228.17126457890828,204.29756190587804","8,7,6,5,4,3,2,1","CORN CROP,CORN CROP,CORN CROP,CORN CROP,CORN CROP,CORN CROP,CORN CROP,CORN CROP","0,0,0,0,0,0,0,0","20,20,20,20,20,20,20,20","10,10,10,10,10,10,10,10","20,20,20,20,20,20,20,20","20,20,20,20,20,20,20,20","20,20,20,20,20,20,20,20","0,0,0,0,0,0,0,0","20,20,20,20,20,20,20,20","10,10,10,10,10,10,10,10","20,20,20,20,20,20,20,20","20,20,20,20,20,20,20,20","20,20,20,20,20,20,20,20","1,1,1,0,0,1,0,1","9873,3761,3235,5193,1779,2693,2512,2893","-11.297742028140934,6.866877510897675,19.843691279601167,9.64163112512485,-10.979728809194224,41.07899614682508,-8.793600961444676,36.56297130872963","31.18068014297766,16.930519381728125,43.33717652203363,19.059924455242935,-39.26554532416196,36.928509401087915,-23.873702673030248,40.039504400273856","0","0"
"1470","86","text","0","4","70453","0-0","","","","","","","","","","","","","","","","","","","","","","","","","","","","","","","","","","","","",""
"","","plant-game","0","5","98916","0-0","","200","160","4","CORN CROP","Left","200","160","4","THISTLE WEED","practice","2","1,2,3,4","160,199.86279730736533,205.64330878019064,215.9340952152029","4,3,2,1","CORN CROP,CORN CROP,CORN CROP,CORN CROP","160,166.1522668185165,195.13812115951063,248.5142169153931","4,3,2,1","THISTLE WEED,THISTLE WEED,THISTLE WEED,THISTLE WEED","20,20,20,20","20,20,20,20","10,10,10,10","20,20,20,20","0,0,0,0","20,20,20,20","20,20,20,20","20,20,20,20","10,10,10,10","20,20,20,20","0,0,0,0","20,20,20,20","0,0,1,1","2880,2021,2792,3569","39.86279730736533,5.780511472825324,10.290786435012244,17.7648611992997","6.152266818516502,28.985854340994138,53.37609575588245,6.694313149236719","0","0"
"857","86","text","0","6","99863","0-0","","","","","","","","","","","","","","","","","","","","","","","","","","","","","","","","","","","","",""
"","","plant-game","0","7","120145","0-0","","200","180","2","CORN CROP","Right","200","180","2","THISTLE WEED","practice","3","1,2","180,183.67875079080068","2,1","THISTLE WEED,THISTLE WEED","180,197.42700546215784","2,1","CORN CROP,CORN CROP","0,0","20,20","10,10","20,20","20,20","20,20","0,0","20,20","10,10","20,20","20,20","20,20","0,1","5750,1608","3.67875079080069,23.03818741333587","17.427005462157844,-13.390652421985237","0","0"
"556","86","text","0","8","120823","0-0","","","","","","","","","","","","","","","","","","","","","","","","","","","","","","","","","","","","",""
"","","plant-game","0","9","139354","0-0","","200","190","1","WHEAT CROP","Left","200","190","1","THISTLE WEED","practice","4","1","190","1","WHEAT CROP","190","1","THISTLE WEED","20","20","10","20","0","20","20","20","10","20","0","20","0","1153","18.616371872181745","6.419067130320727","0","0"
"750","86","text","0","10","140184","0-0","","","","","","","","","","","","","","","","","","","","","","","","","","","","","","","","","","","","",""
"","","plant-game","0","11","170398","0-0","","200","120","8","WHEAT CROP","Right","200","160","8","THISTLE WEED","practice","5","1,2,3,4,5,6,7,8","160,179.08928137288706,152.52301574843838,184.5770080995061,197.43612882529942,180.83062966616544,213.8223087173714,229.04217391452195","8,7,6,5,4,3,2,1","THISTLE WEED,THISTLE WEED,THISTLE WEED,THISTLE WEED,THISTLE WEED,THISTLE WEED,THISTLE WEED,THISTLE WEED","120,112.74559982142765,118.6851707162756,104.1034029803866,123.09941402691399,129.9417584695499,140.7505643575978,173.88843717015922","8,7,6,5,4,3,2,1","WHEAT CROP,WHEAT CROP,WHEAT CROP,WHEAT CROP,WHEAT CROP,WHEAT CROP,WHEAT CROP,WHEAT CROP","0,0,0,0,0,0,0,0","20,20,20,20,20,20,20,20","10,10,10,10,10,10,10,10","20,20,20,20,20,20,20,20","20,20,20,20,20,20,20,20","20,20,20,20,20,20,20,20","0,0,0,0,0,0,0,0","20,20,20,20,20,20,20,20","10,10,10,10,10,10,10,10","20,20,20,20,20,20,20,20","20,20,20,20,20,20,20,20","20,20,20,20,20,20,20,20","0,0,1,1,0,1,1,1","1247,2351,1940,1570,1279,2619,554,2393","19.089281372887065,-26.56626562444867,32.05399235106769,12.859120725793343,-16.60549915913399,32.99167905120598,15.21986519715055,17.368970311932543","-7.254400178572348,5.9395708948479395,-14.581767735888988,18.996011046527393,6.842344442635913,10.808805888047875,33.137872812561426,28.91992782775305","0","0"
"958","86","text","0","12","171418","0-0","","","","","","","","","","","","","","","","","","","","","","","","","","","","","","","","","","","","",""
"","","plant-game","0","13","192066","0-0","","200","180","4","WHEAT CROP","Right","200","160","4","THISTLE WEED","practice","6","1,2,3,4","160,136.7307118785089,138.3695703373253,131.63385642810155","4,3,2,1","THISTLE WEED,THISTLE WEED,THISTLE WEED,THISTLE WEED","180,172.72502882590786,205.59613352396985,207.29708664478062","4,3,2,1","WHEAT CROP,WHEAT CROP,WHEAT CROP,WHEAT CROP","0,0,0,0","20,20,20,20","10,10,10,10","20,20,20,20","20,20,20,20","20,20,20,20","0,0,0,0","20,20,20,20","10,10,10,10","20,20,20,20","20,20,20,20","20,20,20,20","0,1,0,1","2727,1209,1601,2143","-23.269288121491076,1.6388584588164008,-6.7357139092237635,36.60097240197914","-7.27497117409214,32.871104698062,1.7009531208107556,56.86132112275344","0","0"
"744","86","text","0","14","192900","0-0","","","","","","","","","","","","","","","","","","","","","","","","","","","","","","","","","","","","",""
"","","plant-game","0","15","212908","0-0","","200","180","2","WHEAT CROP","Left","200","190","2","NETTLE WEED","practice","7","1,2","180,220.92529607584842","2,1","WHEAT CROP,WHEAT CROP","190,171.42166901942025","2,1","NETTLE WEED,NETTLE WEED","20,20","20,20","10,10","20,20","0,0","20,20","20,20","20,20","10,10","20,20","0,0","20,20","1,1","4667,2031","40.92529607584843,-9.435822827127602","-18.57833098057974,0.19612618273600052","0","0"
"679","86","text","0","16","213677","0-0","","","","","","","","","","","","","","","","","","","","","","","","","","","","","","","","","","","","",""
"","","plant-game","0","17","256668","0-0","","200","120","4","CORN CROP","Left","200","120","8","NETTLE WEED","practice","8","1,2,3,4,5,6,7,8","120,103.87460510087308,142.66843390972267,132.58705258677907,160,160.60423250477754,195.0983538957164,202.74976038745046","4,3,2,1,4,3,2,1","CORN CROP,CORN CROP,CORN CROP,CORN CROP,WHEAT CROP,WHEAT CROP,WHEAT CROP,WHEAT CROP","120,146.04638832401164,156.97576264749145,163.22929790048948,199.49244038692873,211.779035191006,222.72473340362168,247.7521713190889","8,7,6,5,4,3,2,1","NETTLE WEED,NETTLE WEED,NETTLE WEED,NETTLE WEED,NETTLE WEED,NETTLE WEED,NETTLE WEED,NETTLE WEED","20,20,20,20,20,20,20,20","20,20,20,20,20,20,20,20","10,10,10,10,10,10,10,10","20,20,20,20,20,20,20,20","0,0,0,0,0,0,0,0","20,20,20,20,20,20,20,20","20,20,20,20,20,20,20,20","20,20,20,20,20,20,20,20","10,10,10,10,10,10,10,10","20,20,20,20,20,20,20,20","0,0,0,0,0,0,0,0","20,20,20,20,20,20,20,20","0,0,0,0,0,1,1,1","1278,1666,3016,1775,2491,2078,2134,2159","-16.125394899126917,38.79382880884958,-10.081381322943592,1.9298138955978708,0.6042325047775563,34.49412139093887,7.651406491734064,7.685106579815034","26.046388324011634,10.929374323479816,6.25353525299804,36.26314248643924,12.28659480407725,10.945698212615708,25.027437915467196,13.133456040425681","0","0"
"613","86","text","0","18","257391","0-0","","","","","","","","","","","","","","","","","","","","","","","","","","","","","","","","","","","","",""
"","","plant-game","0","19","283871","0-0","","200","160","4","WHEAT CROP","Left","200","160","2","THISTLE WEED","practice","9","1,2,3,4","160,140.202794045473,155.92664279230246,158.39603943668436","4,3,2,1","WHEAT CROP,WHEAT CROP,WHEAT CROP,WHEAT CROP","160,160.80166935447673,180,185.8193200232842","2,1,2,1","THISTLE WEED,THISTLE WEED,NETTLE WEED,NETTLE WEED","20,20,20,20","20,20,20,20","10,10,10,10","20,20,20,20","0,0,0,0","20,20,20,20","20,20,20,20","20,20,20,20","10,10,10,10","20,20,20,20","0,0,0,0","20,20,20,20","1,1,0,0","1886,3728,1311,980","-19.797205954527,15.723848746829434,2.469396644381888,-9.692830931333436","0.801669354476723,-9.266345929127294,5.819320023284206,30.688119251460467","0","0"
"607","86","text","0","20","284601","0-0","","","","","","","","","","","","","","","","","","","","","","","","","","","","","","","","","","","","",""
"","","plant-game","0","21","306985","0-0","","200","180","2","WHEAT CROP","Right","200","180","1","NETTLE WEED","practice","10","1,2","180,190","1,1","NETTLE WEED,THISTLE WEED","180,170.4100873683995","2,1","WHEAT CROP,WHEAT CROP","0,0","20,20","10,10","20,20","20,20","20,20","0,0","20,20","10,10","20,20","20,20","20,20","0,0","3627,4166","23.107815242108085,-46.56969353717202","-9.589912631600505,-5.564303304846523","0","0"
"634","86","text","0","22","307719","0-0","","","","","","","","","","","","","","","","","","","","","","","","","","","","","","","","","","","","",""
"","","plant-game","0","23","343709","0-0","","200","120","8","CORN CROP","Right","200","160","4","NETTLE WEED","practice","11","1,2,3,4,5,6,7,8","160,167.45981804168093,153.79757003854354,144.65530192217022,160,164.94184827669469,194.14741512222795,198.1619067567505","4,3,2,1,4,3,2,1","NETTLE WEED,NETTLE WEED,NETTLE WEED,NETTLE WEED,THISTLE WEED,THISTLE WEED,THISTLE WEED,THISTLE WEED","120,120.6598407036135,110.45967148794172,155.57979229298326,144.21197842162786,164.53997218438994,180.13918394731843,232.03269048495963","8,7,6,5,4,3,2,1","CORN CROP,CORN CROP,CORN CROP,CORN CROP,CORN CROP,CORN CROP,CORN CROP,CORN CROP","0,0,0,0,0,0,0,0","20,20,20,20,20,20,20,20","10,10,10,10,10,10,10,10","20,20,20,20,20,20,20,20","20,20,20,20,20,20,20,20","20,20,20,20,20,20,20,20","0,0,0,0,0,0,0,0","20,20,20,20,20,20,20,20","10,10,10,10,10,10,10,10","20,20,20,20,20,20,20,20","20,20,20,20,20,20,20,20","20,20,20,20,20,20,20,20","0,0,1,0,1,1,1,0","1003,4004,2509,1901,1520,1371,1802,1847","7.459818041680927,-13.6622480031374,-9.14226811637333,-6.785835107529498,4.941848276694692,29.205566845533276,4.014491634522571,-2.1412613059526233","0.6598407036135037,-10.200169215671773,45.12012080504154,-11.367813871355388,20.327993762762066,15.599211762928483,51.89350653764119,-4.402326286310807","0","0"
"607","86","text","0","24","344436","0-0","","","","","","","","","","","","","","","","","","","","","","","","","","","","","","","","","","","","",""
"","","plant-game","0","25","371186","0-0","","200","180","2","WHEAT CROP","Left","200","160","4","NETTLE WEED","practice","12","1,2,3,4","180,215.5346149430705,180,199.09443801300472","2,1,2,1","WHEAT CROP,WHEAT CROP,CORN CROP,CORN CROP","160,152.0160574568143,168.10261338206396,181.09778134872363","4,3,2,1","NETTLE WEED,NETTLE WEED,NETTLE WEED,NETTLE WEED","20,20,20,20","20,20,20,20","10,10,10,10","20,20,20,20","0,0,0,0","20,20,20,20","20,20,20,20","20,20,20,20","10,10,10,10","20,20,20,20","0,0,0,0","20,20,20,20","0,1,0,0","2018,1677,1749,981","35.53461494307051,7.585992046863931,19.094438013004726,60.06042347019175","-7.983942543185698,16.086555925249648,12.995167966659674,43.804831584507994","0","0"
"529","86","text","0","26","371795","0-0","","","","","","","","","","","","","","","","","","","","","","","","","","","","","","","","","","","","",""
"11110","86","text","0","27","384059","0-0","","","","","","","","","","","","","","","","","","","","","","","","","","","","","","","","","","","","",""
"","","plant-game","0","28","407032","0-0","","200","160","8","WHEAT CROP","Left","200","160","8","NETTLE WEED","experimental","1","1,2,3,4,5,6,7,8","160,174.8622457306812,193.3197121317753,182.29644684103104,218.4011309927052,207.14252588781721,230.87891213287043,239.4271861002093","8,7,6,5,4,3,2,1","WHEAT CROP,WHEAT CROP,WHEAT CROP,WHEAT CROP,WHEAT CROP,WHEAT CROP,WHEAT CROP,WHEAT CROP","160,195.55541840904823,170.87403478753404,168.6782650772427,204.60131916765312,196.2405595262884,202.3785070998898,192.36200732679177","8,7,6,5,4,3,2,1","NETTLE WEED,NETTLE WEED,NETTLE WEED,NETTLE WEED,NETTLE WEED,NETTLE WEED,NETTLE WEED,NETTLE WEED","20,20,20,20,20,20,20,20","20,20,20,20,20,20,20,20","10,10,10,10,10,10,10,10","20,20,20,20,20,20,20,20","0,0,0,0,0,0,0,0","20,20,20,20,20,20,20,20","20,20,20,20,20,20,20,20","20,20,20,20,20,20,20,20","10,10,10,10,10,10,10,10","20,20,20,20,20,20,20,20","0,0,0,0,0,0,0,0","20,20,20,20,20,20,20,20","0,1,1,0,1,1,1,1","4229,2854,2268,885,1476,1232,2266,2559","14.862245730681192,18.457466401094116,-11.023265290744268,36.10468415167416,-11.258605104887963,23.736386245053197,8.54827396733888,15.87444274433082","35.555418409048244,-24.681383621514183,-2.195769710291318,35.92305409041042,-8.360759641364726,6.137947573601399,-10.016499773098031,-12.112876252929565","0","0"
"873","86","text","0","29","408015","0-0","","","","","","","","","","","","","","","","","","","","","","","","","","","","","","","","","","","","",""
"","","plant-game","0","30","427838","0-0","","200","190","8","CORN CROP","Right","200","160","8","NETTLE WEED","experimental","2","1,2,3,4,5,6,7,8","160,184.13979586038772,181.14384554922378,188.46590599540357,237.62131634786329,253.30903251371296,242.1562706208047,242.19478956909046","8,7,6,5,4,3,2,1","NETTLE WEED,NETTLE WEED,NETTLE WEED,NETTLE WEED,NETTLE WEED,NETTLE WEED,NETTLE WEED,NETTLE WEED","190,174.53387589843157,164.38345691007441,199.7062063093199,233.67952073543927,224.1381262163503,240.35691310983216,268.05934966470846","8,7,6,5,4,3,2,1","CORN CROP,CORN CROP,CORN CROP,CORN CROP,CORN CROP,CORN CROP,CORN CROP,CORN CROP","0,0,0,0,0,0,0,0","20,20,20,20,20,20,20,20","10,10,10,10,10,10,10,10","20,20,20,20,20,20,20,20","20,20,20,20,20,20,20,20","20,20,20,20,20,20,20,20","0,0,0,0,0,0,0,0","20,20,20,20,20,20,20,20","10,10,10,10,10,10,10,10","20,20,20,20,20,20,20,20","20,20,20,20,20,20,20,20","20,20,20,20,20,20,20,20","1,0,1,1,0,0,0,0","4768,1595,1619,1415,1895,774,1240,1477","24.13979586038772,-2.995950311163928,7.322060446179799,49.15541035245972,15.68771616584969,-11.152761892908282,0.038518948285779,-21.517085285642313","-15.46612410156844,-10.150418988357153,35.322749399245495,33.973314426119366,-9.54139451908899,16.218786893481884,27.7024365548763,-1.2020898926475885","0","0"
"650","86","text","0","31","428618","0-0","","","","","","","","","","","","","","","","","","","","","","","","","","","","","","","","","","","","",""
"","","plant-game","0","32","457092","0-0","","200","120","4","CORN CROP","Right","200","190","8","NETTLE WEED","experimental","3","1,2,3,4,5,6,7,8","190,171.79523802030462,207.7546759387875,210.49440778159752,214.45993513881382,247.32021677837054,230.03231985369493,266.81998222961994","8,7,6,5,4,3,2,1","NETTLE WEED,NETTLE WEED,NETTLE WEED,NETTLE WEED,NETTLE WEED,NETTLE WEED,NETTLE WEED,NETTLE WEED","120,94.80017660229106,111.258999385909,144.76167998046284,160,165.05398189911324,184.0575749496678,199.92117641747697","4,3,2,1,4,3,2,1","CORN CROP,CORN CROP,CORN CROP,CORN CROP,WHEAT CROP,WHEAT CROP,WHEAT CROP,WHEAT CROP","0,0,0,0,0,0,0,0","20,20,20,20,20,20,20,20","10,10,10,10,10,10,10,10","20,20,20,20,20,20,20,20","20,20,20,20,20,20,20,20","20,20,20,20,20,20,20,20","0,0,0,0,0,0,0,0","20,20,20,20,20,20,20,20","10,10,10,10,10,10,10,10","20,20,20,20,20,20,20,20","20,20,20,20,20,20,20,20","20,20,20,20,20,20,20,20","0,1,1,0,1,0,1,0","3885,2622,1214,2554,5584,899,2411,2809","-18.20476197969539,35.95943791848289,2.739731842810027,3.9655273572162946,32.86028163955673,-17.287896924675618,36.787662375925024,-8.267370480024578","-25.199823397708933,16.458822783617936,33.50268059455385,11.612645831596824,5.053981899113243,19.00359305055456,15.863601467809154,-14.908472169122282","0","0"
"500","86","text","0","33","457654","0-0","","","","","","","","","","","","","","","","","","","","","","","","","","","","","","","","","","","","",""
"","","plant-game","0","34","478811","0-0","","200","180","1","CORN CROP","Right","200","190","4","THISTLE WEED","experimental","4","1,2,3,4","190,237.4748499751378,241.3981053330196,223.57279761694608","4,3,2,1","THISTLE WEED,THISTLE WEED,THISTLE WEED,THISTLE WEED","180,170,153.4009795390119,176.22927447835022","1,3,2,1","CORN CROP,WHEAT CROP,WHEAT CROP,WHEAT CROP","0,0,0,0","20,20,20,20","10,10,10,10","20,20,20,20","20,20,20,20","20,20,20,20","0,0,0,0","20,20,20,20","10,10,10,10","20,20,20,20","20,20,20,20","20,20,20,20","1,0,0,1","7475,2727,1887,1529","47.47484997513779,3.9232553578817955,-17.825307716073528,29.622124934728724","-1.9747508857677154,-16.599020460988093,22.82829493933832,48.67734039962721","0","0"
"555","86","text","0","35","479481","0-0","","","","","","","","","","","","","","","","","","","","","","","","","","","","","","","","","","","","",""
"","","plant-game","0","36","495174","0-0","","200","180","4","CORN CROP","Right","200","160","4","THISTLE WEED","experimental","5","1,2,3,4","160,156.3428340826278,146.16774210323172,167.94262703206303","4,3,2,1","THISTLE WEED,THISTLE WEED,THISTLE WEED,THISTLE WEED","180,207.81672517311156,213.38037895975899,206.53661952009486","4,3,2,1","CORN CROP,CORN CROP,CORN CROP,CORN CROP","0,0,0,0","20,20,20,20","10,10,10,10","20,20,20,20","20,20,20,20","20,20,20,20","0,0,0,0","20,20,20,20","10,10,10,10","20,20,20,20","20,20,20,20","20,20,20,20","1,0,1,1","2748,3297,2367,3503","-3.657165917372186,-10.175091979396074,21.774884928831302,31.107972310275827","27.816725173111553,5.563653786647431,-6.84375943966414,-11.641395133430198","0","0"
"477","86","text","0","37","495761","0-0","","","","","","","","","","","","","","","","","","","","","","","","","","","","","","","","","","","","",""
"","","plant-game","0","38","515730","0-0","","200","180","2","WHEAT CROP","Left","200","190","1","THISTLE WEED","experimental","6","1,2","180,193.61004501263054","2,1","WHEAT CROP,WHEAT CROP","190,190","1,1","THISTLE WEED,NETTLE WEED","20,20","20,20","10,10","20,20","0,0","20,20","20,20","20,20","10,10","20,20","0,0","20,20","1,1","4336,9344","13.610045012630529,39.59224567416031","24.10200809263523,-13.306316606340472","0","0"
"488","86","text","0","39","516313","0-0","","","","","","","","","","","","","","","","","","","","","","","","","","","","","","","","","","","","",""
"","","plant-game","0","40","524381","0-0","","200","160","1","CORN CROP","Right","200","160","1","NETTLE WEED","experimental","7","1","160","1","NETTLE WEED","160","1","CORN CROP","0","20","10","20","20","20","0","20","10","20","20","20","1","4970","68.31155666390583","-5.766712452166111","0","0"
"493","86","text","0","41","524984","0-0","","","","","","","","","","","","","","","","","","","","","","","","","","","","","","","","","","","","",""
"","","plant-game","0","42","534004","0-0","","200","120","1","WHEAT CROP","Right","200","190","1","THISTLE WEED","experimental","8","1","190","1","THISTLE WEED","120","1","WHEAT CROP","0","20","10","20","20","20","0","20","10","20","20","20","0","6195","25.99700959356433","-12.46597697384418","0","0"
"490","86","text","0","43","534574","0-0","","","","","","","","","","","","","","","","","","","","","","","","","","","","","","","","","","","","",""
"","","plant-game","0","44","543401","0-0","","200","190","1","WHEAT CROP","Right","200","190","1","NETTLE WEED","experimental","9","1","190","1","NETTLE WEED","190","1","WHEAT CROP","0","20","10","20","20","20","0","20","10","20","20","20","1","4820","-5.149725300745299","41.51124090469571","0","0"
"416","86","text","0","45","543974","0-0","","","","","","","","","","","","","","","","","","","","","","","","","","","","","","","","","","","","",""
"","","plant-game","0","46","563785","0-0","","200","120","2","WHEAT CROP","Right","200","190","8","THISTLE WEED","experimental","10","1,2,3,4,5,6,7,8","190,213.67040824941412,223.01114881058388,260.8645628461013,286.32409145943086,312.8271088493742,314.404264093722,318.07819802024835","8,7,6,5,4,3,2,1","THISTLE WEED,THISTLE WEED,THISTLE WEED,THISTLE WEED,THISTLE WEED,THISTLE WEED,THISTLE WEED,THISTLE WEED","120,108.2672872621584,140,134.1042068940999,166.30851416694554,115.4360849326934,87.80866198472536,88.64142106801343","2,1,6,5,4,3,2,1","WHEAT CROP,WHEAT CROP,CORN CROP,CORN CROP,CORN CROP,CORN CROP,CORN CROP,CORN CROP","0,0,0,0,0,0,0,0","20,20,20,20,20,20,20,20","10,10,10,10,10,10,10,10","20,20,20,20,20,20,20,20","20,20,20,20,20,20,20,20","20,20,20,20,20,20,20,20","0,0,0,0,0,0,0,0","20,20,20,20,20,20,20,20","10,10,10,10,10,10,10,10","20,20,20,20,20,20,20,20","20,20,20,20,20,20,20,20","20,20,20,20,20,20,20,20","1,1,1,1,0,0,0,0","2708,1331,2537,1703,1287,2739,417,857","23.670408249414113,9.340740561169751,37.85341403551745,25.459528613329546,26.503017389943373,1.5771552443478276,3.6739339265263036,7.656597944775561","-11.732712737841599,20.581257904627925,-5.895793105900097,32.20430727284567,-50.87242923425214,-27.627422947968046,0.832759083288061,0.23957623926317506","0","0"
"440","86","text","0","47","564345","0-0","","","","","","","","","","","","","","","","","","","","","","","","","","","","","","","","","","","","",""
"","","plant-game","0","48","579472","0-0","","200","160","1","WHEAT CROP","Right","200","120","4","NETTLE WEED","experimental","11","1,2,3,4","120,132.14296847361223,164.50153134611682,205.3765998947782","4,3,2,1","NETTLE WEED,NETTLE WEED,NETTLE WEED,NETTLE WEED","160,170,161.67569132338357,193.1725274633161","1,3,2,1","WHEAT CROP,CORN CROP,CORN CROP,CORN CROP","0,0,0,0","20,20,20,20","10,10,10,10","20,20,20,20","20,20,20,20","20,20,20,20","0,0,0,0","20,20,20,20","10,10,10,10","20,20,20,20","20,20,20,20","20,20,20,20","1,1,1,0","3858,2938,1073,1882","12.142968473612225,32.3585628725046,40.87506854866137,2.7076601638099507","24.860449120219663,-8.324308676616432,31.496836139932512,-13.351086044786955","0","0"
"483","86","text","0","49","580072","0-0","","","","","","","","","","","","","","","","","","","","","","","","","","","","","","","","","","","","",""
"","","plant-game","0","50","601758","0-0","","200","160","4","CORN CROP","Right","200","180","4","THISTLE WEED","experimental","12","1,2,3,4","180,200.8374061436865,230.6405434557635,219.07983214750257","4,3,2,1","THISTLE WEED,THISTLE WEED,THISTLE WEED,THISTLE WEED","160,154.70597866218696,180.63456642704216,180.8008350065889","4,3,2,1","CORN CROP,CORN CROP,CORN CROP,CORN CROP","0,0,0,0","20,20,20,20","10,10,10,10","20,20,20,20","20,20,20,20","20,20,20,20","0,0,0,0","20,20,20,20","10,10,10,10","20,20,20,20","20,20,20,20","20,20,20,20","0,0,0,1","13499,2013,1107,1291","20.83740614368651,29.80313731207699,-11.560711308260917,55.58664365135045","-5.294021337813044,25.92858776485521,0.1662685795467259,36.80650136418128","0","0"
"575","86","text","0","51","602463","0-0","","","","","","","","","","","","","","","","","","","","","","","","","","","","","","","","","","","","",""
"","","plant-game","0","52","615042","0-0","","200","160","1","WHEAT CROP","Right","200","180","2","THISTLE WEED","experimental","13","1,2","180,224.46779545735637","2,1","THISTLE WEED,THISTLE WEED","160,190","1,1","WHEAT CROP,CORN CROP","0,0","20,20","10,10","20,20","20,20","20,20","0,0","20,20","10,10","20,20","20,20","20,20","1,0","2947,1849","44.46779545735637,-26.960110558580077","2.0921728631250183,14.85346232886318","0","0"
"504","86","text","0","53","615675","0-0","","","","","","","","","","","","","","","","","","","","","","","","","","","","","","","","","","","","",""
"","","plant-game","0","54","633079","0-0","","200","180","8","CORN CROP","Right","200","160","2","NETTLE WEED","experimental","14","1,2,3,4,5,6,7,8","160,173.8519964775532,140,141.56148923730342,138.5800380638379,161.40033637861944,166.84361527403735,173.8187885155406","2,1,6,5,4,3,2,1","NETTLE WEED,NETTLE WEED,THISTLE WEED,THISTLE WEED,THISTLE WEED,THISTLE WEED,THISTLE WEED,THISTLE WEED","180,206.60794685571295,194.28653229663382,184.42517900314354,246.87261950120308,296.5871097649321,301.6125540036779,310.98655366667595","8,7,6,5,4,3,2,1","CORN CROP,CORN CROP,CORN CROP,CORN CROP,CORN CROP,CORN CROP,CORN CROP,CORN CROP","0,0,0,0,0,0,0,0","20,20,20,20,20,20,20,20","10,10,10,10,10,10,10,10","20,20,20,20,20,20,20,20","20,20,20,20,20,20,20,20","20,20,20,20,20,20,20,20","0,0,0,0,0,0,0,0","20,20,20,20,20,20,20,20","10,10,10,10,10,10,10,10","20,20,20,20,20,20,20,20","20,20,20,20,20,20,20,20","20,20,20,20,20,20,20,20","1,0,1,1,1,0,0,0","2599,1277,1494,1090,2472,1418,686,639","13.851996477553199,-22.891578570052033,1.5614892373034088,-2.981451173465519,22.820298314781542,5.443278895417903,6.9751732415032555,-18.746555787011935","26.607946855712953,-12.321414559079118,-9.86135329349029,62.44744049805952,49.71449026372902,5.025444238745758,9.37399966299807,-2.4507052092263","0","0"
"543","86","text","0","55","633752","0-0","","","","","","","","","","","","","","","","","","","","","","","","","","","","","","","","","","","","",""
"","","plant-game","0","56","645985","0-0","","200","160","4","CORN CROP","Right","200","180","1","NETTLE WEED","experimental","15","1,2,3,4","180,170,172.54637546579136,217.26663782720408","1,3,2,1","NETTLE WEED,THISTLE WEED,THISTLE WEED,THISTLE WEED","160,177.8753795639224,201.82085746285304,193.977286053859","4,3,2,1","CORN CROP,CORN CROP,CORN CROP,CORN CROP","0,0,0,0","20,20,20,20","10,10,10,10","20,20,20,20","20,20,20,20","20,20,20,20","0,0,0,0","20,20,20,20","10,10,10,10","20,20,20,20","20,20,20,20","20,20,20,20","0,1,1,1","2332,1140,1635,1478","10.127356537675576,2.546375465791364,44.72026236141271,39.014300325063346","17.8753795639224,23.945477898930633,-7.843571408994045,17.454240849983442","0","0"
"464","86","text","0","57","646569","0-0","","","","","","","","","","","","","","","","","","","","","","","","","","","","","","","","","","","","",""
"","","plant-game","0","58","668259","0-0","","200","190","1","WHEAT CROP","Left","200","190","8","THISTLE WEED","experimental","16","1,2,3,4,5,6,7,8","190,130,96.83949808375385,118.61289473646166,152.5093553036351,202.11858571736934,182.7721214298121,206.1174321173521","1,7,6,5,4,3,2,1","WHEAT CROP,CORN CROP,CORN CROP,CORN CROP,CORN CROP,CORN CROP,CORN CROP,CORN CROP","190,217.91794061425196,233.87685699377553,268.7639881761488,284.1190659589523,292.9886479694167,306.5789207497491,333.6844836127429","8,7,6,5,4,3,2,1","THISTLE WEED,THISTLE WEED,THISTLE WEED,THISTLE WEED,THISTLE WEED,THISTLE WEED,THISTLE WEED,THISTLE WEED","20,20,20,20,20,20,20,20","20,20,20,20,20,20,20,20","10,10,10,10,10,10,10,10","20,20,20,20,20,20,20,20","0,0,0,0,0,0,0,0","20,20,20,20,20,20,20,20","20,20,20,20,20,20,20,20","20,20,20,20,20,20,20,20","10,10,10,10,10,10,10,10","20,20,20,20,20,20,20,20","0,0,0,0,0,0,0,0","20,20,20,20,20,20,20,20","1,1,1,0,0,0,0,0","3104,4440,753,1244,1173,1577,1528,1116","6.600911879269521,-33.16050191624615,21.773396652707806,33.89646056717343,49.60923041373424,-19.346464287557232,23.34531068754,37.932430742822845","27.91794061425195,15.958916379523568,34.88713118237327,15.355077782803487,8.869582010464402,13.590272780332391,27.105562862993793,27.45205113837781","0","0"
"9039","86","text","0","59","677368","0-0","","","","","","","","","","","","","","","","","","","","","","","","","","","","","","","","","","","","",""
"","","plant-game","0","60","693357","0-0","","200","180","1","CORN CROP","Left","200","190","2","NETTLE WEED","experimental","17","1,2","180,190","1,1","CORN CROP,WHEAT CROP","190,219.9935745586301","2,1","NETTLE WEED,NETTLE WEED","20,20","20,20","10,10","20,20","0,0","20,20","20,20","20,20","10,10","20,20","0,0","20,20","0,0","5743,4229","16.1217350143814,5.483114997251143","29.993574558630073,-2.656083845758424","0","0"
"430","86","text","0","61","693907","0-0","","","","","","","","","","","","","","","","","","","","","","","","","","","","","","","","","","","","",""
"","","plant-game","0","62","708807","0-0","","200","190","8","CORN CROP","Right","200","190","8","NETTLE WEED","experimental","18","1,2,3,4,5,6,7,8","190,199.57455487471037,209.5911549665742,256.98939964705016,272.53876509835493,274.07591507101205,283.3325151628186,322.6545310096249","8,7,6,5,4,3,2,1","NETTLE WEED,NETTLE WEED,NETTLE WEED,NETTLE WEED,NETTLE WEED,NETTLE WEED,NETTLE WEED,NETTLE WEED","190,190.6230448497108,222.55719149312623,279.67858633572035,291.8942838102946,233.30376172332117,184.52874746573326,191.49372998415726","8,7,6,5,4,3,2,1","CORN CROP,CORN CROP,CORN CROP,CORN CROP,CORN CROP,CORN CROP,CORN CROP,CORN CROP","0,0,0,0,0,0,0,0","20,20,20,20,20,20,20,20","10,10,10,10,10,10,10,10","20,20,20,20,20,20,20,20","20,20,20,20,20,20,20,20","20,20,20,20,20,20,20,20","0,0,0,0,0,0,0,0","20,20,20,20,20,20,20,20","10,10,10,10,10,10,10,10","20,20,20,20,20,20,20,20","20,20,20,20,20,20,20,20","20,20,20,20,20,20,20,20","1,1,1,0,0,0,1,1","3380,951,1394,1170,1013,1092,873,636","9.574554874710364,10.016600091863822,47.39824468047594,15.549365451304759,1.5371499726571272,9.256600091806531,39.32201584680633,26.711285151758823","0.6230448497107908,31.934146643415435,57.121394842594135,12.215697474574283,-58.59052208697343,-48.775014257587905,6.964982518424009,39.04239564492471","0","0"
"455","86","text","0","63","709362","0-0","","","","","","","","","","","","","","","","","","","","","","","","","","","","","","","","","","","","",""
"","","plant-game","0","64","727891","0-0","","200","190","8","WHEAT CROP","Right","200","120","8","THISTLE WEED","experimental","19","1,2,3,4,5,6,7,8","120,121.49189457194453,128.93466590485613,156.12429318911242,163.57487505070537,193.4487804491785,178.53306413732253,166.7732366778529","8,7,6,5,4,3,2,1","THISTLE WEED,THISTLE WEED,THISTLE WEED,THISTLE WEED,THISTLE WEED,THISTLE WEED,THISTLE WEED,THISTLE WEED","190,208.64698049658554,177.68556004184882,194.24012165875723,179.4520857147109,196.95189959459827,228.568876179875,240.05366101330918","8,7,6,5,4,3,2,1","WHEAT CROP,WHEAT CROP,WHEAT CROP,WHEAT CROP,WHEAT CROP,WHEAT CROP,WHEAT CROP,WHEAT CROP","0,0,0,0,0,0,0,0","20,20,20,20,20,20,20,20","10,10,10,10,10,10,10,10","20,20,20,20,20,20,20,20","20,20,20,20,20,20,20,20","20,20,20,20,20,20,20,20","0,0,0,0,0,0,0,0","20,20,20,20,20,20,20,20","10,10,10,10,10,10,10,10","20,20,20,20,20,20,20,20","20,20,20,20,20,20,20,20","20,20,20,20,20,20,20,20","1,0,1,1,1,1,0,0","5008,1384,1679,620,566,1113,2417,1410","1.4918945719445205,7.442771332911597,27.189627284256296,7.4505818615929424,29.873905398473145,-14.915716311855995,-11.759827459469623,28.741827607190285","18.646980496585535,-30.961420454736718,16.554561616908423,-14.788035944046342,17.499813879887377,31.616976585276724,11.484784833434194,-20.408976236203877","0","0"
"601","86","text","0","65","728582","0-0","","","","","","","","","","","","","","","","","","","","","","","","","","","","","","","","","","","","",""
"","","plant-game","0","66","751793","0-0","","200","120","1","WHEAT CROP","Left","200","160","8","THISTLE WEED","experimental","20","1,2,3,4,5,6,7,8","120,130,87.18822249714992,83.63448889483968,100.13075198676154,84.07587297257922,90.22357195876904,131.9682672143078","1,7,6,5,4,3,2,1","WHEAT CROP,CORN CROP,CORN CROP,CORN CROP,CORN CROP,CORN CROP,CORN CROP,CORN CROP","160,146.37672169124954,173.4929567222378,170.052645176879,217.45232900546586,207.44677772687825,190.03888700406077,216.08637122984263","8,7,6,5,4,3,2,1","THISTLE WEED,THISTLE WEED,THISTLE WEED,THISTLE WEED,THISTLE WEED,THISTLE WEED,THISTLE WEED,THISTLE WEED","20,20,20,20,20,20,20,20","20,20,20,20,20,20,20,20","10,10,10,10,10,10,10,10","20,20,20,20,20,20,20,20","0,0,0,0,0,0,0,0","20,20,20,20,20,20,20,20","20,20,20,20,20,20,20,20","20,20,20,20,20,20,20,20","10,10,10,10,10,10,10,10","20,20,20,20,20,20,20,20","0,0,0,0,0,0,0,0","20,20,20,20,20,20,20,20","1,1,1,0,1,1,0,1","3243,3352,3485,1238,2180,1559,1375,699","14.734030610664357,-42.81177750285008,-3.553733602310239,16.49626309192186,-16.054879014182326,6.14769898618982,41.744695255538744,-1.895833590532596","-13.623278308750457,27.116235030988264,-3.4403115453588073,47.399683828586845,-10.005551278587603,-17.40789072281748,26.04748422578185,59.720527237521644","0","0"
"450","86","text","0","67","752355","0-0","","","","","","","","","","","","","","","","","","","","","","","","","","","","","","","","","","","","",""
"","","plant-game","0","68","772426","0-0","","200","120","8","WHEAT CROP","Left","200","190","2","THISTLE WEED","experimental","21","1,2,3,4,5,6,7,8","120,131.23413978187523,134.27293552598312,156.91105548903195,216.15718314309356,262.9502021791397,269.39919072129817,266.95458143480977","8,7,6,5,4,3,2,1","WHEAT CROP,WHEAT CROP,WHEAT CROP,WHEAT CROP,WHEAT CROP,WHEAT CROP,WHEAT CROP,WHEAT CROP","190,190.92764392279364,140,159.1922032752021,189.7872921031325,185.75760402965477,196.3288318521646,168.32379230786327","2,1,6,5,4,3,2,1","THISTLE WEED,THISTLE WEED,NETTLE WEED,NETTLE WEED,NETTLE WEED,NETTLE WEED,NETTLE WEED,NETTLE WEED","20,20,20,20,20,20,20,20","20,20,20,20,20,20,20,20","10,10,10,10,10,10,10,10","20,20,20,20,20,20,20,20","0,0,0,0,0,0,0,0","20,20,20,20,20,20,20,20","20,20,20,20,20,20,20,20","20,20,20,20,20,20,20,20","10,10,10,10,10,10,10,10","20,20,20,20,20,20,20,20","0,0,0,0,0,0,0,0","20,20,20,20,20,20,20,20","1,1,0,0,1,1,1,1","4503,1823,2713,1573,1709,1052,786,668","11.234139781875236,3.0387957441078934,22.638119963048847,59.24612765406161,46.79301903604612,6.448988542158483,-2.444609286488398,-32.40773365309622","0.927643922793628,12.39392969244552,19.1922032752021,30.59508882793039,-4.0296880734777165,10.571227822509828,-28.005039544301336,8.4771494479574","0","0"
"500","86","text","0","69","773039","0-0","","","","","","","","","","","","","","","","","","","","","","","","","","","","","","","","","","","","",""
"","","plant-game","0","70","783669","0-0","","200","190","1","WHEAT CROP","Left","200","190","2","NETTLE WEED","experimental","22","1,2","190,190","1,1","WHEAT CROP,CORN CROP","190,199.62282992059508","2,1","NETTLE WEED,NETTLE WEED","20,20","20,20","10,10","20,20","0,0","20,20","20,20","20,20","10,10","20,20","0,0","20,20","0,1","2793,2777","20.516501683411352,1.0511123591075486","9.622829920595075,-28.77413205779274","0","0"
"470","86","text","0","71","784279","0-0","","","","","","","","","","","","","","","","","","","","","","","","","","","","","","","","","","","","",""
"","","plant-game","0","72","798162","0-0","","200","160","2","WHEAT CROP","Left","200","160","4","THISTLE WEED","experimental","23","1,2,3,4","160,164.5280798063631,180,203.72981827844572","2,1,2,1","WHEAT CROP,WHEAT CROP,CORN CROP,CORN CROP","160,154.67073050574373,165.0261125534223,195.88569273524143","4,3,2,1","THISTLE WEED,THISTLE WEED,THISTLE WEED,THISTLE WEED","20,20,20,20","20,20,20,20","10,10,10,10","20,20,20,20","0,0,0,0","20,20,20,20","20,20,20,20","20,20,20,20","10,10,10,10","20,20,20,20","0,0,0,0","20,20,20,20","0,0,0,1","3037,703,4213,901","4.528079806363113,-14.274857774645767,23.729818278445713,-16.376192432585807","-5.3292694942562555,10.355382047678582,30.859580181819112,15.158066767765598","0","0"
"530","86","text","0","73","798792","0-0","","","","","","","","","","","","","","","","","","","","","","","","","","","","","","","","","","","","",""
"","","plant-game","0","74","819112","0-0","","200","120","4","CORN CROP","Left","200","160","8","THISTLE WEED","experimental","24","1,2,3,4,5,6,7,8","120,106.12236257785199,145.7167539082862,175.74793380365472,160,170.3770956049498,170.86611387718344,144.33360882632445","4,3,2,1,4,3,2,1","CORN CROP,CORN CROP,CORN CROP,CORN CROP,WHEAT CROP,WHEAT CROP,WHEAT CROP,WHEAT CROP","160,143.13993934456545,176.04726866880154,209.65747630125173,258.4340283181976,237.67478072118163,196.81385893066863,202.43958795044517","8,7,6,5,4,3,2,1","THISTLE WEED,THISTLE WEED,THISTLE WEED,THISTLE WEED,THISTLE WEED,THISTLE WEED,THISTLE WEED,THISTLE WEED","20,20,20,20,20,20,20,20","20,20,20,20,20,20,20,20","10,10,10,10,10,10,10,10","20,20,20,20,20,20,20,20","0,0,0,0,0,0,0,0","20,20,20,20,20,20,20,20","20,20,20,20,20,20,20,20","20,20,20,20,20,20,20,20","10,10,10,10,10,10,10,10","20,20,20,20,20,20,20,20","0,0,0,0,0,0,0,0","20,20,20,20,20,20,20,20","1,0,0,0,1,1,1,0","2680,779,1527,1363,2993,1102,2057,1152","-13.877637422148014,39.59439133043419,30.03117989536853,25.433251307220036,10.377095604949789,0.48901827223362565,-26.532505050858987,62.21219049711509","-16.86006065543454,32.90732932423609,33.61020763245021,48.77655201694584,-20.759247597015968,-40.86092179051299,5.62572901977655,35.12908886408532","0","0"
"600","86","text","0","75","819812","0-0","","","","","","","","","","","","","","","","","","","","","","","","","","","","","","","","","","","","",""
"","","plant-game","0","76","831152","0-0","","200","190","2","CORN CROP","Left","200","190","1","THISTLE WEED","experimental","25","1,2","190,179.57800749700618","2,1","CORN CROP,CORN CROP","190,190","1,1","THISTLE WEED,NETTLE WEED","20,20","20,20","10,10","20,20","0,0","20,20","20,20","20,20","10,10","20,20","0,0","20,20","1,0","4101,2887","-10.421992502993815,16.693491902001803","11.341304820027847,25.53133740991737","0","0"
"550","86","text","0","77","831832","0-0","","","","","","","","","","","","","","","","","","","","","","","","","","","","","","","","","","","","",""
"","","plant-game","0","78","853131","0-0","","200","180","4","CORN CROP","Right","200","120","8","NETTLE WEED","experimental","26","1,2,3,4,5,6,7,8","120,137.07340010397425,157.9634891689432,176.6944704419458,172.23202315739096,160.71036309741294,184.83455143733892,205.51486585651855","8,7,6,5,4,3,2,1","NETTLE WEED,NETTLE WEED,NETTLE WEED,NETTLE WEED,NETTLE WEED,NETTLE WEED,NETTLE WEED,NETTLE WEED","180,197.76104632824263,256.739593396919,247.97210041395047,160,144.7701236079415,157.68908932358292,169.01256877369096","4,3,2,1,4,3,2,1","CORN CROP,CORN CROP,CORN CROP,CORN CROP,WHEAT CROP,WHEAT CROP,WHEAT CROP,WHEAT CROP","0,0,0,0,0,0,0,0","20,20,20,20,20,20,20,20","10,10,10,10,10,10,10,10","20,20,20,20,20,20,20,20","20,20,20,20,20,20,20,20","20,20,20,20,20,20,20,20","0,0,0,0,0,0,0,0","20,20,20,20,20,20,20,20","10,10,10,10,10,10,10,10","20,20,20,20,20,20,20,20","20,20,20,20,20,20,20,20","20,20,20,20,20,20,20,20","1,1,0,0,0,1,0,0","2978,844,2457,1637,3283,1009,630,1367","17.07340010397425,20.890089064968944,18.73098127300262,-4.462447284554848,-11.521660059978009,24.124188339925965,20.680314419179645,-41.50604835347481","17.761046328242625,58.9785470686764,-8.767492982968546,-4.032983223709236,-15.229876392058477,12.918965715641407,11.323479450108039,25.63575309870537","0","0"
"564","86","text","0","79","853805","0-0","","","","","","","","","","","","","","","","","","","","","","","","","","","","","","","","","","","","",""
"","","plant-game","0","80","864628","0-0","","200","120","2","WHEAT CROP","Right","200","160","1","NETTLE WEED","experimental","27","1,2","160,190","1,1","NETTLE WEED,THISTLE WEED","120,103.85725182001514","2,1","WHEAT CROP,WHEAT CROP","0,0","20,20","10,10","20,20","20,20","20,20","0,0","20,20","10,10","20,20","20,20","20,20","0,0","4587,1913","-16.30509109665736,30.218799098437014","-16.142748179984864,-8.13183678264275","0","0"
"533","86","text","0","81","865291","0-0","","","","","","","","","","","","","","","","","","","","","","","","","","","","","","","","","","","","",""
"","","plant-game","0","82","881838","0-0","","200","160","4","CORN CROP","Left","200","120","2","THISTLE WEED","experimental","28","1,2,3,4","160,194.10906015369824,236.50683990930935,267.1691354186087","4,3,2,1","CORN CROP,CORN CROP,CORN CROP,CORN CROP","120,137.61178789139916,180,163.94477682195503","2,1,2,1","THISTLE WEED,THISTLE WEED,NETTLE WEED,NETTLE WEED","20,20,20,20","20,20,20,20","10,10,10,10","20,20,20,20","0,0,0,0","20,20,20,20","20,20,20,20","20,20,20,20","10,10,10,10","20,20,20,20","0,0,0,0","20,20,20,20","0,0,1,1","5788,722,1673,1040","34.10906015369824,42.397779755611104,30.662295509299334,29.523663076465894","17.611787891399153,23.512922564998664,-16.055223178044955,22.89968354172398","0","0"
"548","86","text","0","83","882486","0-0","","","","","","","","","","","","","","","","","","","","","","","","","","","","","","","","","","","","",""
"","","plant-game","0","84","895084","0-0","","200","180","2","CORN CROP","Left","200","180","1","THISTLE WEED","experimental","29","1,2","180,174.06745499789443","2,1","CORN CROP,CORN CROP","180,190","1,1","THISTLE WEED,NETTLE WEED","20,20","20,20","10,10","20,20","0,0","20,20","20,20","20,20","10,10","20,20","0,0","20,20","1,1","4210,3988","-5.932545002105563,-5.741597629616999","7.472380904175963,-35.712914781461706","0","0"
"512","86","text","0","85","895721","0-0","","","","","","","","","","","","","","","","","","","","","","","","","","","","","","","","","","","","",""
"","","plant-game","0","86","916873","0-0","","200","120","1","CORN CROP","Right","200","180","4","NETTLE WEED","experimental","30","1,2,3,4","180,159.7440133844769,204.32338395077264,236.54983819571424","4,3,2,1","NETTLE WEED,NETTLE WEED,NETTLE WEED,NETTLE WEED","120,170,211.7715581571386,245.6662945193521","1,3,2,1","CORN CROP,WHEAT CROP,WHEAT CROP,WHEAT CROP","0,0,0,0","20,20,20,20","10,10,10,10","20,20,20,20","20,20,20,20","20,20,20,20","0,0,0,0","20,20,20,20","10,10,10,10","20,20,20,20","20,20,20,20","20,20,20,20","1,1,0,0","5346,2416,1777,885","-20.255986615523113,44.57937056629575,32.22645424494159,17.295063432946062","20.464248809837848,41.77155815713859,33.89473636221349,-10.907977594263496","0","0"
"468","86","text","0","87","917441","0-0","","","","","","","","","","","","","","","","","","","","","","","","","","","","","","","","","","","","",""
"","","plant-game","0","88","936266","0-0","","200","120","8","CORN CROP","Left","200","160","8","THISTLE WEED","experimental","31","1,2,3,4,5,6,7,8","120,123.67334349271864,116.987577900184,126.33432374619173,176.70277514072131,199.84908453980984,261.0662594970655,297.8050460693967","8,7,6,5,4,3,2,1","CORN CROP,CORN CROP,CORN CROP,CORN CROP,CORN CROP,CORN CROP,CORN CROP,CORN CROP","160,151.52231431397206,151.68398477523235,155.5519982044243,147.65023233321497,186.4547038027231,189.57854916097074,176.9800009174053","8,7,6,5,4,3,2,1","THISTLE WEED,THISTLE WEED,THISTLE WEED,THISTLE WEED,THISTLE WEED,THISTLE WEED,THISTLE WEED,THISTLE WEED","20,20,20,20,20,20,20,20","20,20,20,20,20,20,20,20","10,10,10,10,10,10,10,10","20,20,20,20,20,20,20,20","0,0,0,0,0,0,0,0","20,20,20,20,20,20,20,20","20,20,20,20,20,20,20,20","20,20,20,20,20,20,20,20","10,10,10,10,10,10,10,10","20,20,20,20,20,20,20,20","0,0,0,0,0,0,0,0","20,20,20,20,20,20,20,20","1,1,1,1,0,0,1,1","8562,812,629,1107,1205,677,865,638","3.6733434927186455,-6.6857655925346515,9.346745846007735,50.36845139452958,23.146309399088526,61.217174957255686,36.73878657233119,8.230647547629935","-8.477685686027947,0.16167046126029605,3.8680134291919623,-7.901765871209322,38.80447146950813,3.1238453582476566,-12.598548243565435,-9.164210547052875","0","0"
"535","86","text","0","89","936941","0-0","","","","","","","","","","","","","","","","","","","","","","","","","","","","","","","","","","","","",""
"","","plant-game","0","90","956411","0-0","","200","120","2","WHEAT CROP","Right","200","180","8","THISTLE WEED","experimental","32","1,2,3,4,5,6,7,8","180,180.5289412751458,188.4966526112386,205.8210361190613,193.7255917234872,182.69142993851204,237.90858794121544,220.24972165089295","8,7,6,5,4,3,2,1","THISTLE WEED,THISTLE WEED,THISTLE WEED,THISTLE WEED,THISTLE WEED,THISTLE WEED,THISTLE WEED,THISTLE WEED","120,126.05754091418079,140,138.5107762984531,115.96238010339852,175.0062839681851,210.2417651769497,225.3459675500116","2,1,6,5,4,3,2,1","WHEAT CROP,WHEAT CROP,CORN CROP,CORN CROP,CORN CROP,CORN CROP,CORN CROP,CORN CROP","0,0,0,0,0,0,0,0","20,20,20,20,20,20,20,20","10,10,10,10,10,10,10,10","20,20,20,20,20,20,20,20","20,20,20,20,20,20,20,20","20,20,20,20,20,20,20,20","0,0,0,0,0,0,0,0","20,20,20,20,20,20,20,20","10,10,10,10,10,10,10,10","20,20,20,20,20,20,20,20","20,20,20,20,20,20,20,20","20,20,20,20,20,20,20,20","1,1,0,0,1,1,0,0","5613,531,2120,1897,712,782,1780,738","0.528941275145808,7.967711336092808,17.324383507822695,-12.09544439557408,-11.034161784975183,55.217158002703385,-17.6588662903225,24.31763869641092","6.057540914180796,56.04831375792989,-1.489223701546901,-22.54839619505458,59.043903864786586,35.235481208764604,15.104202373061895,3.4874630326464082","0","0"
"8590","86","text","0","91","965131","0-0","","","","","","","","","","","","","","","","","","","","","","","","","","","","","","","","","","","","",""
"","","plant-game","0","92","983301","0-0","","200","120","8","CORN CROP","Right","200","190","8","NETTLE WEED","experimental","33","1,2,3,4,5,6,7,8","190,196.92470306017702,241.97395110699154,250.29221190169667,273.65767905971126,288.79445280806027,280.84365069471653,342.1304070106506","8,7,6,5,4,3,2,1","NETTLE WEED,NETTLE WEED,NETTLE WEED,NETTLE WEED,NETTLE WEED,NETTLE WEED,NETTLE WEED,NETTLE WEED","120,121.64478216541814,158.40123311137955,167.48211490043613,177.72439347174983,170.53197909085475,191.09515035919068,188.08985805541556","8,7,6,5,4,3,2,1","CORN CROP,CORN CROP,CORN CROP,CORN CROP,CORN CROP,CORN CROP,CORN CROP,CORN CROP","0,0,0,0,0,0,0,0","20,20,20,20,20,20,20,20","10,10,10,10,10,10,10,10","20,20,20,20,20,20,20,20","20,20,20,20,20,20,20,20","20,20,20,20,20,20,20,20","0,0,0,0,0,0,0,0","20,20,20,20,20,20,20,20","10,10,10,10,10,10,10,10","20,20,20,20,20,20,20,20","20,20,20,20,20,20,20,20","20,20,20,20,20,20,20,20","1,1,0,0,0,0,1,1","7418,456,963,806,1709,714,1166,977","6.924703060177016,45.0492480468145,8.318260794705141,23.365467158014603,15.136773748348993,-7.950802113343726,61.28675631593404,32.09250440348535","1.644782165418139,36.75645094596142,9.080881789056578,10.2422785713137,-7.192414380895094,20.563171268335946,-3.005292303775107,1.220504980041209","0","0"
"457","86","text","0","93","983858","0-0","","","","","","","","","","","","","","","","","","","","","","","","","","","","","","","","","","","","",""
"","","plant-game","0","94","997004","0-0","","200","120","4","CORN CROP","Right","200","190","2","THISTLE WEED","experimental","34","1,2,3,4","190,174.415173736635,180,180.3200142054926","2,1,2,1","THISTLE WEED,THISTLE WEED,NETTLE WEED,NETTLE WEED","120,137.7808065673815,129.8100148236649,125.11997889729334","4,3,2,1","CORN CROP,CORN CROP,CORN CROP,CORN CROP","0,0,0,0","20,20,20,20","10,10,10,10","20,20,20,20","20,20,20,20","20,20,20,20","0,0,0,0","20,20,20,20","10,10,10,10","20,20,20,20","20,20,20,20","20,20,20,20","0,0,1,1","2869,1332,1845,2262","-15.584826263364995,0.26383860542213095,0.32001420549261184,-6.890852561663181","17.780806567381486,-7.970791743716602,-4.6900359263715465,-7.861747962100793","0","0"
"467","86","text","0","95","997596","0-0","","","","","","","","","","","","","","","","","","","","","","","","","","","","","","","","","","","","",""
"","","plant-game","0","96","1012708","0-0","","200","180","1","CORN CROP","Left","200","120","4","NETTLE WEED","experimental","35","1,2,3,4","180,170,208.54146061595677,186.85462941661152","1,3,2,1","CORN CROP,WHEAT CROP,WHEAT CROP,WHEAT CROP","120,75.98233804167893,121.99877579345923,130.84819313771402","4,3,2,1","NETTLE WEED,NETTLE WEED,NETTLE WEED,NETTLE WEED","20,20,20,20","20,20,20,20","10,10,10,10","20,20,20,20","0,0,0,0","20,20,20,20","20,20,20,20","20,20,20,20","10,10,10,10","20,20,20,20","0,0,0,0","20,20,20,20","1,0,0,0","2299,3548,2693,1213","2.2877741929782593,38.541460615956765,-21.686831199345242,55.75099373976552","-44.017661958321064,46.0164377517803,8.849417344254778,52.73666010362498","0","0"
"431","86","text","0","97","1013249","0-0","","","","","","","","","","","","","","","","","","","","","","","","","","","","","","","","","","","","",""
"","","plant-game","0","98","1026494","0-0","","200","190","4","WHEAT CROP","Left","200","160","2","THISTLE WEED","experimental","36","1,2,3,4","190,193.02670144695895,218.01695523302445,248.63221477947818","4,3,2,1","WHEAT CROP,WHEAT CROP,WHEAT CROP,WHEAT CROP","160,149.85746151750155,180,179.96766267125614","2,1,2,1","THISTLE WEED,THISTLE WEED,NETTLE WEED,NETTLE WEED","20,20,20,20","20,20,20,20","10,10,10,10","20,20,20,20","0,0,0,0","20,20,20,20","20,20,20,20","20,20,20,20","10,10,10,10","20,20,20,20","0,0,0,0","20,20,20,20","0,0,1,1","1912,674,2344,924","3.026701446958949,24.990253786065487,30.615259546453718,19.402667071792127","-10.142538482498441,-24.51994857799577,-0.0323373287438755,-28.621583419969824","0","0"
"497","86","text","0","99","1027131","0-0","","","","","","","","","","","","","","","","","","","","","","","","","","","","","","","","","","","","",""
"","","plant-game","0","100","1038300","0-0","","200","160","2","CORN CROP","Right","200","190","2","NETTLE WEED","experimental","37","1,2","190,138.66320809973138","2,1","NETTLE WEED,NETTLE WEED","160,149.40772446203925","2,1","CORN CROP,CORN CROP","0,0","20,20","10,10","20,20","20,20","20,20","0,0","20,20","10,10","20,20","20,20","20,20","0,1","4616,3378","-51.33679190026862,21.51839946757525","-10.592275537960735,28.127327269160155","0","0"
"503","86","text","0","101","1038959","0-0","","","","","","","","","","","","","","","","","","","","","","","","","","","","","","","","","","","","",""
"","","plant-game","0","102","1045314","0-0","","200","160","2","CORN CROP","Left","200","120","2","NETTLE WEED","experimental","38","1,2","160,175.2351370061369","2,1","CORN CROP,CORN CROP","120,145.036512355808","2,1","NETTLE WEED,NETTLE WEED","20,20","20,20","10,10","20,20","0,0","20,20","20,20","20,20","10,10","20,20","0,0","20,20","0,0","2920,482","15.23513700613692,27.525672439425172","25.03651235580797,28.82988395640467","0","0"
"423","86","text","0","103","1045867","0-0","","","","","","","","","","","","","","","","","","","","","","","","","","","","","","","","","","","","",""
"","","plant-game","0","104","1057204","0-0","","200","160","2","WHEAT CROP","Left","200","160","1","THISTLE WEED","experimental","39","1,2","160,111.85911468860607","2,1","WHEAT CROP,WHEAT CROP","160,190","1,1","THISTLE WEED,NETTLE WEED","20,20","20,20","10,10","20,20","0,0","20,20","20,20","20,20","10,10","20,20","0,0","20,20","1,1","3481,2857","-48.14088531139393,10.659822156594283","51.55249310385855,13.264250793262374","0","0"
"486","86","text","0","105","1057790","0-0","","","","","","","","","","","","","","","","","","","","","","","","","","","","","","","","","","","","",""
"","","plant-game","0","106","1067627","0-0","","200","180","2","CORN CROP","Left","200","120","1","THISTLE WEED","experimental","40","1,2","180,175.66679972829724","2,1","CORN CROP,CORN CROP","120,190","1,1","THISTLE WEED,NETTLE WEED","20,20","20,20","10,10","20,20","0,0","20,20","20,20","20,20","10,10","20,20","0,0","20,20","0,0","2745,1745","-4.3332002717027684,33.71630567210785","16.58848854016547,14.264944987848033","0","0"
"521","86","text","0","107","1068318","0-0","","","","","","","","","","","","","","","","","","","","","","","","","","","","","","","","","","","","",""
"","","plant-game","0","108","1081530","0-0","","200","190","1","WHEAT CROP","Left","200","160","8","THISTLE WEED","experimental","41","1,2,3,4,5,6,7,8","190,130,116.00897062086511,152.41948201581496,189.52291217215173,207.78598374971358,218.59979002245075,228.82315025718253","1,7,6,5,4,3,2,1","WHEAT CROP,CORN CROP,CORN CROP,CORN CROP,CORN CROP,CORN CROP,CORN CROP,CORN CROP","160,126.36222059589434,149.5077732173344,161.02836389558837,163.34601487472477,193.5814441687336,199.7108043293549,197.50820622073647","8,7,6,5,4,3,2,1","THISTLE WEED,THISTLE WEED,THISTLE WEED,THISTLE WEED,THISTLE WEED,THISTLE WEED,THISTLE WEED,THISTLE WEED","20,20,20,20,20,20,20,20","20,20,20,20,20,20,20,20","10,10,10,10,10,10,10,10","20,20,20,20,20,20,20,20","0,0,0,0,0,0,0,0","20,20,20,20,20,20,20,20","20,20,20,20,20,20,20,20","20,20,20,20,20,20,20,20","10,10,10,10,10,10,10,10","20,20,20,20,20,20,20,20","0,0,0,0,0,0,0,0","20,20,20,20,20,20,20,20","0,0,0,0,0,1,1,1","1534,2010,569,570,609,1146,708,906","12.041430514886748,-13.991029379134886,36.41051139494985,37.103430156336785,18.26307157756185,10.813806272737159,10.22336023473179,29.462330266936384","-33.63777940410566,23.14555262144007,11.52059067825398,2.317650979136392,30.235429294008842,6.129360160621282,-2.20259810861842,-21.23109453777913","0","0"
"414","86","text","0","109","1082054","0-0","","","","","","","","","","","","","","","","","","","","","","","","","","","","","","","","","","","","",""
"","","plant-game","0","110","1087709","0-0","","200","160","2","CORN CROP","Right","200","160","2","NETTLE WEED","experimental","42","1,2","160,205.63824719808275","2,1","NETTLE WEED,NETTLE WEED","160,171.56475839810636","2,1","CORN CROP,CORN CROP","0,0","20,20","10,10","20,20","20,20","20,20","0,0","20,20","10,10","20,20","20,20","20,20","1,1","2110,550","45.638247198082766,13.713389884459225","11.564758398106372,8.50577932119081","0","0"
"471","86","text","0","111","1088330","0-0","","","","","","","","","","","","","","","","","","","","","","","","","","","","","","","","","","","","",""
"","","plant-game","0","112","1098097","0-0","","200","180","1","CORN CROP","Left","200","160","2","NETTLE WEED","experimental","43","1,2","180,190","1,1","CORN CROP,WHEAT CROP","160,168.14604329698224","2,1","NETTLE WEED,NETTLE WEED","20,20","20,20","10,10","20,20","0,0","20,20","20,20","20,20","10,10","20,20","0,0","20,20","0,0","2134,3317","1.4437166112022375,-0.48259998641209023","8.146043296982233,26.809161857979184","0","0"
"473","86","text","0","113","1098690","0-0","","","","","","","","","","","","","","","","","","","","","","","","","","","","","","","","","","","","",""
"","","plant-game","0","114","1110971","0-0","","200","190","1","WHEAT CROP","Left","200","120","8","THISTLE WEED","experimental","44","1,2,3,4,5,6,7,8","190,130,131.88543151890028,141.90537166935232,132.8086800991335,131.1899197238325,139.48281220308706,173.53784544895552","1,7,6,5,4,3,2,1","WHEAT CROP,CORN CROP,CORN CROP,CORN CROP,CORN CROP,CORN CROP,CORN CROP,CORN CROP","120,123.28857737641488,170.37232694133377,190.7753648216153,203.04631989103046,211.0064829198444,196.97449100716926,182.44125984505754","8,7,6,5,4,3,2,1","THISTLE WEED,THISTLE WEED,THISTLE WEED,THISTLE WEED,THISTLE WEED,THISTLE WEED,THISTLE WEED,THISTLE WEED","20,20,20,20,20,20,20,20","20,20,20,20,20,20,20,20","10,10,10,10,10,10,10,10","20,20,20,20,20,20,20,20","0,0,0,0,0,0,0,0","20,20,20,20,20,20,20,20","20,20,20,20,20,20,20,20","20,20,20,20,20,20,20,20","10,10,10,10,10,10,10,10","20,20,20,20,20,20,20,20","0,0,0,0,0,0,0,0","20,20,20,20,20,20,20,20","0,0,0,1,1,0,0,0","1561,2304,220,661,567,598,255,976","9.840392936589053,1.8854315189002655,10.019940150452044,-9.096691570218816,-1.6187603753010047,8.292892479254569,34.055033245868444,33.90296015755666","3.2885773764148816,47.0837495649189,20.403037880281556,12.270955069415148,7.960163028813936,-14.031991912675139,-14.533231162111719,-13.343766919314028","0","0"
"479","86","text","0","115","1111570","0-0","","","","","","","","","","","","","","","","","","","","","","","","","","","","","","","","","","","","",""
"","","plant-game","0","116","1117021","0-0","","200","190","2","WHEAT CROP","Left","200","180","2","THISTLE WEED","experimental","45","1,2","190,210.42759218164184","2,1","WHEAT CROP,WHEAT CROP","180,206.41992067920637","2,1","THISTLE WEED,THISTLE WEED","20,20","20,20","10,10","20,20","0,0","20,20","20,20","20,20","10,10","20,20","0,0","20,20","0,1","1830,592","20.42759218164183,20.466858587315365","26.419920679206385,37.81938115977046","0","0"
"407","86","text","0","117","1117548","0-0","","","","","","","","","","","","","","","","","","","","","","","","","","","","","","","","","","","","",""
"","","plant-game","0","118","1127569","0-0","","200","190","4","WHEAT CROP","Left","200","120","2","NETTLE WEED","experimental","46","1,2,3,4","190,223.30885825791688,223.6592023297619,234.1126667537535","4,3,2,1","WHEAT CROP,WHEAT CROP,WHEAT CROP,WHEAT CROP","120,117.95554415181874,180,181.13265824721785","2,1,2,1","NETTLE WEED,NETTLE WEED,THISTLE WEED,THISTLE WEED","20,20,20,20","20,20,20,20","10,10,10,10","20,20,20,20","0,0,0,0","20,20,20,20","20,20,20,20","20,20,20,20","10,10,10,10","20,20,20,20","0,0,0,0","20,20,20,20","0,0,1,1","1337,1961,1413,647","33.30885825791687,0.3503440718450399,10.453464423991594,6.376124897259662","-2.044455848181258,-1.69409014097603,1.132658247217854,-7.466067154100834","0","0"
"597","86","text","0","119","1128296","0-0","","","","","","","","","","","","","","","","","","","","","","","","","","","","","","","","","","","","",""
"","","plant-game","0","120","1139624","0-0","","200","190","8","WHEAT CROP","Right","200","180","8","THISTLE WEED","experimental","47","1,2,3,4,5,6,7,8","180,149.24609509259443,182.42873601400944,174.43063838713599,153.37362111280837,152.21431203125638,150.50966481113144,131.42705689222544","8,7,6,5,4,3,2,1","THISTLE WEED,THISTLE WEED,THISTLE WEED,THISTLE WEED,THISTLE WEED,THISTLE WEED,THISTLE WEED,THISTLE WEED","190,215.15561718768706,222.56615488551822,270.0282986732678,263.22707769350814,267.49100324391827,265.88668702980004,250.20672610297137","8,7,6,5,4,3,2,1","WHEAT CROP,WHEAT CROP,WHEAT CROP,WHEAT CROP,WHEAT CROP,WHEAT CROP,WHEAT CROP,WHEAT CROP","0,0,0,0,0,0,0,0","20,20,20,20,20,20,20,20","10,10,10,10,10,10,10,10","20,20,20,20,20,20,20,20","20,20,20,20,20,20,20,20","20,20,20,20,20,20,20,20","0,0,0,0,0,0,0,0","20,20,20,20,20,20,20,20","10,10,10,10,10,10,10,10","20,20,20,20,20,20,20,20","20,20,20,20,20,20,20,20","20,20,20,20,20,20,20,20","1,1,1,0,0,0,0,0","2732,2040,669,1023,423,134,152,575","-30.753904907405584,33.182640921415015,-7.998097626873456,-21.057017274327624,-1.1593090815519738,-1.704647220124931,-19.082607918906,-1.7462234401735093","25.15561718768705,7.410537697831149,47.462143787749575,-6.801220979759629,4.263925550410164,-1.6043162141182448,-15.679960926828663,-10.754303424264808","0","0"
"447","86","text","0","121","1140211","0-0","","","","","","","","","","","","","","","","","","","","","","","","","","","","","","","","","","","","",""
"","","plant-game","0","122","1156423","0-0","","200","160","1","CORN CROP","Right","200","180","8","NETTLE WEED","experimental","48","1,2,3,4,5,6,7,8","180,208.7869518918315,212.398439287223,213.80627071138565,214.33853306533427,209.63868415530493,219.73710312897649,212.16391273285168","8,7,6,5,4,3,2,1","NETTLE WEED,NETTLE WEED,NETTLE WEED,NETTLE WEED,NETTLE WEED,NETTLE WEED,NETTLE WEED,NETTLE WEED","160,130,149.40472840694838,167.54666106056192,164.2581137787567,189.69603878892616,184.30249837191096,173.6985427884676","1,7,6,5,4,3,2,1","CORN CROP,WHEAT CROP,WHEAT CROP,WHEAT CROP,WHEAT CROP,WHEAT CROP,WHEAT CROP,WHEAT CROP","0,0,0,0,0,0,0,0","20,20,20,20,20,20,20,20","10,10,10,10,10,10,10,10","20,20,20,20,20,20,20,20","20,20,20,20,20,20,20,20","20,20,20,20,20,20,20,20","0,0,0,0,0,0,0,0","20,20,20,20,20,20,20,20","10,10,10,10,10,10,10,10","20,20,20,20,20,20,20,20","20,20,20,20,20,20,20,20","20,20,20,20,20,20,20,20","1,1,1,1,1,1,1,0","2943,1931,411,415,1135,1002,827,788","28.7869518918315,3.611487395391496,1.4078314241626586,0.5322623539486351,-4.699848910029342,10.098418973671563,-7.573190396124801,3.975813926841527","12.888171964474715,19.404728406948387,18.141932653613537,-3.288547281805233,25.43792501016948,-5.39354041701521,-10.603955583443351,-10.864981412384925","0","0"
"3252","86","text","0","123","1159835","0-0","","","","","","","","","","","","","","","","","","","","","","","","","","","","","","","","","","","","",""
"","","plant-game","0","124","1170310","0-0","","200","160","2","CORN CROP","Left","200","190","1","THISTLE WEED","experimental","49","1,2","160,113.87015385555038","2,1","CORN CROP,CORN CROP","190,190","1,1","THISTLE WEED,NETTLE WEED","20,20","20,20","10,10","20,20","0,0","20,20","20,20","20,20","10,10","20,20","0,0","20,20","1,1","3375,2349","-46.129846144449616,-1.3297649256095514","13.81072596332177,17.316337533964532","0","0"
"470","86","text","0","125","1170900","0-0","","","","","","","","","","","","","","","","","","","","","","","","","","","","","","","","","","","","",""
"","","plant-game","0","126","1181510","0-0","","200","190","1","CORN CROP","Right","200","120","1","NETTLE WEED","experimental","50","1","120","1","NETTLE WEED","190","1","CORN CROP","0","20","10","20","20","20","0","20","10","20","20","20","1","6319","23.296283866728004","-36.698973851984384","0","0"
"439","86","text","0","127","1182069","0-0","","","","","","","","","","","","","","","","","","","","","","","","","","","","","","","","","","","","",""
"","","plant-game","0","128","1189072","0-0","","200","180","1","CORN CROP","Left","200","190","1","THISTLE WEED","experimental","51","1","180","1","CORN CROP","190","1","THISTLE WEED","20","20","10","20","0","20","20","20","10","20","0","20","1","1827","18.844842566719663","-4.051601234046743","0","0"
"417","86","text","0","129","1189629","0-0","","","","","","","","","","","","","","","","","","","","","","","","","","","","","","","","","","","","",""
"","","plant-game","0","130","1202451","0-0","","200","180","2","WHEAT CROP","Right","200","160","4","THISTLE WEED","experimental","52","1,2,3,4","160,162.7205505085178,178.76686919437347,190.58463380957122","4,3,2,1","THISTLE WEED,THISTLE WEED,THISTLE WEED,THISTLE WEED","180,190.87228971133715,180,258.8780244043015","2,1,2,1","WHEAT CROP,WHEAT CROP,CORN CROP,CORN CROP","0,0,0,0","20,20,20,20","10,10,10,10","20,20,20,20","20,20,20,20","20,20,20,20","0,0,0,0","20,20,20,20","10,10,10,10","20,20,20,20","20,20,20,20","20,20,20,20","1,1,1,0","4137,857,1203,1752","2.720550508517782,16.046318685855674,11.81776461519775,-50.93858004876304","10.872289711337132,16.383672358503777,78.8780244043015,45.815814649893206","0","0"
"392","86","text","0","131","1202983","0-0","","","","","","","","","","","","","","","","","","","","","","","","","","","","","","","","","","","","",""
"","","plant-game","0","132","1217325","0-0","","200","180","8","WHEAT CROP","Right","200","180","2","THISTLE WEED","experimental","53","1,2,3,4,5,6,7,8","180,213.97280912648068,140,162.16352221472584,145.81081024310257,179.4002341068706,186.0290805455821,196.1107749667096","2,1,6,5,4,3,2,1","THISTLE WEED,THISTLE WEED,NETTLE WEED,NETTLE WEED,NETTLE WEED,NETTLE WEED,NETTLE WEED,NETTLE WEED","180,192.86281876709268,214.86887214958688,222.92285404817315,227.89823547259942,263.8911795130842,282.7190027003463,289.8136717793252","8,7,6,5,4,3,2,1","WHEAT CROP,WHEAT CROP,WHEAT CROP,WHEAT CROP,WHEAT CROP,WHEAT CROP,WHEAT CROP,WHEAT CROP","0,0,0,0,0,0,0,0","20,20,20,20,20,20,20,20","10,10,10,10,10,10,10,10","20,20,20,20,20,20,20,20","20,20,20,20,20,20,20,20","20,20,20,20,20,20,20,20","0,0,0,0,0,0,0,0","20,20,20,20,20,20,20,20","10,10,10,10,10,10,10,10","20,20,20,20,20,20,20,20","20,20,20,20,20,20,20,20","20,20,20,20,20,20,20,20","0,0,1,0,0,0,0,0","2376,1354,2209,601,388,323,839,916","33.9728091264807,-36.947160065202894,22.163522214725848,-16.352711971623282,33.58942386376805,6.628846438711479,10.081694421127516,-21.84481035556777","12.86281876709268,22.00605338249419,8.053981898586269,4.975381424426287,35.992944040484765,18.82782318726216,7.094669078978866,-17.575387651897152","0","0"
"452","86","text","0","133","1217917","0-0","","","","","","","","","","","","","","","","","","","","","","","","","","","","","","","","","","","","",""
"","","plant-game","0","134","1227516","0-0","","200","120","1","CORN CROP","Left","200","160","2","NETTLE WEED","experimental","54","1,2","120,190","1,1","CORN CROP,WHEAT CROP","160,163.9246185730516","2,1","NETTLE WEED,NETTLE WEED","20,20","20,20","10,10","20,20","0,0","20,20","20,20","20,20","10,10","20,20","0,0","20,20","1,0","2021,2675","-10.605141057040914,21.417072789458924","3.9246185730515935,0.17269165935486086","0","0"
"544","86","text","0","135","1228180","0-0","","","","","","","","","","","","","","","","","","","","","","","","","","","","","","","","","","","","",""
"","","plant-game","0","136","1246467","0-0","","200","190","8","WHEAT CROP","Right","200","180","2","NETTLE WEED","experimental","55","1,2,3,4,5,6,7,8","180,199.6339109379106,140,158.10949532931497,131.12972293019573,101.06908509932042,123.7024076983281,111.77119275043053","2,1,6,5,4,3,2,1","NETTLE WEED,NETTLE WEED,THISTLE WEED,THISTLE WEED,THISTLE WEED,THISTLE WEED,THISTLE WEED,THISTLE WEED","190,268.8126702082043,234.12091399704536,261.6684050094257,264.10368108029655,261.30084670569977,290.25273467214663,315.1131678571868","8,7,6,5,4,3,2,1","WHEAT CROP,WHEAT CROP,WHEAT CROP,WHEAT CROP,WHEAT CROP,WHEAT CROP,WHEAT CROP,WHEAT CROP","0,0,0,0,0,0,0,0","20,20,20,20,20,20,20,20","10,10,10,10,10,10,10,10","20,20,20,20,20,20,20,20","20,20,20,20,20,20,20,20","20,20,20,20,20,20,20,20","0,0,0,0,0,0,0,0","20,20,20,20,20,20,20,20","10,10,10,10,10,10,10,10","20,20,20,20,20,20,20,20","20,20,20,20,20,20,20,20","20,20,20,20,20,20,20,20","1,0,1,0,0,0,0,0","7205,884,1601,575,324,119,364,50","19.633910937910592,-4.23889669234852,18.109495329314974,-26.979772399119227,-30.060637830875304,22.633322599007677,-11.93121494789757,11.19752544722541","78.81267020820425,-34.69175621115891,27.54749101238034,2.435276070870828,-2.8028343745967654,28.95188796644687,24.860433185040158,-5.364283671987359","0","0"
"491","86","text","0","137","1247078","0-0","","","","","","","","","","","","","","","","","","","","","","","","","","","","","","","","","","","","",""
"","","plant-game","0","138","1260223","0-0","","200","190","8","CORN CROP","Left","200","120","2","THISTLE WEED","experimental","56","1,2,3,4,5,6,7,8","190,220.58581099596722,236.43643655434605,262.5339522677715,261.29809272791033,230.16533729650314,226.53373446022147,253.06731680280194","8,7,6,5,4,3,2,1","CORN CROP,CORN CROP,CORN CROP,CORN CROP,CORN CROP,CORN CROP,CORN CROP,CORN CROP","120,142.62476852766463,140,119.05814751350954,135.56578803190573,151.57646962481607,169.86068887652624,215.7864677672767","2,1,6,5,4,3,2,1","THISTLE WEED,THISTLE WEED,NETTLE WEED,NETTLE WEED,NETTLE WEED,NETTLE WEED,NETTLE WEED,NETTLE WEED","20,20,20,20,20,20,20,20","20,20,20,20,20,20,20,20","10,10,10,10,10,10,10,10","20,20,20,20,20,20,20,20","0,0,0,0,0,0,0,0","20,20,20,20,20,20,20,20","20,20,20,20,20,20,20,20","20,20,20,20,20,20,20,20","10,10,10,10,10,10,10,10","20,20,20,20,20,20,20,20","0,0,0,0,0,0,0,0","20,20,20,20,20,20,20,20","0,1,1,1,1,1,1,1","2276,1046,1591,430,334,255,450,1615","30.58581099596723,15.850625558378816,26.097515713425437,-1.2358595398611898,-31.132755431407197,-3.631602836281664,26.533582342580488,-40.22354593238461","22.62476852766464,-24.416690541993475,-20.94185248649047,16.50764051839618,16.01068159291036,18.28421925171018,45.925778890750465,40.70471979501919","0","0"
"444","86","text","0","139","1260774","0-0","","","","","","","","","","","","","","","","","","","","","","","","","","","","","","","","","","","","",""
"","","plant-game","0","140","1275293","0-0","","200","180","4","CORN CROP","Left","200","190","8","NETTLE WEED","experimental","57","1,2,3,4,5,6,7,8","180,173.33404828373358,192.88100866530743,196.11424435517864,160,204.02711065267803,191.4768850050382,184.85174345642457","4,3,2,1,4,3,2,1","CORN CROP,CORN CROP,CORN CROP,CORN CROP,WHEAT CROP,WHEAT CROP,WHEAT CROP,WHEAT CROP","190,196.74112255429247,244.28301386467467,270.198500620497,291.575628956587,336.6477975563985,356.08779916655925,365.3892957083682","8,7,6,5,4,3,2,1","NETTLE WEED,NETTLE WEED,NETTLE WEED,NETTLE WEED,NETTLE WEED,NETTLE WEED,NETTLE WEED,NETTLE WEED","20,20,20,20,20,20,20,20","20,20,20,20,20,20,20,20","10,10,10,10,10,10,10,10","20,20,20,20,20,20,20,20","0,0,0,0,0,0,0,0","20,20,20,20,20,20,20,20","20,20,20,20,20,20,20,20","20,20,20,20,20,20,20,20","10,10,10,10,10,10,10,10","20,20,20,20,20,20,20,20","0,0,0,0,0,0,0,0","20,20,20,20,20,20,20,20","0,0,0,0,1,1,1,1","1141,392,965,869,3499,1504,750,369","-6.665951716266424,19.546960381573843,3.233235689871197,53.30713943007494,44.027110652678026,-12.550225647639824,-6.6251415486136525,-16.94234604977292","6.741122554292469,47.54189131038221,25.915486755822336,21.377128336090063,45.07216859981145,19.440001610160795,9.301496541808943,17.305274223490496","0","0"
"439","86","text","0","141","1275822","0-0","","","","","","","","","","","","","","","","","","","","","","","","","","","","","","","","","","","","",""
"","","plant-game","0","142","1289813","0-0","","200","160","2","CORN CROP","Left","200","160","8","THISTLE WEED","experimental","58","1,2,3,4,5,6,7,8","160,199.12389508694554,140,134.78303051795692,86.53932131540941,78.36134437632955,61.89927196665725,39.0246822603867","2,1,6,5,4,3,2,1","CORN CROP,CORN CROP,WHEAT CROP,WHEAT CROP,WHEAT CROP,WHEAT CROP,WHEAT CROP,WHEAT CROP","160,191.4770897441885,185.166209689158,208.31877249619214,220.52542379205758,203.83484801747855,200.86221529280147,212.81907044826286","8,7,6,5,4,3,2,1","THISTLE WEED,THISTLE WEED,THISTLE WEED,THISTLE WEED,THISTLE WEED,THISTLE WEED,THISTLE WEED,THISTLE WEED","20,20,20,20,20,20,20,20","20,20,20,20,20,20,20,20","10,10,10,10,10,10,10,10","20,20,20,20,20,20,20,20","0,0,0,0,0,0,0,0","20,20,20,20,20,20,20,20","20,20,20,20,20,20,20,20","20,20,20,20,20,20,20,20","10,10,10,10,10,10,10,10","20,20,20,20,20,20,20,20","0,0,0,0,0,0,0,0","20,20,20,20,20,20,20,20","0,1,1,1,1,1,1,1","1875,1882,1803,973,518,757,372,557","39.123895086945545,4.391884858902348,-5.216969482043088,-48.24370920254751,-8.177976939079848,-16.4620724096723,-22.87458970627055,6.246144536842824","31.47708974418849,-6.310880055030513,23.15256280703413,12.206651295865441,-16.690575774579028,-2.972632724677097,11.956855155461401,-6.660659939530525","0","0"
"1467","86","text","0","143","1291470","0-0","","","","","","","","","","","","","","","","","","","","","","","","","","","","","","","","","","","","",""
"","","plant-game","0","144","1304279","0-0","","200","120","4","WHEAT CROP","Right","200","120","2","THISTLE WEED","experimental","59","1,2,3,4","120,142.0825614340256,180,181.62805553193598","2,1,2,1","THISTLE WEED,THISTLE WEED,NETTLE WEED,NETTLE WEED","120,137.40836581897716,138.5532304341018,185.41720505169113","4,3,2,1","WHEAT CROP,WHEAT CROP,WHEAT CROP,WHEAT CROP","0,0,0,0","20,20,20,20","10,10,10,10","20,20,20,20","20,20,20,20","20,20,20,20","0,0,0,0","20,20,20,20","10,10,10,10","20,20,20,20","20,20,20,20","20,20,20,20","1,1,1,1","3655,487,1855,1824","22.082561434025596,55.94967114320512,1.628055531935992,29.106959032182502","17.408365818977153,1.1448646151246535,46.86397461758932,-3.2424818225807783","0","0"
"475","86","text","0","145","1304854","0-0","","","","","","","","","","","","","","","","","","","","","","","","","","","","","","","","","","","","",""
"","","plant-game","0","146","1317077","0-0","","200","180","2","WHEAT CROP","Left","200","190","8","THISTLE WEED","experimental","60","1,2,3,4,5,6,7,8","180,204.7370209247997,140,179.3042662289651,180.81703668556034,197.3386480933455,192.30171461297732,164.8710637863204","2,1,6,5,4,3,2,1","WHEAT CROP,WHEAT CROP,CORN CROP,CORN CROP,CORN CROP,CORN CROP,CORN CROP,CORN CROP","190,198.66722363854137,234.98515317807767,259.7394590757968,281.0178910235391,317.57348343664637,294.33838871237504,321.2808442680781","8,7,6,5,4,3,2,1","THISTLE WEED,THISTLE WEED,THISTLE WEED,THISTLE WEED,THISTLE WEED,THISTLE WEED,THISTLE WEED,THISTLE WEED","20,20,20,20,20,20,20,20","20,20,20,20,20,20,20,20","10,10,10,10,10,10,10,10","20,20,20,20,20,20,20,20","0,0,0,0,0,0,0,0","20,20,20,20,20,20,20,20","20,20,20,20,20,20,20,20","20,20,20,20,20,20,20,20","10,10,10,10,10,10,10,10","20,20,20,20,20,20,20,20","0,0,0,0,0,0,0,0","20,20,20,20,20,20,20,20","0,1,0,0,1,1,1,1","1459,773,2461,961,620,315,370,1041","24.737020924799722,-1.7115103087247956,39.30426622896511,1.5127704565952236,16.52161140778518,-5.036933480368201,-27.430650826656915,-17.11855355496668","8.66722363854138,36.317929539536294,24.7543058977191,21.278431947742323,36.555592413107235,-23.23509472427132,26.94245555570309,-5.3540008331275954","0","0"
"387","86","text","0","147","1317574","0-0","","","","","","","","","","","","","","","","","","","","","","","","","","","","","","","","","","","","",""
"","","plant-game","0","148","1326099","0-0","","200","120","2","CORN CROP","Right","200","160","2","THISTLE WEED","experimental","61","1,2","160,184.60916250809242","2,1","THISTLE WEED,THISTLE WEED","120,109.61069753723957","2,1","CORN CROP,CORN CROP","0,0","20,20","10,10","20,20","20,20","20,20","0,0","20,20","10,10","20,20","20,20","20,20","0,1","1776,3637","24.60916250809243,-3.659854813422598","-10.389302462760423,41.011232428826986","0","0"
"477","86","text","0","149","1326716","0-0","","","","","","","","","","","","","","","","","","","","","","","","","","","","","","","","","","","","",""
"","","plant-game","0","150","1332494","0-0","","200","160","1","WHEAT CROP","Left","200","120","1","THISTLE WEED","experimental","62","1","160","1","WHEAT CROP","120","1","THISTLE WEED","20","20","10","20","0","20","20","20","10","20","0","20","0","2336","21.460616993926223","20.158310275924862","0","0"
"469","86","text","0","151","1333135","0-0","","","","","","","","","","","","","","","","","","","","","","","","","","","","","","","","","","","","",""
"","","plant-game","0","152","1343067","0-0","","200","190","4","CORN CROP","Left","200","190","2","NETTLE WEED","experimental","63","1,2,3,4","190,214.5873628412133,203.88730213935492,207.3055479125281","4,3,2,1","CORN CROP,CORN CROP,CORN CROP,CORN CROP","190,189.62993006948923,180,147.0676564665301","2,1,2,1","NETTLE WEED,NETTLE WEED,THISTLE WEED,THISTLE WEED","20,20,20,20","20,20,20,20","10,10,10,10","20,20,20,20","0,0,0,0","20,20,20,20","20,20,20,20","20,20,20,20","10,10,10,10","20,20,20,20","0,0,0,0","20,20,20,20","1,1,1,1","3736,735,883,297","24.58736284121329,-10.70006070185837,3.4182457731731897,22.536789612245318","-0.37006993051077514,3.154374911103922,-32.9323435334699,2.558359168530933","0","0"
"406","86","text","0","153","1343603","0-0","","","","","","","","","","","","","","","","","","","","","","","","","","","","","","","","","","","","",""
"","","plant-game","0","154","1356712","0-0","","200","160","8","CORN CROP","Left","200","190","8","THISTLE WEED","experimental","64","1,2,3,4,5,6,7,8","160,173.4389312031748,145.42268219753885,159.62082913668422,168.8469686444907,174.13538721745138,169.05127789662214,245.30999637286823","8,7,6,5,4,3,2,1","CORN CROP,CORN CROP,CORN CROP,CORN CROP,CORN CROP,CORN CROP,CORN CROP,CORN CROP","190,181.26833013938835,200.05459182653232,185.57722703761561,174.8106724192985,187.87401043874544,215.52909970994057,228.65039305219165","8,7,6,5,4,3,2,1","THISTLE WEED,THISTLE WEED,THISTLE WEED,THISTLE WEED,THISTLE WEED,THISTLE WEED,THISTLE WEED,THISTLE WEED","20,20,20,20,20,20,20,20","20,20,20,20,20,20,20,20","10,10,10,10,10,10,10,10","20,20,20,20,20,20,20,20","0,0,0,0,0,0,0,0","20,20,20,20,20,20,20,20","20,20,20,20,20,20,20,20","20,20,20,20,20,20,20,20","10,10,10,10,10,10,10,10","20,20,20,20,20,20,20,20","0,0,0,0,0,0,0,0","20,20,20,20,20,20,20,20","1,1,1,1,1,1,1,1","4502,401,548,680,371,713,595,1426","13.438931203174798,-28.01624900563597,14.198146939145381,9.226139507806458,5.2884185729606825,-5.084109320829243,76.2587184762461,1.9706449867828566","-8.731669860611646,18.786261687143963,-14.477364788916699,-10.766554618317103,13.06333801944694,27.65508927119512,13.121293342251068,12.473142596654316","0","0"
"3530","86","text","0","155","1360422","0-0","","","","","","","","","","","","","","","","","","","","","","","","","","","","","","","","","","","","",""
"","","plant-game","0","156","1372812","0-0","","200","190","4","WHEAT CROP","Right","200","160","4","NETTLE WEED","experimental","65","1,2,3,4","160,125.4473294074078,144.18841339838855,165.6508169235327","4,3,2,1","NETTLE WEED,NETTLE WEED,NETTLE WEED,NETTLE WEED","190,184.51275860526644,164.23671842170037,199.5392037237857","4,3,2,1","WHEAT CROP,WHEAT CROP,WHEAT CROP,WHEAT CROP","0,0,0,0","20,20,20,20","10,10,10,10","20,20,20,20","20,20,20,20","20,20,20,20","0,0,0,0","20,20,20,20","10,10,10,10","20,20,20,20","20,20,20,20","20,20,20,20","0,0,1,1","6911,408,825,806","-34.55267059259219,18.74108399098073,21.462403525144143,47.49232389611758","-5.487241394733555,-20.27604018356607,35.302485302085316,29.85359240286659","0","0"
"425","86","text","0","157","1373357","0-0","","","","","","","","","","","","","","","","","","","","","","","","","","","","","","","","","","","","",""
"","","plant-game","0","158","1389099","0-0","","200","180","1","WHEAT CROP","Left","200","120","8","NETTLE WEED","experimental","66","1,2,3,4,5,6,7,8","180,130,145.39936700285412,178.28698759369888,181.70920865891526,175.04847457104535,193.49945770615088,207.2834443761693","1,7,6,5,4,3,2,1","WHEAT CROP,CORN CROP,CORN CROP,CORN CROP,CORN CROP,CORN CROP,CORN CROP,CORN CROP","120,132.69214284046564,133.92474006919545,141.5974377645521,150.37804313541415,167.3043636125656,142.50457258240579,121.50235030717101","8,7,6,5,4,3,2,1","NETTLE WEED,NETTLE WEED,NETTLE WEED,NETTLE WEED,NETTLE WEED,NETTLE WEED,NETTLE WEED,NETTLE WEED","20,20,20,20,20,20,20,20","20,20,20,20,20,20,20,20","10,10,10,10,10,10,10,10","20,20,20,20,20,20,20,20","0,0,0,0,0,0,0,0","20,20,20,20,20,20,20,20","20,20,20,20,20,20,20,20","20,20,20,20,20,20,20,20","10,10,10,10,10,10,10,10","20,20,20,20,20,20,20,20","0,0,0,0,0,0,0,0","20,20,20,20,20,20,20,20","0,0,0,0,0,0,0,0","1952,1298,383,675,1248,1243,1152,2358","16.231825415116305,15.399367002854117,32.88762059084477,3.422221065216384,-6.660734087869919,18.45098313510552,13.783986670018447,15.168181027550853","12.692142840465623,1.2325972287298264,7.672697695356657,8.780605370862034,16.926320477151453,-24.799791030159795,-21.00222227523478,24.42322729223197","0","0"
"474","86","text","0","159","1389693","0-0","","","","","","","","","","","","","","","","","","","","","","","","","","","","","","","","","","","","",""
"","","plant-game","0","160","1400428","0-0","","200","180","8","WHEAT CROP","Left","200","120","8","THISTLE WEED","experimental","67","1,2,3,4,5,6,7,8","180,162.52237177717643,138.50170556666438,112.3235901613492,146.17030521545843,150.04103092650746,156.1989038822609,141.2765087083488","8,7,6,5,4,3,2,1","WHEAT CROP,WHEAT CROP,WHEAT CROP,WHEAT CROP,WHEAT CROP,WHEAT CROP,WHEAT CROP,WHEAT CROP","120,131.68309873161866,109.60618142261993,137.4403146206467,188.8627816209403,200.55358696930355,222.3737619723918,234.2300531697836","8,7,6,5,4,3,2,1","THISTLE WEED,THISTLE WEED,THISTLE WEED,THISTLE WEED,THISTLE WEED,THISTLE WEED,THISTLE WEED,THISTLE WEED","20,20,20,20,20,20,20,20","20,20,20,20,20,20,20,20","10,10,10,10,10,10,10,10","20,20,20,20,20,20,20,20","0,0,0,0,0,0,0,0","20,20,20,20,20,20,20,20","20,20,20,20,20,20,20,20","20,20,20,20,20,20,20,20","10,10,10,10,10,10,10,10","20,20,20,20,20,20,20,20","0,0,0,0,0,0,0,0","20,20,20,20,20,20,20,20","1,1,0,0,1,1,1,1","2468,637,934,1272,768,457,438,401","-17.477628222823583,-24.020666210512044,-26.178115405315182,33.84671505410921,3.8707257110490363,6.1578729557534375,-14.922395173912086,-10.58781013358739","11.68309873161865,-22.07691730899873,27.834133198026773,51.422467000293615,11.690805348363266,21.82017500308826,11.856291197391771,-28.02432495924325","0","0"
"337","86","text","0","161","1400899","0-0","","","","","","","","","","","","","","","","","","","","","","","","","","","","","","","","","","","","",""
"","","plant-game","0","162","1412199","0-0","","200","160","4","CORN CROP","Right","200","160","2","NETTLE WEED","experimental","68","1,2,3,4","160,185.26634626767742,180,214.25954037839858","2,1,2,1","NETTLE WEED,NETTLE WEED,THISTLE WEED,THISTLE WEED","160,176.45071692414942,185.7071124336376,204.9775476328295","4,3,2,1","CORN CROP,CORN CROP,CORN CROP,CORN CROP","0,0,0,0","20,20,20,20","10,10,10,10","20,20,20,20","20,20,20,20","20,20,20,20","0,0,0,0","20,20,20,20","10,10,10,10","20,20,20,20","20,20,20,20","20,20,20,20","1,0,1,0","3668,842,960,1593","25.266346267677434,54.20422568359646,34.25954037839858,-14.443698046889619","16.450716924149408,9.256395509488174,19.27043519919191,27.636530535920727","0","0"
"453","86","text","0","163","1412789","0-0","","","","","","","","","","","","","","","","","","","","","","","","","","","","","","","","","","","","",""
"","","plant-game","0","164","1425421","0-0","","200","180","8","WHEAT CROP","Left","200","120","1","NETTLE WEED","experimental","69","1,2,3,4,5,6,7,8","180,217.41356593576143,214.24753677862958,186.5744132802687,190.52314312493465,198.13079637777656,207.5451098991214,207.85344608415298","8,7,6,5,4,3,2,1","WHEAT CROP,WHEAT CROP,WHEAT CROP,WHEAT CROP,WHEAT CROP,WHEAT CROP,WHEAT CROP,WHEAT CROP","120,130,153.19959967322458,180.49527608730477,243.59368040620626,274.00750915173995,271.2219200958019,277.69758960982534","1,7,6,5,4,3,2,1","NETTLE WEED,THISTLE WEED,THISTLE WEED,THISTLE WEED,THISTLE WEED,THISTLE WEED,THISTLE WEED,THISTLE WEED","20,20,20,20,20,20,20,20","20,20,20,20,20,20,20,20","10,10,10,10,10,10,10,10","20,20,20,20,20,20,20,20","0,0,0,0,0,0,0,0","20,20,20,20,20,20,20,20","20,20,20,20,20,20,20,20","20,20,20,20,20,20,20,20","10,10,10,10,10,10,10,10","20,20,20,20,20,20,20,20","0,0,0,0,0,0,0,0","20,20,20,20,20,20,20,20","0,1,1,0,1,1,1,1","2393,1016,371,573,837,419,245,170","37.41356593576143,-3.1660291571318484,-27.673123498360894,3.948729844665973,7.607653252841917,9.414313521344827,0.30833618503157734,5.666078010776033","3.3926964937575015,23.19959967322459,27.295676414080184,63.09840431890149,30.413828745533674,-2.7855890559380176,6.47566951402343,7.573487509777735","0","0"
"468","86","text","0","165","1425989","0-0","","","","","","","","","","","","","","","","","","","","","","","","","","","","","","","","","","","","",""
"","","plant-game","0","166","1432288","0-0","","200","190","1","WHEAT CROP","Left","200","160","1","THISTLE WEED","experimental","70","1","190","1","WHEAT CROP","160","1","THISTLE WEED","20","20","10","20","0","20","20","20","10","20","0","20","0","3474","14.171072870516028","11.810448402639981","0","0"
"404","86","text","0","167","1432853","0-0","","","","","","","","","","","","","","","","","","","","","","","","","","","","","","","","","","","","",""
"","","plant-game","0","168","1444310","0-0","","200","180","8","WHEAT CROP","Right","200","160","8","THISTLE WEED","experimental","71","1,2,3,4,5,6,7,8","160,186.88645438590078,225.98182071047643,223.07847191608792,218.08311579068513,252.0055634836573,284.28558998967736,300.95634311683983","8,7,6,5,4,3,2,1","THISTLE WEED,THISTLE WEED,THISTLE WEED,THISTLE WEED,THISTLE WEED,THISTLE WEED,THISTLE WEED,THISTLE WEED","180,181.9859451774535,200.9164433508889,170.42512441181321,164.44865803324433,162.37727748321353,157.22417199099857,116.84681586793693","8,7,6,5,4,3,2,1","WHEAT CROP,WHEAT CROP,WHEAT CROP,WHEAT CROP,WHEAT CROP,WHEAT CROP,WHEAT CROP,WHEAT CROP","0,0,0,0,0,0,0,0","20,20,20,20,20,20,20,20","10,10,10,10,10,10,10,10","20,20,20,20,20,20,20,20","20,20,20,20,20,20,20,20","20,20,20,20,20,20,20,20","0,0,0,0,0,0,0,0","20,20,20,20,20,20,20,20","10,10,10,10,10,10,10,10","20,20,20,20,20,20,20,20","20,20,20,20,20,20,20,20","20,20,20,20,20,20,20,20","1,1,0,0,0,0,0,0","2246,583,1834,779,345,627,324,787","26.88645438590078,39.095366324575636,-2.903348794388508,-4.995356125402786,33.92244769297219,32.28002650602006,16.67075312716247,-11.513741888258204","1.9859451774534769,18.930498173435414,-30.491318939075693,-5.9764663785688965,-2.071380550030783,-5.153105492214952,-40.37735612306165,-28.28484094694277","0","0"
"1543","86","text","0","169","1446003","0-0","","","","","","","","","","","","","","","","","","","","","","","","","","","","","","","","","","","","",""
"","","plant-game","0","170","1459850","0-0","","200","160","8","WHEAT CROP","Right","200","120","1","THISTLE WEED","experimental","72","1,2,3,4,5,6,7,8","120,130,123.61155391962292,107.23604167084864,81.6184869957969,93.05093685114875,102.73956327592448,100.27552248542976","1,7,6,5,4,3,2,1","THISTLE WEED,NETTLE WEED,NETTLE WEED,NETTLE WEED,NETTLE WEED,NETTLE WEED,NETTLE WEED,NETTLE WEED","160,197.39297135575237,215.3211018962738,227.52664671325505,251.57998199843348,278.76428790241647,278.4594026825483,242.6301082946518","8,7,6,5,4,3,2,1","WHEAT CROP,WHEAT CROP,WHEAT CROP,WHEAT CROP,WHEAT CROP,WHEAT CROP,WHEAT CROP,WHEAT CROP","0,0,0,0,0,0,0,0","20,20,20,20,20,20,20,20","10,10,10,10,10,10,10,10","20,20,20,20,20,20,20,20","20,20,20,20,20,20,20,20","20,20,20,20,20,20,20,20","0,0,0,0,0,0,0,0","20,20,20,20,20,20,20,20","10,10,10,10,10,10,10,10","20,20,20,20,20,20,20,20","20,20,20,20,20,20,20,20","20,20,20,20,20,20,20,20","1,1,0,0,0,0,0,0","3607,2936,634,310,148,89,329,76","15.924831007727816,-6.388446080377079,-16.375512248774278,-25.61755467505173,11.43244985535185,9.688626424775729,-2.464040790494721,16.524593972945617","37.39297135575235,17.92813054052143,12.205544816981241,24.053335285178427,27.18430590398299,-0.3048852198682035,-35.82929438789647,38.34820736759016","0","0"
"562","86","text","0","171","1460542","0-0","","","","","","","","","","","","","","","","","","","","","","","","","","","","","","","","","","","","",""
"","","plant-game","0","172","1466906","0-0","","200","120","2","WHEAT CROP","Right","200","190","2","NETTLE WEED","experimental","73","1,2","190,197.2612478771062","2,1","NETTLE WEED,NETTLE WEED","120,120.89208183261535","2,1","WHEAT CROP,WHEAT CROP","0,0","20,20","10,10","20,20","20,20","20,20","0,0","20,20","10,10","20,20","20,20","20,20","0,1","2448,896","7.261247877106211,-2.656763528091073","0.8920818326153406,20.902007905938806","0","0"
"382","86","text","0","173","1467428","0-0","","","","","","","","","","","","","","","","","","","","","","","","","","","","","","","","","","","","",""
"","","plant-game","0","174","1471851","0-0","","200","120","1","CORN CROP","Left","200","160","1","NETTLE WEED","experimental","74","1","120","1","CORN CROP","160","1","NETTLE WEED","20","20","10","20","0","20","20","20","10","20","0","20","0","2130","7.834874245545487","26.60366403323931","0","0"
"424","86","text","0","175","1472375","0-0","","","","","","","","","","","","","","","","","","","","","","","","","","","","","","","","","","","","",""
"","","plant-game","0","176","1485240","0-0","","200","160","4","WHEAT CROP","Left","200","160","8","NETTLE WEED","experimental","75","1,2,3,4,5,6,7,8","160,193.22133931115144,238.5758884925499,229.92939658938275,160,174.1669652831344,220.9640852932675,242.82343015461936","4,3,2,1,4,3,2,1","WHEAT CROP,WHEAT CROP,WHEAT CROP,WHEAT CROP,CORN CROP,CORN CROP,CORN CROP,CORN CROP","160,159.085353768757,172.51047676492158,171.29943103800116,175.66480760457287,203.86649314183884,220.6485449149088,235.35292460348262","8,7,6,5,4,3,2,1","NETTLE WEED,NETTLE WEED,NETTLE WEED,NETTLE WEED,NETTLE WEED,NETTLE WEED,NETTLE WEED,NETTLE WEED","20,20,20,20,20,20,20,20","20,20,20,20,20,20,20,20","10,10,10,10,10,10,10,10","20,20,20,20,20,20,20,20","0,0,0,0,0,0,0,0","20,20,20,20,20,20,20,20","20,20,20,20,20,20,20,20","20,20,20,20,20,20,20,20","10,10,10,10,10,10,10,10","20,20,20,20,20,20,20,20","0,0,0,0,0,0,0,0","20,20,20,20,20,20,20,20","0,0,1,1,0,0,1,1","2788,755,624,266,1588,661,596,461","33.22133931115144,45.35454918139846,-8.646491903167153,-3.1567121305021626,14.166965283134394,46.79712001013307,21.859344861351882,-2.0870105656684297","-0.9146462312430117,13.425122996164596,-1.2110457269204047,4.365376566571716,28.20168553726598,16.782051773069952,14.704379688573813,-9.833869353704378","0","0"
"470","86","text","0","177","1485836","0-0","","","","","","","","","","","","","","","","","","","","","","","","","","","","","","","","","","","","",""
"","","plant-game","0","178","1492222","0-0","","200","190","1","WHEAT CROP","Right","200","120","2","NETTLE WEED","experimental","76","1,2","120,136.3885185830793","2,1","NETTLE WEED,NETTLE WEED","190,190","1,1","WHEAT CROP,CORN CROP","0,0","20,20","10,10","20,20","20,20","20,20","0,0","20,20","10,10","20,20","20,20","20,20","1,1","1772,866","16.388518583079314,12.930264390125542","41.0478153318774,36.29687533132103","0","0"
"1277","86","text","0","179","1493609","0-0","","","","","","","","","","","","","","","","","","","","","","","","","","","","","","","","","","","","",""
"","","plant-game","0","180","1504861","0-0","","200","120","2","WHEAT CROP","Left","200","120","1","NETTLE WEED","experimental","77","1,2","120,147.13425669248647","2,1","WHEAT CROP,WHEAT CROP","120,190","1,1","NETTLE WEED,THISTLE WEED","20,20","20,20","10,10","20,20","0,0","20,20","20,20","20,20","10,10","20,20","0,0","20,20","0,1","3524,2719","27.134256692486474,-7.039528850168918","19.611361914435374,32.50281754953279","0","0"
"495","86","text","0","181","1505476","0-0","","","","","","","","","","","","","","","","","","","","","","","","","","","","","","","","","","","","",""
"","","plant-game","0","182","1516144","0-0","","200","180","4","CORN CROP","Left","200","180","1","THISTLE WEED","experimental","78","1,2,3,4","180,179.31459380793956,160.90693753064184,183.45230699644276","4,3,2,1","CORN CROP,CORN CROP,CORN CROP,CORN CROP","180,170,198.91745192866867,258.679143559091","1,3,2,1","THISTLE WEED,NETTLE WEED,NETTLE WEED,NETTLE WEED","20,20,20,20","20,20,20,20","10,10,10,10","20,20,20,20","0,0,0,0","20,20,20,20","20,20,20,20","20,20,20,20","10,10,10,10","20,20,20,20","0,0,0,0","20,20,20,20","0,0,0,0","3871,584,1015,650","-0.6854061920604266,-18.407656277297725,22.545369465800917,8.614934413188571","59.58088032382727,28.917451928668672,59.76169163042232,21.470890642242107","0","0"
"463","86","text","0","183","1516747","0-0","","","","","","","","","","","","","","","","","","","","","","","","","","","","","","","","","","","","",""
"","","plant-game","0","184","1529239","0-0","","200","180","4","CORN CROP","Left","200","180","8","THISTLE WEED","experimental","79","1,2,3,4,5,6,7,8","180,178.6655314029504,162.33643253642003,176.1560214365009,160,187.11297034195223,227.00297116406574,238.84671800190594","4,3,2,1,4,3,2,1","CORN CROP,CORN CROP,CORN CROP,CORN CROP,WHEAT CROP,WHEAT CROP,WHEAT CROP,WHEAT CROP","180,226.75423805350894,226.53796490534455,241.30294000701332,271.88327738257505,284.8586517895161,289.8083045460155,296.4080957832071","8,7,6,5,4,3,2,1","THISTLE WEED,THISTLE WEED,THISTLE WEED,THISTLE WEED,THISTLE WEED,THISTLE WEED,THISTLE WEED,THISTLE WEED","20,20,20,20,20,20,20,20","20,20,20,20,20,20,20,20","10,10,10,10,10,10,10,10","20,20,20,20,20,20,20,20","0,0,0,0,0,0,0,0","20,20,20,20,20,20,20,20","20,20,20,20,20,20,20,20","20,20,20,20,20,20,20,20","10,10,10,10,10,10,10,10","20,20,20,20,20,20,20,20","0,0,0,0,0,0,0,0","20,20,20,20,20,20,20,20","0,0,0,0,0,1,1,1","3919,481,353,196,1521,493,517,90","-1.3344685970496144,-16.329098866530344,13.819588900080863,34.21584421533402,27.11297034195225,39.89000082211352,11.843746837840213,-24.778305016977903","46.754238053508935,-0.2162731481643867,14.764975101668782,30.580337375561705,12.975374406941059,4.949652756499376,6.599791237191582,-33.26595480059491","0","0"
"733","86","text","0","185","1530089","0-0","","","","","","","","","","","","","","","","","","","","","","","","","","","","","","","","","","","","",""
"","","plant-game","0","186","1540964","0-0","","200","190","2","WHEAT CROP","Left","200","190","8","NETTLE WEED","experimental","80","1,2,3,4,5,6,7,8","190,212.70209772380394,140,178.970434785635,142.2688153184555,178.78331738206487,171.8742401744546,164.35164872514144","2,1,6,5,4,3,2,1","WHEAT CROP,WHEAT CROP,CORN CROP,CORN CROP,CORN CROP,CORN CROP,CORN CROP,CORN CROP","190,225.00532692514992,240.18330951098403,267.72563467993353,257.79919421383113,261.15530113401394,256.4490171504203,282.64804511418157","8,7,6,5,4,3,2,1","NETTLE WEED,NETTLE WEED,NETTLE WEED,NETTLE WEED,NETTLE WEED,NETTLE WEED,NETTLE WEED,NETTLE WEED","20,20,20,20,20,20,20,20","20,20,20,20,20,20,20,20","10,10,10,10,10,10,10,10","20,20,20,20,20,20,20,20","0,0,0,0,0,0,0,0","20,20,20,20,20,20,20,20","20,20,20,20,20,20,20,20","20,20,20,20,20,20,20,20","10,10,10,10,10,10,10,10","20,20,20,20,20,20,20,20","0,0,0,0,0,0,0,0","20,20,20,20,20,20,20,20","0,1,0,1,1,1,1,1","2983,605,1527,445,622,37,50,52","22.702097723803956,-16.67889311572764,38.97043478563501,-36.701619467179526,36.514502063609356,-6.909077207610272,-7.522591449313155,19.263181296818836","35.00532692514993,15.177982585834112,27.542325168949528,-9.92644046610242,3.3561069201828264,-4.706283983593641,26.199027963761278,21.88337481620842","0","0"
"2354","86","text","0","187","1543448","0-0","","","","","","","","","","","","","","","","","","","","","","","","","","","","","","","","","","","","",""
"","","plant-game","0","188","1554806","0-0","","200","190","1","CORN CROP","Right","200","180","4","NETTLE WEED","experimental","81","1,2,3,4","180,201.332501583058,192.56725833466277,224.86870163346327","4,3,2,1","NETTLE WEED,NETTLE WEED,NETTLE WEED,NETTLE WEED","190,170,228.61206276306643,221.73569024051199","1,3,2,1","CORN CROP,WHEAT CROP,WHEAT CROP,WHEAT CROP","0,0,0,0","20,20,20,20","10,10,10,10","20,20,20,20","20,20,20,20","20,20,20,20","0,0,0,0","20,20,20,20","10,10,10,10","20,20,20,20","20,20,20,20","20,20,20,20","1,1,0,0","3032,1740,1501,642","21.332501583057983,-8.765243248395215,32.30144329880051,17.169759409744987","32.07974457056061,58.61206276306643,-6.876372522554459,-23.923945386494843","0","0"
"360","86","text","0","189","1555306","0-0","","","","","","","","","","","","","","","","","","","","","","","","","","","","","","","","","","","","",""
"","","plant-game","0","190","1565732","0-0","","200","180","1","CORN CROP","Left","200","180","2","NETTLE WEED","experimental","82","1,2","180,190","1,1","CORN CROP,WHEAT CROP","180,192.7596192020632","2,1","NETTLE WEED,NETTLE WEED","20,20","20,20","10,10","20,20","0,0","20,20","20,20","20,20","10,10","20,20","0,0","20,20","0,0","4708,1657","8.85247658493099,14.80383745790013","12.759619202063181,32.006389164662366","0","0"
"469","86","text","0","191","1566301","0-0","","","","","","","","","","","","","","","","","","","","","","","","","","","","","","","","","","","","",""
"","","plant-game","0","192","1577381","0-0","","200","160","8","CORN CROP","Left","200","120","2","NETTLE WEED","experimental","83","1,2,3,4,5,6,7,8","160,169.27535871035414,210.63407354958434,204.01767343480182,203.76901545236876,207.10384232051916,236.51595899696406,236.92259500529786","8,7,6,5,4,3,2,1","CORN CROP,CORN CROP,CORN CROP,CORN CROP,CORN CROP,CORN CROP,CORN CROP,CORN CROP","120,139.38748284258128,140,117.54588296474398,85.77680144273154,84.39704102058793,75.07920682129118,50.98593576326472","2,1,6,5,4,3,2,1","NETTLE WEED,NETTLE WEED,THISTLE WEED,THISTLE WEED,THISTLE WEED,THISTLE WEED,THISTLE WEED,THISTLE WEED","20,20,20,20,20,20,20,20","20,20,20,20,20,20,20,20","10,10,10,10,10,10,10,10","20,20,20,20,20,20,20,20","0,0,0,0,0,0,0,0","20,20,20,20,20,20,20,20","20,20,20,20,20,20,20,20","20,20,20,20,20,20,20,20","10,10,10,10,10,10,10,10","20,20,20,20,20,20,20,20","0,0,0,0,0,0,0,0","20,20,20,20,20,20,20,20","0,0,1,1,1,1,1,1","1524,377,1493,823,443,285,399,305","9.275358710354137,41.35871483923021,-6.616400114782509,-0.24865798243305287,3.3348268681503903,29.412116676444903,0.40663600833381053,15.469295754960564","19.387482842581278,13.299285610603434,-22.454117035256015,-31.76908152201245,-1.379760422143598,-9.31783419929676,-24.093271058026463,-28.059845659005408","0","0"
"555","86","text","0","193","1578036","0-0","","","","","","","","","","","","","","","","","","","","","","","","","","","","","","","","","","","","",""
"","","plant-game","0","194","1587266","0-0","","200","120","4","CORN CROP","Left","200","190","4","NETTLE WEED","experimental","84","1,2,3,4","120,145.86714584032478,128.6088298336371,113.78061348065953","4,3,2,1","CORN CROP,CORN CROP,CORN CROP,CORN CROP","190,212.7894445795145,186.10114551473586,159.67306220770405","4,3,2,1","NETTLE WEED,NETTLE WEED,NETTLE WEED,NETTLE WEED","20,20,20,20","20,20,20,20","10,10,10,10","20,20,20,20","0,0,0,0","20,20,20,20","20,20,20,20","20,20,20,20","10,10,10,10","20,20,20,20","0,0,0,0","20,20,20,20","0,1,1,0","2242,1697,1293,798","25.86714584032477,-17.258316006687693,-14.828216352977567,37.55578600137231","22.789444579514505,-26.688299064778636,-26.428083307031823,35.07951314066792","0","0"
"530","86","text","0","195","1587876","0-0","","","","","","","","","","","","","","","","","","","","","","","","","","","","","","","","","","","","",""
"","","plant-game","0","196","1598546","0-0","","200","120","2","WHEAT CROP","Left","200","180","1","THISTLE WEED","experimental","85","1,2","120,127.83954795366951","2,1","WHEAT CROP,WHEAT CROP","180,190","1,1","THISTLE WEED,NETTLE WEED","20,20","20,20","10,10","20,20","0,0","20,20","20,20","20,20","10,10","20,20","0,0","20,20","0,1","3897,2095","7.839547953669513,13.21618765896124","28.26516488418812,-15.56146804581643","0","0"
"591","86","text","0","197","1599207","0-0","","","","","","","","","","","","","","","","","","","","","","","","","","","","","","","","","","","","",""
"","","plant-game","0","198","1629798","0-0","","200","180","2","CORN CROP","Right","200","120","2","NETTLE WEED","experimental","86","1,2","120,143.81057775839508","2,1","NETTLE WEED,NETTLE WEED","180,183.78441540824437","2,1","CORN CROP,CORN CROP","0,0","20,20","10,10","20,20","20,20","20,20","0,0","20,20","10,10","20,20","20,20","20,20","1,1","26542,592","23.810577758395077,49.292980345932506","3.78441540824436,32.55843273538029","0","0"
"420","86","text","0","199","1630298","0-0","","","","","","","","","","","","","","","","","","","","","","","","","","","","","","","","","","","","",""
"","","plant-game","0","200","1641151","0-0","","200","160","4","WHEAT CROP","Right","200","190","1","NETTLE WEED","experimental","87","1,2,3,4","190,170,161.05792990112334,157.01122115319274","1,3,2,1","NETTLE WEED,THISTLE WEED,THISTLE WEED,THISTLE WEED","160,172.64925910856346,217.1650090826259,235.74166920885682","4,3,2,1","WHEAT CROP,WHEAT CROP,WHEAT CROP,WHEAT CROP","0,0,0,0","20,20,20,20","10,10,10,10","20,20,20,20","20,20,20,20","20,20,20,20","0,0,0,0","20,20,20,20","10,10,10,10","20,20,20,20","20,20,20,20","20,20,20,20","0,1,1,0","2992,1933,467,503","0.41351900520408225,-8.942070098876648,-4.046708747930605,-8.784734333703382","12.649259108563465,44.515749974062444,18.576660126230937,-39.12512014685569","0","0"
