"rt","key_press","trial_type","trial_index","trial_index_global","time_elapsed","internal_chunk_id","responses","experimental_goal_height","experimental_start_height","experimental_weeks_total","experimental_crop_type","experimental_crop_side","fixed_goal_height","fixed_start_height","fixed_weeks_total","fixed_crop_type","trial_kind","trial_number","stage","left_current_height","left_weeks_remaining","left_crop_type","right_current_height","right_weeks_remaining","right_crop_type","mean_left_growth_given_left","sd_left_growth_given_left","mean_left_growth_given_middle","sd_left_growth_given_middle","mean_left_growth_given_right","sd_left_growth_given_right","mean_right_growth_given_left","sd_right_growth_given_left","mean_right_growth_given_middle","sd_right_growth_given_middle","mean_right_growth_given_right","sd_right_growth_given_right","response","response_time","left_growth","right_growth","other_key_pressed","mouse_clicked"
"4499869","87","text","0","0","4499980","0-0","","","","","","","","","","","","","","","","","","","","","","","","","","","","","","","","","","","","",""
"2962","","survey-text","0","1","4503952","0-0","{""Q0"":""17""}","","","","","","","","","","","","","","","","","","","","","","","","","","","","","","","","","","","",""
"2401","86","text","0","2","2511","0-0","","","","","","","","","","","","","","","","","","","","","","","","","","","","","","","","","","","","",""
"","","plant-game","0","3","57218","0-0","","200","120","8","WHEAT CROP","Left","200","120","8","NETTLE WEED","practice","1","1,2,3,4,5,6,7,8","120,199.1553359619452,187.7527771242783,179.56713097340204,214.70457645898549,170.33710152754873,176.28901615187505,164.3660101076425","8,7,6,5,4,3,2,1","WHEAT CROP,WHEAT CROP,WHEAT CROP,WHEAT CROP,WHEAT CROP,WHEAT CROP,WHEAT CROP,WHEAT CROP","120,154.18680214579575,157.48553702867534,161.13846259712193,154.48184963640605,175.5891061633639,154.45902380191657,183.47643878603938","8,7,6,5,4,3,2,1","NETTLE WEED,NETTLE WEED,NETTLE WEED,NETTLE WEED,NETTLE WEED,NETTLE WEED,NETTLE WEED,NETTLE WEED","20,20,20,20,20,20,20,20","20,20,20,20,20,20,20,20","10,10,10,10,10,10,10,10","20,20,20,20,20,20,20,20","0,0,0,0,0,0,0,0","20,20,20,20,20,20,20,20","20,20,20,20,20,20,20,20","20,20,20,20,20,20,20,20","10,10,10,10,10,10,10,10","20,20,20,20,20,20,20,20","0,0,0,0,0,0,0,0","20,20,20,20,20,20,20,20","0,1,1,1,1,1,0,0","7152,7226,2444,1989,2888,1827,2410,5568","79.15533596194521,-11.40255883766691,-8.185646150876265,35.13744548558344,-44.36747493143677,5.951914624326316,-11.923006044232551,-5.447763852714957","34.186802145795745,3.298734882879576,3.652925568446596,-6.656612960715865,21.107256526957855,-21.130082361447325,29.017414984122816,37.41621596039352","0","0"
"911","86","text","0","4","58239","0-0","","","","","","","","","","","","","","","","","","","","","","","","","","","","","","","","","","","","",""
"","","plant-game","0","5","74732","0-0","","200","160","4","CORN CROP","Left","200","160","4","NETTLE WEED","practice","2","1,2,3,4","160,159.7165831980711,167.90463553763175,146.90340447176754","4,3,2,1","CORN CROP,CORN CROP,CORN CROP,CORN CROP","160,206.6440202848652,221.53456798083238,266.9860285949858","4,3,2,1","NETTLE WEED,NETTLE WEED,NETTLE WEED,NETTLE WEED","20,20,20,20","20,20,20,20","10,10,10,10","20,20,20,20","0,0,0,0","20,20,20,20","20,20,20,20","20,20,20,20","10,10,10,10","20,20,20,20","0,0,0,0","20,20,20,20","0,1,0,0","2524,1033,3172,856","-0.28341680192889385,8.188052339560628,-21.00123106586419,13.313896861193076","46.644020284865206,14.890547695967172,45.451460614153405,31.799831650744153","0","0"
"646","86","text","0","6","75488","0-0","","","","","","","","","","","","","","","","","","","","","","","","","","","","","","","","","","","","",""
"","","plant-game","0","7","93241","0-0","","200","180","2","WHEAT CROP","Right","200","180","2","NETTLE WEED","practice","3","1,2","180,171.24607876143833","2,1","NETTLE WEED,NETTLE WEED","180,199.76057439695566","2,1","WHEAT CROP,WHEAT CROP","0,0","20,20","10,10","20,20","20,20","20,20","0,0","20,20","10,10","20,20","20,20","20,20","0,0","2365,4121","-8.753921238561674,11.140879361417728","19.760574396955658,14.406787712420744","0","0"
"677","86","text","0","8","94008","0-0","","","","","","","","","","","","","","","","","","","","","","","","","","","","","","","","","","","","",""
"","","plant-game","0","9","109250","0-0","","200","190","1","CORN CROP","Left","200","190","1","NETTLE WEED","practice","4","1","190","1","CORN CROP","190","1","NETTLE WEED","20","20","10","20","0","20","20","20","10","20","0","20","1","5774","-36.92302297055194","-7.366077536225108","0","0"
"1719","86","text","0","10","111109","0-0","","","","","","","","","","","","","","","","","","","","","","","","","","","","","","","","","","","","",""
"","","plant-game","0","11","143253","0-0","","200","120","8","CORN CROP","Left","200","160","8","NETTLE WEED","practice","5","1,2,3,4,5,6,7,8","120,129.6663581520686,167.75203373117998,190.13616635555005,206.79273920625047,199.19187295007976,180.49216669200177,194.11040151494026","8,7,6,5,4,3,2,1","CORN CROP,CORN CROP,CORN CROP,CORN CROP,CORN CROP,CORN CROP,CORN CROP,CORN CROP","160,143.54244345568912,179.94993951411985,203.29295827735442,221.11744771745117,219.54580552206787,191.60124326470606,190.7497540055325","8,7,6,5,4,3,2,1","NETTLE WEED,NETTLE WEED,NETTLE WEED,NETTLE WEED,NETTLE WEED,NETTLE WEED,NETTLE WEED,NETTLE WEED","20,20,20,20,20,20,20,20","20,20,20,20,20,20,20,20","10,10,10,10,10,10,10,10","20,20,20,20,20,20,20,20","0,0,0,0,0,0,0,0","20,20,20,20,20,20,20,20","20,20,20,20,20,20,20,20","20,20,20,20,20,20,20,20","10,10,10,10,10,10,10,10","20,20,20,20,20,20,20,20","0,0,0,0,0,0,0,0","20,20,20,20,20,20,20,20","0,0,0,0,1,1,0,0","594,1980,1634,1565,1921,1327,9451,1076","9.666358152068586,38.085675579111374,22.384132624370057,16.656572850700442,-7.600866256170715,-18.699706258077974,13.618234822938486,-14.23314217606061","-16.45755654431086,36.40749605843072,23.34301876323456,17.824489440096745,-1.5716421953832955,-27.944562257361795,-0.8514892591735368,12.44687821088089","0","0"
"197","86","text","0","12","143580","0-0","","","","","","","","","","","","","","","","","","","","","","","","","","","","","","","","","","","","",""
"","","plant-game","0","13","162085","0-0","","200","180","4","CORN CROP","Left","200","160","4","THISTLE WEED","practice","6","1,2,3,4","180,194.9657291253987,215.93034595760528,201.62848409574332","4,3,2,1","CORN CROP,CORN CROP,CORN CROP,CORN CROP","160,194.58595483465723,219.64696420928829,218.8229538951079","4,3,2,1","THISTLE WEED,THISTLE WEED,THISTLE WEED,THISTLE WEED","20,20,20,20","20,20,20,20","10,10,10,10","20,20,20,20","0,0,0,0","20,20,20,20","20,20,20,20","20,20,20,20","10,10,10,10","20,20,20,20","0,0,0,0","20,20,20,20","0,0,1,1","6117,1026,2187,1283","14.965729125398695,20.964616832206595,-14.301861861861978,-11.789734206811026","34.58595483465724,25.061009374631055,-0.8240103141803922,-18.704221602087767","0","0"
"240","86","text","0","14","162435","0-0","","","","","","","","","","","","","","","","","","","","","","","","","","","","","","","","","","","","",""
"","","plant-game","0","15","174610","0-0","","200","180","2","WHEAT CROP","Left","200","190","2","NETTLE WEED","practice","7","1,2","180,157.37937443424937","2,1","WHEAT CROP,WHEAT CROP","190,171.5881656266735","2,1","NETTLE WEED,NETTLE WEED","20,20","20,20","10,10","20,20","0,0","20,20","20,20","20,20","10,10","20,20","0,0","20,20","1,0","2792,2606","-22.62062556575063,30.450686552998896","-18.411834373326506,23.207754161333707","0","0"
"106","86","text","0","16","174825","0-0","","","","","","","","","","","","","","","","","","","","","","","","","","","","","","","","","","","","",""
"","","plant-game","0","17","211648","0-0","","200","120","4","WHEAT CROP","Right","200","120","8","THISTLE WEED","practice","8","1,2,3,4,5,6,7,8","120,146.3199659097744,209.9535542045437,229.5350593690348,251.2552892088526,278.3516686702646,268.63073543857763,267.31416438995666","8,7,6,5,4,3,2,1","THISTLE WEED,THISTLE WEED,THISTLE WEED,THISTLE WEED,THISTLE WEED,THISTLE WEED,THISTLE WEED,THISTLE WEED","120,121.94602368685214,161.28772053709463,203.19067159140573,160,176.12929698073802,185.31954485914875,169.76224249361016","4,3,2,1,4,3,2,1","WHEAT CROP,WHEAT CROP,WHEAT CROP,WHEAT CROP,CORN CROP,CORN CROP,CORN CROP,CORN CROP","0,0,0,0,0,0,0,0","20,20,20,20,20,20,20,20","10,10,10,10,10,10,10,10","20,20,20,20,20,20,20,20","20,20,20,20,20,20,20,20","20,20,20,20,20,20,20,20","0,0,0,0,0,0,0,0","20,20,20,20,20,20,20,20","10,10,10,10,10,10,10,10","20,20,20,20,20,20,20,20","20,20,20,20,20,20,20,20","20,20,20,20,20,20,20,20","1,1,1,1,0,0,0,0","8456,2069,1480,1620,2069,4536,1111,626","26.319965909774382,63.6335882947693,19.581505164491084,21.7202298398178,27.09637946141198,-9.720933231686983,-1.3165710486209867,-28.824318734517497","1.9460236868521434,39.341696850242485,41.90295105431111,53.93571720192482,16.12929698073802,9.19024787841073,-15.55730236553858,6.469330017562301","0","0"
"283","86","text","0","18","211978","0-0","","","","","","","","","","","","","","","","","","","","","","","","","","","","","","","","","","","","",""
"","","plant-game","0","19","239240","0-0","","200","160","4","WHEAT CROP","Left","200","160","2","THISTLE WEED","practice","9","1,2,3,4","160,189.08276825160902,197.62287917935916,175.25442707468602","4,3,2,1","WHEAT CROP,WHEAT CROP,WHEAT CROP,WHEAT CROP","160,202.49752519140142,180,163.87183077020663","2,1,2,1","THISTLE WEED,THISTLE WEED,NETTLE WEED,NETTLE WEED","20,20,20,20","20,20,20,20","10,10,10,10","20,20,20,20","0,0,0,0","20,20,20,20","20,20,20,20","20,20,20,20","10,10,10,10","20,20,20,20","0,0,0,0","20,20,20,20","0,1,1,0","3169,2056,2414,1559","29.082768251609025,8.540110927750135,-22.36845210467314,32.50789393720092","42.49752519140142,8.97726395678419,-16.128169229793365,16.893034611457495","0","0"
"612","86","text","0","20","239964","0-0","","","","","","","","","","","","","","","","","","","","","","","","","","","","","","","","","","","","",""
"","","plant-game","0","21","262135","0-0","","200","180","2","WHEAT CROP","Right","200","180","1","NETTLE WEED","practice","10","1,2","180,190","1,1","NETTLE WEED,THISTLE WEED","180,201.0586360249547","2,1","WHEAT CROP,WHEAT CROP","0,0","20,20","10,10","20,20","20,20","20,20","0,0","20,20","10,10","20,20","20,20","20,20","0,0","5191,4119","-4.680779472379025,-7.516003383016825","21.058636024954698,12.927555450240291","0","0"
"553","86","text","0","22","262848","0-0","","","","","","","","","","","","","","","","","","","","","","","","","","","","","","","","","","","","",""
"","","plant-game","0","23","287880","0-0","","200","120","8","CORN CROP","Right","200","160","4","NETTLE WEED","practice","11","1,2,3,4,5,6,7,8","160,179.79037863096192,150.26926020799573,185.16161250054222,160,182.6517805244878,214.62311309957488,228.21459468114972","4,3,2,1,4,3,2,1","NETTLE WEED,NETTLE WEED,NETTLE WEED,NETTLE WEED,THISTLE WEED,THISTLE WEED,THISTLE WEED,THISTLE WEED","120,143.7544242741688,140.46339100201445,102.45635332288943,81.0186861206106,93.37287879041602,103.00312664328902,91.82584759242498","8,7,6,5,4,3,2,1","CORN CROP,CORN CROP,CORN CROP,CORN CROP,CORN CROP,CORN CROP,CORN CROP,CORN CROP","0,0,0,0,0,0,0,0","20,20,20,20,20,20,20,20","10,10,10,10,10,10,10,10","20,20,20,20,20,20,20,20","20,20,20,20,20,20,20,20","20,20,20,20,20,20,20,20","0,0,0,0,0,0,0,0","20,20,20,20,20,20,20,20","10,10,10,10,10,10,10,10","20,20,20,20,20,20,20,20","20,20,20,20,20,20,20,20","20,20,20,20,20,20,20,20","1,0,1,0,1,1,1,1","2240,2262,1123,1111,935,832,703,964","19.790378630961925,-29.52111842296621,34.89235229254649,-10.218716302527465,22.651780524487794,31.97133257508708,13.591481581574829,46.66272734454081","23.754424274168805,-3.2910332721543396,-38.00703767912502,-21.437667202278824,12.35419266980543,9.630247852873,-11.177279050864044,8.67770305404673","0","0"
"263","86","text","0","24","288233","0-0","","","","","","","","","","","","","","","","","","","","","","","","","","","","","","","","","","","","",""
"","","plant-game","0","25","312081","0-0","","200","180","2","WHEAT CROP","Left","200","160","4","NETTLE WEED","practice","12","1,2,3,4","180,188.006269978192,180,221.9978950097086","2,1,2,1","WHEAT CROP,WHEAT CROP,CORN CROP,CORN CROP","160,180.05241771504842,173.50999085846038,214.8011428419934","4,3,2,1","NETTLE WEED,NETTLE WEED,NETTLE WEED,NETTLE WEED","20,20,20,20","20,20,20,20","10,10,10,10","20,20,20,20","0,0,0,0","20,20,20,20","20,20,20,20","20,20,20,20","10,10,10,10","20,20,20,20","0,0,0,0","20,20,20,20","0,0,0,1","4106,1830,6496,2141","8.00626997819199,15.703470984982676,41.997895009708614,19.090055523587292","20.05241771504843,-6.5424268565880475,41.291151983533,-31.2574486386953","0","0"
"760","86","text","0","26","313001","0-0","","","","","","","","","","","","","","","","","","","","","","","","","","","","","","","","","","","","",""
"13007","86","text","0","27","327100","0-0","","","","","","","","","","","","","","","","","","","","","","","","","","","","","","","","","","","","",""
"","","plant-game","0","28","339887","0-0","","200","160","1","CORN CROP","Left","200","160","1","NETTLE WEED","experimental","1","1","160","1","CORN CROP","160","1","NETTLE WEED","20","20","10","20","0","20","20","20","10","20","0","20","0","5808","29.973301800231944","-17.35548924665612","0","0"
"1181","86","text","0","29","341239","0-0","","","","","","","","","","","","","","","","","","","","","","","","","","","","","","","","","","","","",""
"","","plant-game","0","30","373620","0-0","","200","160","1","CORN CROP","Right","200","190","8","NETTLE WEED","experimental","2","1,2,3,4,5,6,7,8","190,245.7137551978265,239.3340353925635,245.80107207614358,223.92722095895243,221.813881396949,190.9863400283155,262.8884800227492","8,7,6,5,4,3,2,1","NETTLE WEED,NETTLE WEED,NETTLE WEED,NETTLE WEED,NETTLE WEED,NETTLE WEED,NETTLE WEED,NETTLE WEED","160,130,95.29520942856377,115.29361857433814,70.59708277072905,93.08358952999248,84.04135768444262,98.22674559599412","1,7,6,5,4,3,2,1","CORN CROP,WHEAT CROP,WHEAT CROP,WHEAT CROP,WHEAT CROP,WHEAT CROP,WHEAT CROP,WHEAT CROP","0,0,0,0,0,0,0,0","20,20,20,20,20,20,20,20","10,10,10,10,10,10,10,10","20,20,20,20,20,20,20,20","20,20,20,20,20,20,20,20","20,20,20,20,20,20,20,20","0,0,0,0,0,0,0,0","20,20,20,20,20,20,20,20","10,10,10,10,10,10,10,10","20,20,20,20,20,20,20,20","20,20,20,20,20,20,20,20","20,20,20,20,20,20,20,20","1,0,0,0,0,0,0,1","9100,5088,1362,1038,1214,2688,1512,1823","55.713755197826494,-6.3797198052630035,6.46703668358008,-21.873851117191148,-2.1133395620034263,-30.827541368633483,71.90213999443371,13.91428712923123","5.887348297823982,-34.704790571436234,19.998409145774378,-44.696535803609095,22.486506759263442,-9.042231845549866,14.185387911551498,25.842671267153257","0","0"
"635","86","text","0","31","374395","0-0","","","","","","","","","","","","","","","","","","","","","","","","","","","","","","","","","","","","",""
"","","plant-game","0","32","387415","0-0","","200","180","1","WHEAT CROP","Right","200","160","1","NETTLE WEED","experimental","3","1","160","1","NETTLE WEED","180","1","WHEAT CROP","0","20","10","20","20","20","0","20","10","20","20","20","1","9038","-0.5615333564588596","54.86842396398724","0","0"
"653","86","text","0","33","388212","0-0","","","","","","","","","","","","","","","","","","","","","","","","","","","","","","","","","","","","",""
"","","plant-game","0","34","418891","0-0","","200","160","1","WHEAT CROP","Right","200","120","8","THISTLE WEED","experimental","4","1,2,3,4,5,6,7,8","120,161.34458998000838,143.98832959174007,160.7873200140114,160.47705258432688,188.26572904100297,184.33551482118287,219.49290818288725","8,7,6,5,4,3,2,1","THISTLE WEED,THISTLE WEED,THISTLE WEED,THISTLE WEED,THISTLE WEED,THISTLE WEED,THISTLE WEED,THISTLE WEED","160,130,137.25939471302826,179.87202247889417,193.70465731255763,182.94432097601367,198.12210941151517,227.19081417131383","1,7,6,5,4,3,2,1","WHEAT CROP,CORN CROP,CORN CROP,CORN CROP,CORN CROP,CORN CROP,CORN CROP,CORN CROP","0,0,0,0,0,0,0,0","20,20,20,20,20,20,20,20","10,10,10,10,10,10,10,10","20,20,20,20,20,20,20,20","20,20,20,20,20,20,20,20","20,20,20,20,20,20,20,20","0,0,0,0,0,0,0,0","20,20,20,20,20,20,20,20","10,10,10,10,10,10,10,10","20,20,20,20,20,20,20,20","20,20,20,20,20,20,20,20","20,20,20,20,20,20,20,20","1,1,1,1,1,0,1,0","5282,7785,1535,1188,1205,1661,727,2634","41.34458998000838,-17.356260388268325,16.798990422271334,-0.31026742968454357,27.788676456676086,-3.930214219820105,35.15739336170438,-12.306900737335267","31.110000430218,7.259394713028254,42.61262776586591,13.83263483366346,-10.760336336543968,15.177788435501498,29.068704759798653,-37.71808388998296","0","0"
"824","86","text","0","35","419885","0-0","","","","","","","","","","","","","","","","","","","","","","","","","","","","","","","","","","","","",""
"","","plant-game","0","36","445478","0-0","","200","190","2","CORN CROP","Left","200","180","8","NETTLE WEED","experimental","5","1,2,3,4,5,6,7,8","190,191.12680536584747,140,167.35922534982458,170.100207175589,151.61641864320734,157.01301462482226,147.7506896164054","2,1,6,5,4,3,2,1","CORN CROP,CORN CROP,WHEAT CROP,WHEAT CROP,WHEAT CROP,WHEAT CROP,WHEAT CROP,WHEAT CROP","180,172.9123075619683,200.02367373167635,207.48889544096085,213.30826820923693,229.23287441604563,239.54559394084532,268.597792092823","8,7,6,5,4,3,2,1","NETTLE WEED,NETTLE WEED,NETTLE WEED,NETTLE WEED,NETTLE WEED,NETTLE WEED,NETTLE WEED,NETTLE WEED","20,20,20,20,20,20,20,20","20,20,20,20,20,20,20,20","10,10,10,10,10,10,10,10","20,20,20,20,20,20,20,20","0,0,0,0,0,0,0,0","20,20,20,20,20,20,20,20","20,20,20,20,20,20,20,20","20,20,20,20,20,20,20,20","10,10,10,10,10,10,10,10","20,20,20,20,20,20,20,20","0,0,0,0,0,0,0,0","20,20,20,20,20,20,20,20","1,0,1,1,1,0,0,0","7319,1303,4169,1376,886,1419,1430,756","1.126805365847485,38.787531865985315,27.359225349824584,2.7409818257644107,-18.483788532381663,5.396595981614913,-9.262325008416855,10.25163814853294","-7.087692438031682,27.11136616970804,7.465221709284502,5.81937276827608,15.924606206808708,10.312719524799702,29.052198151977656,-12.99100037761405","0","0"
"977","86","text","0","37","446595","0-0","","","","","","","","","","","","","","","","","","","","","","","","","","","","","","","","","","","","",""
"","","plant-game","0","38","468610","0-0","","200","190","1","CORN CROP","Right","200","190","4","NETTLE WEED","experimental","6","1,2,3,4","190,183.92585187333552,232.9103123993963,227.9525449779931","4,3,2,1","NETTLE WEED,NETTLE WEED,NETTLE WEED,NETTLE WEED","190,170,183.47201718297248,160.2095926604723","1,3,2,1","CORN CROP,WHEAT CROP,WHEAT CROP,WHEAT CROP","0,0,0,0","20,20,20,20","10,10,10,10","20,20,20,20","20,20,20,20","20,20,20,20","0,0,0,0","20,20,20,20","10,10,10,10","20,20,20,20","20,20,20,20","20,20,20,20","1,1,1,1","7471,4522,3255,1368","-6.074148126664479,48.98446052606078,-4.957767421403187,-10.195015426193237","1.8792352636278835,13.472017182972465,-23.262424522500176,15.236700057410577","0","0"
"848","86","text","0","39","469598","0-0","","","","","","","","","","","","","","","","","","","","","","","","","","","","","","","","","","","","",""
"","","plant-game","0","40","476699","0-0","","200","160","1","WHEAT CROP","Right","200","190","1","NETTLE WEED","experimental","7","1","190","1","NETTLE WEED","160","1","WHEAT CROP","0","20","10","20","20","20","0","20","10","20","20","20","1","2253","30.47545691563775","34.984745302742645","0","0"
"655","86","text","0","41","477511","0-0","","","","","","","","","","","","","","","","","","","","","","","","","","","","","","","","","","","","",""
"","","plant-game","0","42","495383","0-0","","200","180","2","CORN CROP","Right","200","180","4","NETTLE WEED","experimental","8","1,2,3,4","180,200.11180677467954,195.75374077495843,191.62645587878472","4,3,2,1","NETTLE WEED,NETTLE WEED,NETTLE WEED,NETTLE WEED","180,182.70254090239914,180,201.82430158427871","2,1,2,1","CORN CROP,CORN CROP,WHEAT CROP,WHEAT CROP","0,0,0,0","20,20,20,20","10,10,10,10","20,20,20,20","20,20,20,20","20,20,20,20","0,0,0,0","20,20,20,20","10,10,10,10","20,20,20,20","20,20,20,20","20,20,20,20","1,1,0,0","2849,1656,4715,1628","20.111806774679533,-4.358065999721102,-4.127284896173696,8.93544005440338","2.702540902399136,20.23912965043543,21.824301584278704,4.4176184703495744","0","0"
"693","86","text","0","43","496216","0-0","","","","","","","","","","","","","","","","","","","","","","","","","","","","","","","","","","","","",""
"","","plant-game","0","44","521412","0-0","","200","160","1","WHEAT CROP","Left","200","160","8","THISTLE WEED","experimental","9","1,2,3,4,5,6,7,8","160,130,138.17673744959217,146.89440445143217,172.16295699782236,184.26108491998892,213.07416329300307,202.6735622256843","1,7,6,5,4,3,2,1","WHEAT CROP,CORN CROP,CORN CROP,CORN CROP,CORN CROP,CORN CROP,CORN CROP,CORN CROP","160,164.06609394368826,163.2864090446437,157.01448884276226,182.72846979842143,185.6895300459781,208.3963061321378,225.1372369131974","8,7,6,5,4,3,2,1","THISTLE WEED,THISTLE WEED,THISTLE WEED,THISTLE WEED,THISTLE WEED,THISTLE WEED,THISTLE WEED,THISTLE WEED","20,20,20,20,20,20,20,20","20,20,20,20,20,20,20,20","10,10,10,10,10,10,10,10","20,20,20,20,20,20,20,20","0,0,0,0,0,0,0,0","20,20,20,20,20,20,20,20","20,20,20,20,20,20,20,20","20,20,20,20,20,20,20,20","10,10,10,10,10,10,10,10","20,20,20,20,20,20,20,20","0,0,0,0,0,0,0,0","20,20,20,20,20,20,20,20","1,0,0,0,0,0,1,0","10234,3681,1164,710,664,646,1362,777","-25.956441858757387,8.176737449592178,8.717667001839986,25.268552546390204,12.09812792216655,28.81307837301415,-10.400601067318771,-22.508220032125045","4.06609394368827,-0.7796848990445611,-6.271920201881457,25.71398095565918,2.9610602475566807,22.706776086159685,16.740930781059614,14.831025123909196","0","0"
"664","86","text","0","45","522237","0-0","","","","","","","","","","","","","","","","","","","","","","","","","","","","","","","","","","","","",""
"","","plant-game","0","46","549186","0-0","","200","160","2","WHEAT CROP","Right","200","120","8","THISTLE WEED","experimental","10","1,2,3,4,5,6,7,8","120,145.41271762559046,147.2489093925985,176.51118516834788,187.88384447685735,230.34727996088347,236.81630405354215,290.83755354981827","8,7,6,5,4,3,2,1","THISTLE WEED,THISTLE WEED,THISTLE WEED,THISTLE WEED,THISTLE WEED,THISTLE WEED,THISTLE WEED,THISTLE WEED","160,210.5085844056964,140,203.84011709124752,185.59284812644722,197.23319104991495,206.39002176350064,200.29478123320422","2,1,6,5,4,3,2,1","WHEAT CROP,WHEAT CROP,CORN CROP,CORN CROP,CORN CROP,CORN CROP,CORN CROP,CORN CROP","0,0,0,0,0,0,0,0","20,20,20,20,20,20,20,20","10,10,10,10,10,10,10,10","20,20,20,20,20,20,20,20","20,20,20,20,20,20,20,20","20,20,20,20,20,20,20,20","0,0,0,0,0,0,0,0","20,20,20,20,20,20,20,20","10,10,10,10,10,10,10,10","20,20,20,20,20,20,20,20","20,20,20,20,20,20,20,20","20,20,20,20,20,20,20,20","0,0,1,1,1,1,1,1","6088,2285,3331,3467,1090,1071,1456,1460","25.41271762559045,1.836191767008037,29.26227577574938,11.372659308509466,42.46343548402613,6.469024092658678,54.02124949627612,4.973412675632165","50.50858440569642,-8.849209014096282,63.84011709124752,-18.24726896480029,11.640342923467715,9.1568307135857,-6.095240530296422,-19.19903925315191","0","0"
"473","86","text","0","47","549809","0-0","","","","","","","","","","","","","","","","","","","","","","","","","","","","","","","","","","","","",""
"","","plant-game","0","48","567178","0-0","","200","180","2","CORN CROP","Left","200","190","4","NETTLE WEED","experimental","11","1,2,3,4","180,178.63893015135548,180,184.41244329218296","2,1,2,1","CORN CROP,CORN CROP,WHEAT CROP,WHEAT CROP","190,173.22314859367728,202.8793081157183,213.09135482187583","4,3,2,1","NETTLE WEED,NETTLE WEED,NETTLE WEED,NETTLE WEED","20,20,20,20","20,20,20,20","10,10,10,10","20,20,20,20","0,0,0,0","20,20,20,20","20,20,20,20","20,20,20,20","10,10,10,10","20,20,20,20","0,0,0,0","20,20,20,20","1,0,1,0","4976,664,2566,2487","-1.3610698486445127,9.274349103310717,4.41244329218296,26.279228767283193","-16.776851406322713,29.656159522041,10.212046706157526,36.14581569925652","0","0"
"633","86","text","0","49","567922","0-0","","","","","","","","","","","","","","","","","","","","","","","","","","","","","","","","","","","","",""
"","","plant-game","0","50","584572","0-0","","200","120","1","WHEAT CROP","Right","200","160","8","NETTLE WEED","experimental","12","1,2,3,4,5,6,7,8","160,167.43503729540234,212.235425519709,208.27899484008677,205.34225671425475,219.58852884369915,245.26606184019212,268.18714040552464","8,7,6,5,4,3,2,1","NETTLE WEED,NETTLE WEED,NETTLE WEED,NETTLE WEED,NETTLE WEED,NETTLE WEED,NETTLE WEED,NETTLE WEED","120,130,138.66061951378742,192.36222440407138,201.8878233130594,219.11269014462755,219.96222744967915,256.66602192164476","1,7,6,5,4,3,2,1","WHEAT CROP,CORN CROP,CORN CROP,CORN CROP,CORN CROP,CORN CROP,CORN CROP,CORN CROP","0,0,0,0,0,0,0,0","20,20,20,20,20,20,20,20","10,10,10,10,10,10,10,10","20,20,20,20,20,20,20,20","20,20,20,20,20,20,20,20","20,20,20,20,20,20,20,20","0,0,0,0,0,0,0,0","20,20,20,20,20,20,20,20","10,10,10,10,10,10,10,10","20,20,20,20,20,20,20,20","20,20,20,20,20,20,20,20","20,20,20,20,20,20,20,20","0,1,1,1,1,1,1,1","1616,1674,2459,485,891,591,627,400","7.435037295402349,44.800388224306644,-3.956430679622237,-2.9367381258320364,14.246272129444407,25.677532996492978,22.92107856533253,-16.1746356472878","-6.220929090493614,8.66061951378743,53.70160489028396,9.525598908988016,17.224866831568125,0.8495373050515944,36.70379447196564,-6.1148042572964485","0","0"
"564","86","text","0","51","585286","0-0","","","","","","","","","","","","","","","","","","","","","","","","","","","","","","","","","","","","",""
"","","plant-game","0","52","602313","0-0","","200","160","8","CORN CROP","Left","200","120","4","NETTLE WEED","experimental","13","1,2,3,4,5,6,7,8","160,183.17496210738514,194.25269078329154,176.5530330861541,197.17913332436734,232.3791216914036,244.03840575589504,304.7986677338382","8,7,6,5,4,3,2,1","CORN CROP,CORN CROP,CORN CROP,CORN CROP,CORN CROP,CORN CROP,CORN CROP,CORN CROP","120,154.20206659359235,134.99759824977676,130.58699709923064,160,180.70120157530604,148.19539456714443,114.88330113674279","4,3,2,1,4,3,2,1","NETTLE WEED,NETTLE WEED,NETTLE WEED,NETTLE WEED,THISTLE WEED,THISTLE WEED,THISTLE WEED,THISTLE WEED","20,20,20,20,20,20,20,20","20,20,20,20,20,20,20,20","10,10,10,10,10,10,10,10","20,20,20,20,20,20,20,20","0,0,0,0,0,0,0,0","20,20,20,20,20,20,20,20","20,20,20,20,20,20,20,20","20,20,20,20,20,20,20,20","10,10,10,10,10,10,10,10","20,20,20,20,20,20,20,20","0,0,0,0,0,0,0,0","20,20,20,20,20,20,20,20","0,0,0,0,0,1,1,1","2181,888,899,1200,1377,1480,957,645","23.17496210738513,11.077728675906412,-17.699657697137447,20.626100238213255,35.199988367036276,11.659284064491434,60.760261977943195,-34.154224854441615","34.20206659359234,-19.204468343815584,-4.410601150546107,13.35580643861308,20.701201575306047,-32.505807008161625,-33.312093430401646,29.4152301159764","0","0"
"664","86","text","0","53","603097","0-0","","","","","","","","","","","","","","","","","","","","","","","","","","","","","","","","","","","","",""
"","","plant-game","0","54","615337","0-0","","200","190","8","WHEAT CROP","Left","200","160","8","NETTLE WEED","experimental","14","1,2,3,4,5,6,7,8","190,177.52589108391552,158.33903965223942,153.63087141125226,142.67440427335964,109.52752046013251,115.92489674960973,131.4242041603309","8,7,6,5,4,3,2,1","WHEAT CROP,WHEAT CROP,WHEAT CROP,WHEAT CROP,WHEAT CROP,WHEAT CROP,WHEAT CROP,WHEAT CROP","160,208.55686729195446,217.9822286459945,285.9737962907371,285.9487608956999,305.8493594563764,337.36615893280384,356.6889378268455","8,7,6,5,4,3,2,1","NETTLE WEED,NETTLE WEED,NETTLE WEED,NETTLE WEED,NETTLE WEED,NETTLE WEED,NETTLE WEED,NETTLE WEED","20,20,20,20,20,20,20,20","20,20,20,20,20,20,20,20","10,10,10,10,10,10,10,10","20,20,20,20,20,20,20,20","0,0,0,0,0,0,0,0","20,20,20,20,20,20,20,20","20,20,20,20,20,20,20,20","20,20,20,20,20,20,20,20","10,10,10,10,10,10,10,10","20,20,20,20,20,20,20,20","0,0,0,0,0,0,0,0","20,20,20,20,20,20,20,20","0,0,0,1,0,0,0,0","2381,1068,751,474,650,502,864,1370","-12.474108916084468,-19.186851431676118,-4.70816824098717,-10.95646713789262,-33.14688381322714,6.397376289477219,15.49930741072118,11.298292724839706","48.55686729195446,9.425361354040046,67.9915676447426,-0.025035395037219674,19.90059856067653,31.516799476427416,19.32277889404169,27.875891079431614","0","0"
"1127","86","text","0","55","616614","0-0","","","","","","","","","","","","","","","","","","","","","","","","","","","","","","","","","","","","",""
"","","plant-game","0","56","632172","0-0","","200","190","8","WHEAT CROP","Left","200","120","8","NETTLE WEED","experimental","15","1,2,3,4,5,6,7,8","190,198.19665696093034,168.2080360194336,214.58237085890036,236.58494371811958,255.47874662146717,252.0732588494508,239.19736008757928","8,7,6,5,4,3,2,1","WHEAT CROP,WHEAT CROP,WHEAT CROP,WHEAT CROP,WHEAT CROP,WHEAT CROP,WHEAT CROP,WHEAT CROP","120,161.7830329030992,192.75196125569522,207.52753719747275,227.4610302407086,269.05439005775315,252.7926107631807,227.10325652075235","8,7,6,5,4,3,2,1","NETTLE WEED,NETTLE WEED,NETTLE WEED,NETTLE WEED,NETTLE WEED,NETTLE WEED,NETTLE WEED,NETTLE WEED","20,20,20,20,20,20,20,20","20,20,20,20,20,20,20,20","10,10,10,10,10,10,10,10","20,20,20,20,20,20,20,20","0,0,0,0,0,0,0,0","20,20,20,20,20,20,20,20","20,20,20,20,20,20,20,20","20,20,20,20,20,20,20,20","10,10,10,10,10,10,10,10","20,20,20,20,20,20,20,20","0,0,0,0,0,0,0,0","20,20,20,20,20,20,20,20","1,1,0,1,0,1,1,1","3208,513,1001,2674,1194,609,407,887","8.19665696093034,-29.98862094149675,46.374334839466776,22.002572859219214,18.893802903347584,-3.405487772016345,-12.875898761871511,22.882417448537147","41.78303290309921,30.968928352596016,14.775575941777543,19.93349304323584,41.59335981704454,-16.26177929457245,-25.689354242428344,-19.425836696179534","0","0"
"224","86","text","0","57","632526","0-0","","","","","","","","","","","","","","","","","","","","","","","","","","","","","","","","","","","","",""
"","","plant-game","0","58","644332","0-0","","200","120","1","WHEAT CROP","Right","200","160","4","NETTLE WEED","experimental","16","1,2,3,4","160,215.9419105052077,206.1989831395084,224.82999194082052","4,3,2,1","NETTLE WEED,NETTLE WEED,NETTLE WEED,NETTLE WEED","120,170,172.34240519701999,235.89525835295063","1,3,2,1","WHEAT CROP,CORN CROP,CORN CROP,CORN CROP","0,0,0,0","20,20,20,20","10,10,10,10","20,20,20,20","20,20,20,20","20,20,20,20","0,0,0,0","20,20,20,20","10,10,10,10","20,20,20,20","20,20,20,20","20,20,20,20","1,1,1,1","1549,1928,436,1152","55.94191050520768,-9.742927365699284,18.631008801312106,-21.51092366429318","3.8364740057421045,2.3424051970199926,63.552853155930656,12.976019511276705","0","0"
"2927","86","text","0","59","647409","0-0","","","","","","","","","","","","","","","","","","","","","","","","","","","","","","","","","","","","",""
"","","plant-game","0","60","659041","0-0","","200","180","1","CORN CROP","Left","200","180","2","THISTLE WEED","experimental","17","1,2","180,190","1,1","CORN CROP,WHEAT CROP","180,201.62689508051423","2,1","THISTLE WEED,THISTLE WEED","20,20","20,20","10,10","20,20","0,0","20,20","20,20","20,20","10,10","20,20","0,0","20,20","0,0","2523,3602","-12.396541374053953,56.00915952622228","21.62689508051422,6.581801723664245","0","0"
"692","86","text","0","61","659849","0-0","","","","","","","","","","","","","","","","","","","","","","","","","","","","","","","","","","","","",""
"","","plant-game","0","62","674561","0-0","","200","160","4","WHEAT CROP","Left","200","190","2","THISTLE WEED","experimental","18","1,2,3,4","160,144.21246387678613,153.5710075620307,182.1844635844324","4,3,2,1","WHEAT CROP,WHEAT CROP,WHEAT CROP,WHEAT CROP","190,128.83084766086148,180,207.54491201658215","2,1,2,1","THISTLE WEED,THISTLE WEED,NETTLE WEED,NETTLE WEED","20,20,20,20","20,20,20,20","10,10,10,10","20,20,20,20","0,0,0,0","20,20,20,20","20,20,20,20","20,20,20,20","10,10,10,10","20,20,20,20","0,0,0,0","20,20,20,20","1,0,0,0","3808,1619,1926,1522","-15.787536123213865,9.358543685244566,28.6134560224017,8.412617923802049","-61.169152339138506,-21.8321282907889,27.54491201658216,1.5753271368056723","0","0"
"617","86","text","0","63","675298","0-0","","","","","","","","","","","","","","","","","","","","","","","","","","","","","","","","","","","","",""
"","","plant-game","0","64","680905","0-0","","200","180","1","CORN CROP","Left","200","180","1","THISTLE WEED","experimental","19","1","180","1","CORN CROP","180","1","THISTLE WEED","20","20","10","20","0","20","20","20","10","20","0","20","1","2406","-22.551288305291315","-21.140206743741693","0","0"
"953","86","text","0","65","681978","0-0","","","","","","","","","","","","","","","","","","","","","","","","","","","","","","","","","","","","",""
"","","plant-game","0","66","697634","0-0","","200","190","2","WHEAT CROP","Left","200","190","4","NETTLE WEED","experimental","20","1,2,3,4","190,205.43968225729736,180,206.52805305856714","2,1,2,1","WHEAT CROP,WHEAT CROP,CORN CROP,CORN CROP","190,196.6432678163413,191.79759176915988,232.68509268798158","4,3,2,1","NETTLE WEED,NETTLE WEED,NETTLE WEED,NETTLE WEED","20,20,20,20","20,20,20,20","10,10,10,10","20,20,20,20","0,0,0,0","20,20,20,20","20,20,20,20","20,20,20,20","10,10,10,10","20,20,20,20","0,0,0,0","20,20,20,20","0,0,0,1","4427,1507,3536,975","15.439682257297356,40.297795508191285,26.528053058567153,14.045843690512626","6.643267816341316,-4.845676047181421,40.887500918821694,-0.40877412819510706","0","0"
"745","86","text","0","67","698501","0-0","","","","","","","","","","","","","","","","","","","","","","","","","","","","","","","","","","","","",""
"","","plant-game","0","68","711492","0-0","","200","120","2","WHEAT CROP","Right","200","120","1","NETTLE WEED","experimental","21","1,2","120,190","1,1","NETTLE WEED,THISTLE WEED","120,144.48541198655244","2,1","WHEAT CROP,WHEAT CROP","0,0","20,20","10,10","20,20","20,20","20,20","0,0","20,20","10,10","20,20","20,20","20,20","1,0","2939,3607","13.736722212177316,20.142045376064857","24.48541198655242,6.910236247697508","0","0"
"575","86","text","0","69","712179","0-0","","","","","","","","","","","","","","","","","","","","","","","","","","","","","","","","","","","","",""
"","","plant-game","0","70","723314","0-0","","200","120","2","WHEAT CROP","Right","200","180","4","NETTLE WEED","experimental","22","1,2,3,4","180,194.75941377463948,229.60976321381662,222.56343004376956","4,3,2,1","NETTLE WEED,NETTLE WEED,NETTLE WEED,NETTLE WEED","120,167.42909790650097,180,175.1709341495034","2,1,2,1","WHEAT CROP,WHEAT CROP,CORN CROP,CORN CROP","0,0,0,0","20,20,20,20","10,10,10,10","20,20,20,20","20,20,20,20","20,20,20,20","0,0,0,0","20,20,20,20","10,10,10,10","20,20,20,20","20,20,20,20","20,20,20,20","1,1,0,0","4199,347,1551,307","14.759413774639473,34.85034943917714,-7.046333170047062,-16.497998177858797","47.42909790650097,26.668800875433195,-4.829065850496584,9.485334364324107","0","0"
"93","86","text","0","71","723517","0-0","","","","","","","","","","","","","","","","","","","","","","","","","","","","","","","","","","","","",""
"","","plant-game","0","72","728941","0-0","","200","190","2","CORN CROP","Right","200","180","2","THISTLE WEED","experimental","23","1,2","180,191.3568558745219","2,1","THISTLE WEED,THISTLE WEED","190,199.9990787362598","2,1","CORN CROP,CORN CROP","0,0","20,20","10,10","20,20","20,20","20,20","0,0","20,20","10,10","20,20","20,20","20,20","1,1","1907,402","11.35685587452191,2.317027228704166","9.999078736259806,-5.308473538803199","0","0"
"667","86","text","0","73","729738","0-0","","","","","","","","","","","","","","","","","","","","","","","","","","","","","","","","","","","","",""
"","","plant-game","0","74","735497","0-0","","200","190","2","CORN CROP","Right","200","120","2","THISTLE WEED","experimental","24","1,2","120,107.4692365569033","2,1","THISTLE WEED,THISTLE WEED","190,236.69824626283","2,1","CORN CROP,CORN CROP","0,0","20,20","10,10","20,20","20,20","20,20","0,0","20,20","10,10","20,20","20,20","20,20","1,0","1625,1665","-12.530763443096696,1.269875043674889","46.69824626282999,0.21231693762813736","0","0"
"457","86","text","0","75","736069","0-0","","","","","","","","","","","","","","","","","","","","","","","","","","","","","","","","","","","","",""
"","","plant-game","0","76","750167","0-0","","200","160","2","WHEAT CROP","Right","200","190","8","NETTLE WEED","experimental","25","1,2,3,4,5,6,7,8","190,219.18199178227127,242.13632445446393,233.1030161655484,230.32230058126524,250.6714265283871,243.71353614456703,269.1915077175818","8,7,6,5,4,3,2,1","NETTLE WEED,NETTLE WEED,NETTLE WEED,NETTLE WEED,NETTLE WEED,NETTLE WEED,NETTLE WEED,NETTLE WEED","160,171.08572644496306,140,160.16008864614616,209.0603810127254,223.87590037971788,220.44681582774513,219.22052626159632","2,1,6,5,4,3,2,1","WHEAT CROP,WHEAT CROP,CORN CROP,CORN CROP,CORN CROP,CORN CROP,CORN CROP,CORN CROP","0,0,0,0,0,0,0,0","20,20,20,20,20,20,20,20","10,10,10,10,10,10,10,10","20,20,20,20,20,20,20,20","20,20,20,20,20,20,20,20","20,20,20,20,20,20,20,20","0,0,0,0,0,0,0,0","20,20,20,20,20,20,20,20","10,10,10,10,10,10,10,10","20,20,20,20,20,20,20,20","20,20,20,20,20,20,20,20","20,20,20,20,20,20,20,20","1,0,1,1,1,0,0,1","1438,1432,1597,431,569,1394,383,649","29.181991782271275,22.954332672192656,-9.033308288915514,-2.7807155842831754,20.34912594712186,-6.957890383820059,25.47797157301482,27.618403283984655","11.08572644496306,14.562110078348052,20.160088646146157,48.90029236657923,14.815519366992485,-3.4290845519727435,-1.2262895661488036,38.25069667831245","0","0"
"824","86","text","0","77","751131","0-0","","","","","","","","","","","","","","","","","","","","","","","","","","","","","","","","","","","","",""
"","","plant-game","0","78","766027","0-0","","200","180","8","WHEAT CROP","Right","200","190","1","THISTLE WEED","experimental","26","1,2,3,4,5,6,7,8","190,130,144.2984317141977,152.7097504902599,182.4348251661359,181.31698981440326,190.55179093583706,185.62250723161338","1,7,6,5,4,3,2,1","THISTLE WEED,NETTLE WEED,NETTLE WEED,NETTLE WEED,NETTLE WEED,NETTLE WEED,NETTLE WEED,NETTLE WEED","180,175.404827017203,174.1960104234288,194.54096229038308,202.99135750558253,204.93136698385263,220.79116784807223,222.65755961259515","8,7,6,5,4,3,2,1","WHEAT CROP,WHEAT CROP,WHEAT CROP,WHEAT CROP,WHEAT CROP,WHEAT CROP,WHEAT CROP,WHEAT CROP","0,0,0,0,0,0,0,0","20,20,20,20,20,20,20,20","10,10,10,10,10,10,10,10","20,20,20,20,20,20,20,20","20,20,20,20,20,20,20,20","20,20,20,20,20,20,20,20","0,0,0,0,0,0,0,0","20,20,20,20,20,20,20,20","10,10,10,10,10,10,10,10","20,20,20,20,20,20,20,20","20,20,20,20,20,20,20,20","20,20,20,20,20,20,20,20","0,1,1,1,0,0,0,0","2006,1498,758,465,1017,441,864,499","0.7450567030640791,14.298431714197696,8.411318776062178,29.725074675876016,-1.1178353517326534,9.234801121433797,-4.929283704223684,-44.42334888014695","-4.595172982797003,-1.2088165937742161,20.344951866954283,8.450395215199443,1.9400094782701038,15.859800864219606,1.8663917645229269,-23.14180873834651","0","0"
"797","86","text","0","79","766984","0-0","","","","","","","","","","","","","","","","","","","","","","","","","","","","","","","","","","","","",""
"","","plant-game","0","80","772719","0-0","","200","160","1","WHEAT CROP","Left","200","120","1","THISTLE WEED","experimental","27","1","160","1","WHEAT CROP","120","1","THISTLE WEED","20","20","10","20","0","20","20","20","10","20","0","20","0","2267","16.613159470429196","33.14894060360287","0","0"
"784","86","text","0","81","773653","0-0","","","","","","","","","","","","","","","","","","","","","","","","","","","","","","","","","","","","",""
"","","plant-game","0","82","789344","0-0","","200","160","2","CORN CROP","Right","200","160","8","NETTLE WEED","experimental","28","1,2,3,4,5,6,7,8","160,185.30522416615753,194.51964847337695,219.35848054612063,224.81377245854648,227.34363920061736,241.01870616769114,211.79146687531113","8,7,6,5,4,3,2,1","NETTLE WEED,NETTLE WEED,NETTLE WEED,NETTLE WEED,NETTLE WEED,NETTLE WEED,NETTLE WEED,NETTLE WEED","160,154.5345290350238,140,158.9618562663043,201.93534902334252,143.91097653143018,139.545392561316,139.70964236460654","2,1,6,5,4,3,2,1","CORN CROP,CORN CROP,WHEAT CROP,WHEAT CROP,WHEAT CROP,WHEAT CROP,WHEAT CROP,WHEAT CROP","0,0,0,0,0,0,0,0","20,20,20,20,20,20,20,20","10,10,10,10,10,10,10,10","20,20,20,20,20,20,20,20","20,20,20,20,20,20,20,20","20,20,20,20,20,20,20,20","0,0,0,0,0,0,0,0","20,20,20,20,20,20,20,20","10,10,10,10,10,10,10,10","20,20,20,20,20,20,20,20","20,20,20,20,20,20,20,20","20,20,20,20,20,20,20,20","1,0,1,1,0,0,0,0","2926,950,1474,948,674,527,359,493","25.30522416615752,9.21442430721942,24.83883207274369,5.455291912425853,2.529866742070893,13.675066967073782,-29.22723929237999,0.777673912757886","-5.465470964976177,31.674887748909512,18.9618562663043,42.97349275703822,-58.024372491912345,-4.365583970114183,0.1642498032905531,30.175074623060812","0","0"
"103","86","text","0","83","789537","0-0","","","","","","","","","","","","","","","","","","","","","","","","","","","","","","","","","","","","",""
"","","plant-game","0","84","796683","0-0","","200","180","4","WHEAT CROP","Right","200","190","4","NETTLE WEED","experimental","29","1,2,3,4","190,217.22622558225297,184.3193202402137,190.16756322015453","4,3,2,1","NETTLE WEED,NETTLE WEED,NETTLE WEED,NETTLE WEED","180,189.293056935808,167.33943173356525,190.6324581337062","4,3,2,1","WHEAT CROP,WHEAT CROP,WHEAT CROP,WHEAT CROP","0,0,0,0","20,20,20,20","10,10,10,10","20,20,20,20","20,20,20,20","20,20,20,20","0,0,0,0","20,20,20,20","10,10,10,10","20,20,20,20","20,20,20,20","20,20,20,20","1,0,1,1","1313,1253,537,546","27.226225582252955,-32.90690534203928,5.848242979940824,19.213300915265396","9.293056935808018,-21.95362520224277,23.293026400140935,60.779917386126805","0","0"
"724","86","text","0","85","797567","0-0","","","","","","","","","","","","","","","","","","","","","","","","","","","","","","","","","","","","",""
"","","plant-game","0","86","808760","0-0","","200","180","4","WHEAT CROP","Left","200","180","2","THISTLE WEED","experimental","30","1,2,3,4","180,188.36524511900356,230.02493211561722,254.93822092909528","4,3,2,1","WHEAT CROP,WHEAT CROP,WHEAT CROP,WHEAT CROP","180,173.41095301274535,180,180.4218603796063","2,1,2,1","THISTLE WEED,THISTLE WEED,NETTLE WEED,NETTLE WEED","20,20,20,20","20,20,20,20","10,10,10,10","20,20,20,20","0,0,0,0","20,20,20,20","20,20,20,20","20,20,20,20","10,10,10,10","20,20,20,20","0,0,0,0","20,20,20,20","0,0,0,1","3362,676,1299,778","8.365245119003557,41.65968699661365,24.913288813478054,-3.101862599913652","-6.589046987254651,8.126312230149894,0.42186037960630074,-11.462829837734656","0","0"
"550","86","text","0","87","809430","0-0","","","","","","","","","","","","","","","","","","","","","","","","","","","","","","","","","","","","",""
"","","plant-game","0","88","824174","0-0","","200","180","8","WHEAT CROP","Left","200","180","1","NETTLE WEED","experimental","31","1,2,3,4,5,6,7,8","180,186.57618349723418,160.98266739227267,182.71940003418405,195.74858951629352,221.92353636710666,192.0242752430877,216.7900685882713","8,7,6,5,4,3,2,1","WHEAT CROP,WHEAT CROP,WHEAT CROP,WHEAT CROP,WHEAT CROP,WHEAT CROP,WHEAT CROP,WHEAT CROP","180,130,137.28555049684604,173.76844000279954,189.82261166472594,223.6666754707873,235.4878726913794,238.75817532334167","1,7,6,5,4,3,2,1","NETTLE WEED,THISTLE WEED,THISTLE WEED,THISTLE WEED,THISTLE WEED,THISTLE WEED,THISTLE WEED,THISTLE WEED","20,20,20,20,20,20,20,20","20,20,20,20,20,20,20,20","10,10,10,10,10,10,10,10","20,20,20,20,20,20,20,20","0,0,0,0,0,0,0,0","20,20,20,20,20,20,20,20","20,20,20,20,20,20,20,20","20,20,20,20,20,20,20,20","10,10,10,10,10,10,10,10","20,20,20,20,20,20,20,20","0,0,0,0,0,0,0,0","20,20,20,20,20,20,20,20","1,0,0,0,0,1,0,0","2912,1050,583,519,442,575,1065,379","6.576183497234194,-25.593516104961523,21.73673264191136,13.029189482109485,26.174946850813143,-29.899261124018985,24.765793345183635,-11.132166620188322","25.935312566822432,7.285550496846053,36.48288950595349,16.0541716619264,33.844063806061364,11.8211972205921,3.270302631962256,47.403285316133754","0","0"
"1122","86","text","0","89","825426","0-0","","","","","","","","","","","","","","","","","","","","","","","","","","","","","","","","","","","","",""
"","","plant-game","0","90","839122","0-0","","200","180","8","CORN CROP","Right","200","160","2","THISTLE WEED","experimental","32","1,2,3,4,5,6,7,8","160,189.00601090542273,140,167.83061708577625,154.001552131543,193.9724272133706,178.80373736835062,178.79495779152327","2,1,6,5,4,3,2,1","THISTLE WEED,THISTLE WEED,NETTLE WEED,NETTLE WEED,NETTLE WEED,NETTLE WEED,NETTLE WEED,NETTLE WEED","180,201.1313372146031,196.45570455615575,199.1945956362662,246.49245434106084,273.2647196858263,267.6780113128564,274.50162300188373","8,7,6,5,4,3,2,1","CORN CROP,CORN CROP,CORN CROP,CORN CROP,CORN CROP,CORN CROP,CORN CROP,CORN CROP","0,0,0,0,0,0,0,0","20,20,20,20,20,20,20,20","10,10,10,10,10,10,10,10","20,20,20,20,20,20,20,20","20,20,20,20,20,20,20,20","20,20,20,20,20,20,20,20","0,0,0,0,0,0,0,0","20,20,20,20,20,20,20,20","10,10,10,10,10,10,10,10","20,20,20,20,20,20,20,20","20,20,20,20,20,20,20,20","20,20,20,20,20,20,20,20","1,0,1,1,1,0,0,0","2459,1758,1027,438,864,600,457,719","29.00601090542272,6.157430800410465,27.830617085776247,-13.829064954233253,39.97087508182759,-15.16868984501997,-0.008779576827343446,1.771144907220584","21.131337214603107,-4.675632658447328,2.738891080110438,47.29785870479464,26.772265344765472,-5.586708372969892,6.823611689027325,36.087163898226876","0","0"
"2808","86","text","0","91","842080","0-0","","","","","","","","","","","","","","","","","","","","","","","","","","","","","","","","","","","","",""
"","","plant-game","0","92","854567","0-0","","200","180","8","WHEAT CROP","Left","200","160","4","NETTLE WEED","experimental","33","1,2,3,4,5,6,7,8","180,198.20760008546506,210.66912601112654,211.75565878150024,195.23258143893977,212.96889102620452,230.28850271625964,247.9887018782683","8,7,6,5,4,3,2,1","WHEAT CROP,WHEAT CROP,WHEAT CROP,WHEAT CROP,WHEAT CROP,WHEAT CROP,WHEAT CROP,WHEAT CROP","160,156.1652424202088,166.75544934542768,204.7044717664654,160,186.88420331653353,215.3324730628501,210.87233112938088","4,3,2,1,4,3,2,1","NETTLE WEED,NETTLE WEED,NETTLE WEED,NETTLE WEED,THISTLE WEED,THISTLE WEED,THISTLE WEED,THISTLE WEED","20,20,20,20,20,20,20,20","20,20,20,20,20,20,20,20","10,10,10,10,10,10,10,10","20,20,20,20,20,20,20,20","0,0,0,0,0,0,0,0","20,20,20,20,20,20,20,20","20,20,20,20,20,20,20,20","20,20,20,20,20,20,20,20","10,10,10,10,10,10,10,10","20,20,20,20,20,20,20,20","0,0,0,0,0,0,0,0","20,20,20,20,20,20,20,20","0,0,0,1,0,0,1,1","2587,218,558,711,1034,579,590,413","18.207600085465053,12.461525925661483,1.0865327703737222,-16.523077342560462,17.736309587264735,17.319611690055112,17.700199162008655,-15.421758049902046","-3.8347575797912015,10.59020692521886,37.94902242103771,-13.086968251363139,26.88420331653353,28.448269746316576,-4.460141933469236,-14.672910578418552","0","0"
"633","86","text","0","93","855377","0-0","","","","","","","","","","","","","","","","","","","","","","","","","","","","","","","","","","","","",""
"","","plant-game","0","94","868906","0-0","","200","120","8","WHEAT CROP","Right","200","190","1","THISTLE WEED","experimental","34","1,2,3,4,5,6,7,8","190,130,156.88179405300727,209.7221804302987,200.07513630424137,183.24482899231683,204.27779929089598,197.42515841317393","1,7,6,5,4,3,2,1","THISTLE WEED,NETTLE WEED,NETTLE WEED,NETTLE WEED,NETTLE WEED,NETTLE WEED,NETTLE WEED,NETTLE WEED","120,145.95892203948358,166.36249935824839,194.5855547646375,205.8615877315622,198.96027238103932,209.39876727973524,220.14314159165093","8,7,6,5,4,3,2,1","WHEAT CROP,WHEAT CROP,WHEAT CROP,WHEAT CROP,WHEAT CROP,WHEAT CROP,WHEAT CROP,WHEAT CROP","0,0,0,0,0,0,0,0","20,20,20,20,20,20,20,20","10,10,10,10,10,10,10,10","20,20,20,20,20,20,20,20","20,20,20,20,20,20,20,20","20,20,20,20,20,20,20,20","0,0,0,0,0,0,0,0","20,20,20,20,20,20,20,20","10,10,10,10,10,10,10,10","20,20,20,20,20,20,20,20","20,20,20,20,20,20,20,20","20,20,20,20,20,20,20,20","0,1,1,1,0,1,0,0","2280,1087,654,480,1205,633,527,1285","-24.053293353803053,26.88179405300726,52.84038637729144,-9.64704412605731,-16.830307311924543,21.032970298579166,-6.852640877722065,-17.060394810034992","25.95892203948359,20.403577318764818,28.22305540638911,11.276032966924692,-6.901315350522892,10.438494898695929,10.744374311915703,-14.121363074846585","0","0"
"564","86","text","0","95","869540","0-0","","","","","","","","","","","","","","","","","","","","","","","","","","","","","","","","","","","","",""
"","","plant-game","0","96","882741","0-0","","200","180","8","CORN CROP","Left","200","120","8","THISTLE WEED","experimental","35","1,2,3,4,5,6,7,8","180,205.46814189794543,226.74908921352045,248.16574194465005,221.18651363399928,229.4235693396436,208.2156157028129,254.85557851490833","8,7,6,5,4,3,2,1","CORN CROP,CORN CROP,CORN CROP,CORN CROP,CORN CROP,CORN CROP,CORN CROP,CORN CROP","120,153.27658019998188,173.0924427874432,205.04107969532248,238.60234548673805,254.46122100686708,230.43998618644815,229.11297079865605","8,7,6,5,4,3,2,1","THISTLE WEED,THISTLE WEED,THISTLE WEED,THISTLE WEED,THISTLE WEED,THISTLE WEED,THISTLE WEED,THISTLE WEED","20,20,20,20,20,20,20,20","20,20,20,20,20,20,20,20","10,10,10,10,10,10,10,10","20,20,20,20,20,20,20,20","0,0,0,0,0,0,0,0","20,20,20,20,20,20,20,20","20,20,20,20,20,20,20,20","20,20,20,20,20,20,20,20","10,10,10,10,10,10,10,10","20,20,20,20,20,20,20,20","0,0,0,0,0,0,0,0","20,20,20,20,20,20,20,20","0,0,1,0,1,1,0,0","1840,1249,1956,609,653,471,534,1678","25.468141897945443,21.280947315575013,21.416652731129613,-26.979228310650768,8.237055705644305,-21.20795363683068,46.63996281209544,15.790814555844312","33.27658019998188,19.815862587461304,31.9486369078793,33.56126579141556,15.858875520129029,-24.021234820418933,-1.3270153877921054,44.680920872607935","0","0"
"747","86","text","0","97","883618","0-0","","","","","","","","","","","","","","","","","","","","","","","","","","","","","","","","","","","","",""
"","","plant-game","0","98","890217","0-0","","200","120","2","CORN CROP","Left","200","180","2","NETTLE WEED","experimental","36","1,2","120,89.55314015022785","2,1","CORN CROP,CORN CROP","180,154.54812358943013","2,1","NETTLE WEED,NETTLE WEED","20,20","20,20","10,10","20,20","0,0","20,20","20,20","20,20","10,10","20,20","0,0","20,20","1,0","2239,1144","-30.446859849772157,-1.7902731808311785","-25.451876410569866,26.67933886523963","0","0"
"654","86","text","0","99","891001","0-0","","","","","","","","","","","","","","","","","","","","","","","","","","","","","","","","","","","","",""
"","","plant-game","0","100","897681","0-0","","200","160","2","WHEAT CROP","Left","200","190","2","THISTLE WEED","experimental","37","1,2","160,190.9165868977669","2,1","WHEAT CROP,WHEAT CROP","190,237.4490003700088","2,1","THISTLE WEED,THISTLE WEED","20,20","20,20","10,10","20,20","0,0","20,20","20,20","20,20","10,10","20,20","0,0","20,20","0,0","1761,2010","30.9165868977669,72.14150170972874","47.4490003700088,53.050493202067535","0","0"
"597","86","text","0","101","898398","0-0","","","","","","","","","","","","","","","","","","","","","","","","","","","","","","","","","","","","",""
"","","plant-game","0","102","908530","0-0","","200","120","1","CORN CROP","Left","200","190","4","NETTLE WEED","experimental","38","1,2,3,4","120,170,201.4420236355945,225.58017226115746","1,3,2,1","CORN CROP,WHEAT CROP,WHEAT CROP,WHEAT CROP","190,227.86225365354824,279.9536077376094,285.79895131696776","4,3,2,1","NETTLE WEED,NETTLE WEED,NETTLE WEED,NETTLE WEED","20,20,20,20","20,20,20,20","10,10,10,10","20,20,20,20","0,0,0,0","20,20,20,20","20,20,20,20","20,20,20,20","10,10,10,10","20,20,20,20","0,0,0,0","20,20,20,20","0,0,0,0","1772,2332,886,500","24.354937139655565,31.442023635594506,24.138148625562962,21.300811713089423","37.86225365354824,52.09135408406117,5.845343579358344,22.39916321785808","0","0"
"103","86","text","0","103","908717","0-0","","","","","","","","","","","","","","","","","","","","","","","","","","","","","","","","","","","","",""
"","","plant-game","0","104","920752","0-0","","200","190","4","CORN CROP","Left","200","120","1","NETTLE WEED","experimental","39","1,2,3,4","190,230.032425921357,251.64001169123122,222.5530475794647","4,3,2,1","CORN CROP,CORN CROP,CORN CROP,CORN CROP","120,170,187.37428812234174,207.13360372169475","1,3,2,1","NETTLE WEED,THISTLE WEED,THISTLE WEED,THISTLE WEED","20,20,20,20","20,20,20,20","10,10,10,10","20,20,20,20","0,0,0,0","20,20,20,20","20,20,20,20","20,20,20,20","10,10,10,10","20,20,20,20","0,0,0,0","20,20,20,20","0,0,1,1","1670,688,443,2343","40.03242592135702,21.607585769874206,-29.086964111766534,-58.41075855583459","22.580428986189528,17.37428812234175,19.75931559935301,-15.402646606191638","0","0"
"772","86","text","0","105","921644","0-0","","","","","","","","","","","","","","","","","","","","","","","","","","","","","","","","","","","","",""
"","","plant-game","0","106","926664","0-0","","200","190","1","WHEAT CROP","Right","200","180","1","THISTLE WEED","experimental","40","1","180","1","THISTLE WEED","190","1","WHEAT CROP","0","20","10","20","20","20","0","20","10","20","20","20","1","2158","2.593665604767267","10.88164073028786","0","0"
"575","86","text","0","107","927319","0-0","","","","","","","","","","","","","","","","","","","","","","","","","","","","","","","","","","","","",""
"","","plant-game","0","108","937216","0-0","","200","180","1","CORN CROP","Left","200","160","4","THISTLE WEED","experimental","41","1,2,3,4","180,170,202.01922993969637,225.77209047421184","1,3,2,1","CORN CROP,WHEAT CROP,WHEAT CROP,WHEAT CROP","160,174.36889867970945,192.719129907939,219.7419828008468","4,3,2,1","THISTLE WEED,THISTLE WEED,THISTLE WEED,THISTLE WEED","20,20,20,20","20,20,20,20","10,10,10,10","20,20,20,20","0,0,0,0","20,20,20,20","20,20,20,20","20,20,20,20","10,10,10,10","20,20,20,20","0,0,0,0","20,20,20,20","0,0,0,1","1844,1556,1325,557","7.595952702851715,32.01922993969637,23.75286053451547,-13.280997087353017","14.368898679709456,18.350231228229553,27.022852892907814,24.800135003090602","0","0"
"630","86","text","0","109","937966","0-0","","","","","","","","","","","","","","","","","","","","","","","","","","","","","","","","","","","","",""
"","","plant-game","0","110","952375","0-0","","200","190","2","CORN CROP","Right","200","160","4","NETTLE WEED","experimental","42","1,2,3,4","160,180.95904600380544,204.7239058842303,178.75139916744033","4,3,2,1","NETTLE WEED,NETTLE WEED,NETTLE WEED,NETTLE WEED","190,235.4467494606543,180,185.16396273121546","2,1,2,1","CORN CROP,CORN CROP,WHEAT CROP,WHEAT CROP","0,0,0,0","20,20,20,20","10,10,10,10","20,20,20,20","20,20,20,20","20,20,20,20","0,0,0,0","20,20,20,20","10,10,10,10","20,20,20,20","20,20,20,20","20,20,20,20","1,0,1,1","1795,4273,1655,846","20.959046003805444,23.764859880424876,-25.97250671678998,22.30648967551642","45.44674946065431,-3.665682926938497,5.1639627312154595,3.4788221826150547","0","0"
"197","86","text","0","111","952702","0-0","","","","","","","","","","","","","","","","","","","","","","","","","","","","","","","","","","","","",""
"","","plant-game","0","112","964599","0-0","","200","160","2","WHEAT CROP","Left","200","180","8","THISTLE WEED","experimental","43","1,2,3,4,5,6,7,8","160,159.06718740305874,140,164.03080531116842,153.86021899546915,164.4534649630773,211.01225798585904,230.94796707123297","2,1,6,5,4,3,2,1","WHEAT CROP,WHEAT CROP,CORN CROP,CORN CROP,CORN CROP,CORN CROP,CORN CROP,CORN CROP","180,220.35120099342677,252.4323850994067,269.27143787193893,276.68286869175125,262.99766725964486,232.22116250208535,229.31652708416806","8,7,6,5,4,3,2,1","THISTLE WEED,THISTLE WEED,THISTLE WEED,THISTLE WEED,THISTLE WEED,THISTLE WEED,THISTLE WEED,THISTLE WEED","20,20,20,20,20,20,20,20","20,20,20,20,20,20,20,20","10,10,10,10,10,10,10,10","20,20,20,20,20,20,20,20","0,0,0,0,0,0,0,0","20,20,20,20,20,20,20,20","20,20,20,20,20,20,20,20","20,20,20,20,20,20,20,20","10,10,10,10,10,10,10,10","20,20,20,20,20,20,20,20","0,0,0,0,0,0,0,0","20,20,20,20,20,20,20,20","0,0,0,0,1,1,1,1","1772,874,1037,600,150,422,935,557","-0.932812596941254,18.327966194806276,24.030805311168418,-10.170586315699268,10.593245967608151,46.558793022781735,19.935709085373936,-22.3261962209652","40.351200993426765,32.08118410597994,16.839052772532213,7.4114308198123435,-13.685201432106375,-30.776504757559493,-2.904635417917283,-4.866768988159294","0","0"
"697","86","text","0","113","965446","0-0","","","","","","","","","","","","","","","","","","","","","","","","","","","","","","","","","","","","",""
"","","plant-game","0","114","978750","0-0","","200","120","2","WHEAT CROP","Left","200","120","8","THISTLE WEED","experimental","44","1,2,3,4,5,6,7,8","120,122.07260612726616,140,167.23252058283742,209.69311173231776,224.02024875414378,258.3525977439762,290.7008083261426","2,1,6,5,4,3,2,1","WHEAT CROP,WHEAT CROP,CORN CROP,CORN CROP,CORN CROP,CORN CROP,CORN CROP,CORN CROP","120,134.57305044612102,122.98862590037902,116.46646332293767,136.7436235134054,150.53441265620546,174.52580789801664,218.87734938450743","8,7,6,5,4,3,2,1","THISTLE WEED,THISTLE WEED,THISTLE WEED,THISTLE WEED,THISTLE WEED,THISTLE WEED,THISTLE WEED,THISTLE WEED","20,20,20,20,20,20,20,20","20,20,20,20,20,20,20,20","10,10,10,10,10,10,10,10","20,20,20,20,20,20,20,20","0,0,0,0,0,0,0,0","20,20,20,20,20,20,20,20","20,20,20,20,20,20,20,20","20,20,20,20,20,20,20,20","10,10,10,10,10,10,10,10","20,20,20,20,20,20,20,20","0,0,0,0,0,0,0,0","20,20,20,20,20,20,20,20","0,1,0,0,0,0,0,1","1783,2310,1275,745,665,386,388,490","2.0726061272661553,-10.994074096779281,27.232520582837417,42.46059114948034,14.327137021826017,34.332348989832454,32.34821058216637,7.405862153228989","14.573050446121027,-11.584424545741998,-6.52216257744135,20.277160190467736,13.790789142800055,23.99139524181118,44.351541486490795,-2.683421908369667","0","0"
"831","86","text","0","115","979703","0-0","","","","","","","","","","","","","","","","","","","","","","","","","","","","","","","","","","","","",""
"","","plant-game","0","116","990031","0-0","","200","160","8","CORN CROP","Left","200","160","2","THISTLE WEED","experimental","45","1,2,3,4,5,6,7,8","160,173.1078375256055,175.6279804445672,180.61162841937474,210.10036840988715,212.81255828748613,198.006822518947,232.59297239684224","8,7,6,5,4,3,2,1","CORN CROP,CORN CROP,CORN CROP,CORN CROP,CORN CROP,CORN CROP,CORN CROP,CORN CROP","160,157.65937347107564,140,168.75312345018864,202.92217063155013,198.63139688883743,207.58289527199523,250.75624874408197","2,1,6,5,4,3,2,1","THISTLE WEED,THISTLE WEED,NETTLE WEED,NETTLE WEED,NETTLE WEED,NETTLE WEED,NETTLE WEED,NETTLE WEED","20,20,20,20,20,20,20,20","20,20,20,20,20,20,20,20","10,10,10,10,10,10,10,10","20,20,20,20,20,20,20,20","0,0,0,0,0,0,0,0","20,20,20,20,20,20,20,20","20,20,20,20,20,20,20,20","20,20,20,20,20,20,20,20","10,10,10,10,10,10,10,10","20,20,20,20,20,20,20,20","0,0,0,0,0,0,0,0","20,20,20,20,20,20,20,20","0,0,0,0,1,1,1,1","1528,374,773,411,533,394,617,539","13.1078375256055,2.52014291896171,4.983647974807532,29.48873999051242,2.7121898775989797,-14.805735768539146,34.58614987789525,-63.8583065837629","-2.3406265289243713,51.030014729060326,28.753123450188653,34.16904718136149,-4.290773742712705,8.951498383157805,43.17335347208675,42.588942052675336","0","0"
"192","86","text","0","117","990273","0-0","","","","","","","","","","","","","","","","","","","","","","","","","","","","","","","","","","","","",""
"","","plant-game","0","118","999811","0-0","","200","160","1","CORN CROP","Right","200","180","4","THISTLE WEED","experimental","46","1,2,3,4","180,199.79164650878062,278.01069732868274,266.47838390121296","4,3,2,1","THISTLE WEED,THISTLE WEED,THISTLE WEED,THISTLE WEED","160,170,196.47832375454635,135.65925289078302","1,3,2,1","CORN CROP,WHEAT CROP,WHEAT CROP,WHEAT CROP","0,0,0,0","20,20,20,20","10,10,10,10","20,20,20,20","20,20,20,20","20,20,20,20","0,0,0,0","20,20,20,20","10,10,10,10","20,20,20,20","20,20,20,20","20,20,20,20","1,1,0,1","993,748,537,1117","19.79164650878061,78.21905081990212,-11.532313427469774,36.85444489335791","35.129461686529446,26.47832375454635,-60.81907086376332,62.85696328912942","0","0"
"704","86","text","0","119","1000675","0-0","","","","","","","","","","","","","","","","","","","","","","","","","","","","","","","","","","","","",""
"","","plant-game","0","120","1010960","0-0","","200","160","4","WHEAT CROP","Right","200","120","2","THISTLE WEED","experimental","47","1,2,3,4","120,137.95447351133583,180,153.1566512997654","2,1,2,1","THISTLE WEED,THISTLE WEED,NETTLE WEED,NETTLE WEED","160,205.9705914900975,220.5588496633472,238.9705784904738","4,3,2,1","WHEAT CROP,WHEAT CROP,WHEAT CROP,WHEAT CROP","0,0,0,0","20,20,20,20","10,10,10,10","20,20,20,20","20,20,20,20","20,20,20,20","0,0,0,0","20,20,20,20","10,10,10,10","20,20,20,20","20,20,20,20","20,20,20,20","1,1,0,0","1158,1085,2128,1143","17.954473511335834,43.26621755373958,-26.8433487002346,-12.689038529744494","45.970591490097476,14.588258173249713,18.4117288271266,34.26168687004104","0","0"
"620","86","text","0","121","1011740","0-0","","","","","","","","","","","","","","","","","","","","","","","","","","","","","","","","","","","","",""
"","","plant-game","0","122","1027033","0-0","","200","120","2","WHEAT CROP","Right","200","190","4","THISTLE WEED","experimental","48","1,2,3,4","190,193.53646957578422,253.45654994328845,233.35267434979707","4,3,2,1","THISTLE WEED,THISTLE WEED,THISTLE WEED,THISTLE WEED","120,141.55814281110258,180,189.3185733531553","2,1,2,1","WHEAT CROP,WHEAT CROP,CORN CROP,CORN CROP","0,0,0,0","20,20,20,20","10,10,10,10","20,20,20,20","20,20,20,20","20,20,20,20","0,0,0,0","20,20,20,20","10,10,10,10","20,20,20,20","20,20,20,20","20,20,20,20","1,1,0,1","2051,4274,1237,1236","3.5364695757842384,59.92008036750424,-20.10387559349139,21.461983391424717","21.55814281110259,28.70587101595334,9.318573353155289,15.340131663714322","0","0"
"2332","86","text","0","123","1029535","0-0","","","","","","","","","","","","","","","","","","","","","","","","","","","","","","","","","","","","",""
"","","plant-game","0","124","1041346","0-0","","200","120","2","WHEAT CROP","Right","200","180","1","NETTLE WEED","experimental","49","1,2","180,190","1,1","NETTLE WEED,THISTLE WEED","120,128.93411367928826","2,1","WHEAT CROP,WHEAT CROP","0,0","20,20","10,10","20,20","20,20","20,20","0,0","20,20","10,10","20,20","20,20","20,20","1,0","3944,3127","1.912663939084652,-20.584502070043243","8.934113679288274,-3.108843141666207","0","0"
"596","86","text","0","125","1042067","0-0","","","","","","","","","","","","","","","","","","","","","","","","","","","","","","","","","","","","",""
"","","plant-game","0","126","1052109","0-0","","200","120","4","CORN CROP","Left","200","190","1","THISTLE WEED","experimental","50","1,2,3,4","120,127.40684974557229,160.40337002660948,160.3907242177386","4,3,2,1","CORN CROP,CORN CROP,CORN CROP,CORN CROP","190,170,186.84143013327346,154.7130466101081","1,3,2,1","THISTLE WEED,NETTLE WEED,NETTLE WEED,NETTLE WEED","20,20,20,20","20,20,20,20","10,10,10,10","20,20,20,20","0,0,0,0","20,20,20,20","20,20,20,20","20,20,20,20","10,10,10,10","20,20,20,20","0,0,0,0","20,20,20,20","1,0,1,0","2198,1804,718,628","7.406849745572286,32.996520281037185,-0.012645808870879792,35.76909672072838","1.6173016846182509,16.84143013327347,-32.12838352316537,67.82047883085214","0","0"
"77","86","text","0","127","1052266","0-0","","","","","","","","","","","","","","","","","","","","","","","","","","","","","","","","","","","","",""
"","","plant-game","0","128","1057296","0-0","","200","120","1","CORN CROP","Right","200","120","1","THISTLE WEED","experimental","51","1","120","1","THISTLE WEED","120","1","CORN CROP","0","20","10","20","20","20","0","20","10","20","20","20","1","2398","31.793021988507732","22.071915459895042","0","0"
"577","86","text","0","129","1058013","0-0","","","","","","","","","","","","","","","","","","","","","","","","","","","","","","","","","","","","",""
"","","plant-game","0","130","1066691","0-0","","200","180","4","WHEAT CROP","Right","200","160","1","NETTLE WEED","experimental","52","1,2,3,4","160,170,203.26883269283002,245.18265241112448","1,3,2,1","NETTLE WEED,THISTLE WEED,THISTLE WEED,THISTLE WEED","180,179.53087282671495,185.21586612317972,189.10157120506938","4,3,2,1","WHEAT CROP,WHEAT CROP,WHEAT CROP,WHEAT CROP","0,0,0,0","20,20,20,20","10,10,10,10","20,20,20,20","20,20,20,20","20,20,20,20","0,0,0,0","20,20,20,20","10,10,10,10","20,20,20,20","20,20,20,20","20,20,20,20","1,1,1,1","1380,1190,1189,417","32.7760022620016,33.268832692830024,41.91381971829447,57.869112867534184","-0.4691271732850524,5.68499329646478,3.8857050818896433,9.269622739039198","0","0"
"534","86","text","0","131","1067338","0-0","","","","","","","","","","","","","","","","","","","","","","","","","","","","","","","","","","","","",""
"","","plant-game","0","132","1078388","0-0","","200","190","2","CORN CROP","Left","200","180","4","THISTLE WEED","experimental","53","1,2,3,4","190,250.84052471832513,180,206.15051349503963","2,1,2,1","CORN CROP,CORN CROP,WHEAT CROP,WHEAT CROP","180,190.13137599112628,180.72409392378077,173.18153823907946","4,3,2,1","THISTLE WEED,THISTLE WEED,THISTLE WEED,THISTLE WEED","20,20,20,20","20,20,20,20","10,10,10,10","20,20,20,20","0,0,0,0","20,20,20,20","20,20,20,20","20,20,20,20","10,10,10,10","20,20,20,20","0,0,0,0","20,20,20,20","0,1,0,0","1473,1167,2315,1117","60.84052471832514,-29.681609841804494,26.15051349503963,-11.857960916143739","10.131375991126262,-9.407282067345507,-7.5425556847013056,55.93284650042682","0","0"
"79","86","text","0","133","1078569","0-0","","","","","","","","","","","","","","","","","","","","","","","","","","","","","","","","","","","","",""
"","","plant-game","0","134","1098831","0-0","","200","190","4","WHEAT CROP","Right","200","180","8","NETTLE WEED","experimental","54","1,2,3,4,5,6,7,8","180,187.37908485760914,177.71589920284438,188.98576891125495,183.74374079843605,195.71625768559852,208.7343174078299,187.65204422354","8,7,6,5,4,3,2,1","NETTLE WEED,NETTLE WEED,NETTLE WEED,NETTLE WEED,NETTLE WEED,NETTLE WEED,NETTLE WEED,NETTLE WEED","190,214.7374522404346,229.48798395288205,267.42275845713226,160,185.24313930027967,232.55568311183498,231.13546352388585","4,3,2,1,4,3,2,1","WHEAT CROP,WHEAT CROP,WHEAT CROP,WHEAT CROP,CORN CROP,CORN CROP,CORN CROP,CORN CROP","0,0,0,0,0,0,0,0","20,20,20,20,20,20,20,20","10,10,10,10,10,10,10,10","20,20,20,20,20,20,20,20","20,20,20,20,20,20,20,20","20,20,20,20,20,20,20,20","0,0,0,0,0,0,0,0","20,20,20,20,20,20,20,20","10,10,10,10,10,10,10,10","20,20,20,20,20,20,20,20","20,20,20,20,20,20,20,20","20,20,20,20,20,20,20,20","1,0,0,0,1,1,0,0","4927,1070,737,964,5428,803,535,875","7.379084857609133,-9.66318565476475,11.269869708410559,-5.242028112818888,11.972516887162469,13.0180597222314,-21.082273184289914,14.681742600308459","24.737452240434596,14.750531712447446,37.934774504250235,13.30650572809751,25.24313930027965,47.3125438115553,-1.4202195879491364,-5.936220848566801","0","0"
"697","86","text","0","135","1099657","0-0","","","","","","","","","","","","","","","","","","","","","","","","","","","","","","","","","","","","",""
"","","plant-game","0","136","1106766","0-0","","200","180","4","WHEAT CROP","Left","200","160","4","THISTLE WEED","experimental","55","1,2,3,4","180,158.6750964809736,207.35051263306713,204.5779061929406","4,3,2,1","WHEAT CROP,WHEAT CROP,WHEAT CROP,WHEAT CROP","160,205.5918222361929,239.67839630661246,266.5596877026608","4,3,2,1","THISTLE WEED,THISTLE WEED,THISTLE WEED,THISTLE WEED","20,20,20,20","20,20,20,20","10,10,10,10","20,20,20,20","0,0,0,0","20,20,20,20","20,20,20,20","20,20,20,20","10,10,10,10","20,20,20,20","0,0,0,0","20,20,20,20","0,0,1,0","1830,771,783,794","-21.3249035190264,48.67541615209354,-2.7726064401265487,25.88689522833887","45.5918222361929,34.08657407041956,26.881291396048354,9.123895182513708","0","0"
"176","86","text","0","137","1107053","0-0","","","","","","","","","","","","","","","","","","","","","","","","","","","","","","","","","","","","",""
"","","plant-game","0","138","1118313","0-0","","200","190","2","CORN CROP","Left","200","160","8","NETTLE WEED","experimental","56","1,2,3,4,5,6,7,8","190,205.1795442953013,140,167.1001631478372,194.69459382780383,220.1895886001785,245.82220838499939,211.9566712761067","2,1,6,5,4,3,2,1","CORN CROP,CORN CROP,WHEAT CROP,WHEAT CROP,WHEAT CROP,WHEAT CROP,WHEAT CROP,WHEAT CROP","160,192.57756374052815,167.9117002255662,175.63515979304458,199.8719984960228,224.17974638929127,234.40479239576626,208.84748113726891","8,7,6,5,4,3,2,1","NETTLE WEED,NETTLE WEED,NETTLE WEED,NETTLE WEED,NETTLE WEED,NETTLE WEED,NETTLE WEED,NETTLE WEED","20,20,20,20,20,20,20,20","20,20,20,20,20,20,20,20","10,10,10,10,10,10,10,10","20,20,20,20,20,20,20,20","0,0,0,0,0,0,0,0","20,20,20,20,20,20,20,20","20,20,20,20,20,20,20,20","20,20,20,20,20,20,20,20","10,10,10,10,10,10,10,10","20,20,20,20,20,20,20,20","0,0,0,0,0,0,0,0","20,20,20,20,20,20,20,20","0,1,0,0,0,1,1,1","1552,1028,1649,368,466,415,433,481","15.179544295301302,-4.77303145793474,27.10016314783721,27.594430679966624,25.494994772374675,25.632619784820875,-33.86553710889268,32.44645391804078","32.57756374052816,-24.665863514961956,7.72345956747839,24.236838702978233,24.307747893268484,10.225046006475004,-25.557311258497354,7.186282738985187","0","0"
"89","86","text","0","139","1118492","0-0","","","","","","","","","","","","","","","","","","","","","","","","","","","","","","","","","","","","",""
"","","plant-game","0","140","1127137","0-0","","200","180","2","CORN CROP","Left","200","120","4","NETTLE WEED","experimental","57","1,2,3,4","180,212.13418099152,180,187.25202528767892","2,1,2,1","CORN CROP,CORN CROP,WHEAT CROP,WHEAT CROP","120,121.47827846534602,156.32716798793453,154.12215576363906","4,3,2,1","NETTLE WEED,NETTLE WEED,NETTLE WEED,NETTLE WEED","20,20,20,20","20,20,20,20","10,10,10,10","20,20,20,20","0,0,0,0","20,20,20,20","20,20,20,20","20,20,20,20","10,10,10,10","20,20,20,20","0,0,0,0","20,20,20,20","0,0,0,0","1304,885,1077,378","32.13418099152,35.716935492208776,7.252025287678919,2.1374115298195235","1.4782784653460261,34.8488895225885,-2.205012224295487,50.53682658264935","0","0"
"1487","86","text","0","141","1128734","0-0","","","","","","","","","","","","","","","","","","","","","","","","","","","","","","","","","","","","",""
"","","plant-game","0","142","1136286","0-0","","200","120","1","CORN CROP","Left","200","190","2","THISTLE WEED","experimental","58","1,2","120,190","1,1","CORN CROP,WHEAT CROP","190,212.76605657660318","2,1","THISTLE WEED,THISTLE WEED","20,20","20,20","10,10","20,20","0,0","20,20","20,20","20,20","10,10","20,20","0,0","20,20","1,0","2552,1094","-23.874473738927993,-24.71748513636966","22.766056576603187,46.2167399096685","0","0"
"730","86","text","0","143","1137166","0-0","","","","","","","","","","","","","","","","","","","","","","","","","","","","","","","","","","","","",""
"","","plant-game","0","144","1142106","0-0","","200","120","2","CORN CROP","Left","200","190","2","THISTLE WEED","experimental","59","1,2","120,132.94394403762337","2,1","CORN CROP,CORN CROP","190,221.4622073186507","2,1","THISTLE WEED,THISTLE WEED","20,20","20,20","10,10","20,20","0,0","20,20","20,20","20,20","10,10","20,20","0,0","20,20","0,1","1799,674","12.943944037623373,-9.27592177723314","31.462207318650712,-9.039545203874075","0","0"
"177","86","text","0","145","1142383","0-0","","","","","","","","","","","","","","","","","","","","","","","","","","","","","","","","","","","","",""
"","","plant-game","0","146","1153097","0-0","","200","190","1","CORN CROP","Left","200","160","8","NETTLE WEED","experimental","60","1,2,3,4,5,6,7,8","190,130,170.2387940488619,154.47484639282033,168.84553010510842,204.89945612038218,213.894314884578,232.02046928026746","1,7,6,5,4,3,2,1","CORN CROP,WHEAT CROP,WHEAT CROP,WHEAT CROP,WHEAT CROP,WHEAT CROP,WHEAT CROP,WHEAT CROP","160,171.5583529575632,231.62210392106613,238.86489977054185,236.12909802407447,244.24633098774237,287.18795671298085,311.921958042771","8,7,6,5,4,3,2,1","NETTLE WEED,NETTLE WEED,NETTLE WEED,NETTLE WEED,NETTLE WEED,NETTLE WEED,NETTLE WEED,NETTLE WEED","20,20,20,20,20,20,20,20","20,20,20,20,20,20,20,20","10,10,10,10,10,10,10,10","20,20,20,20,20,20,20,20","0,0,0,0,0,0,0,0","20,20,20,20,20,20,20,20","20,20,20,20,20,20,20,20","20,20,20,20,20,20,20,20","10,10,10,10,10,10,10,10","20,20,20,20,20,20,20,20","0,0,0,0,0,0,0,0","20,20,20,20,20,20,20,20","0,0,1,1,0,1,0,1","1252,1186,714,946,535,518,587,434","15.193540217479242,40.23879404886189,-15.763947656041584,14.370683712288095,36.053926015273774,8.994858764195824,18.12615439568947,25.35604812585621","11.558352957563182,60.063750963502926,7.242795849475723,-2.7358017464673994,8.117232963667911,42.94162572523849,24.734001329790125,6.869003011287251","0","0"
"77","86","text","0","147","1153247","0-0","","","","","","","","","","","","","","","","","","","","","","","","","","","","","","","","","","","","",""
"","","plant-game","0","148","1169300","0-0","","200","180","8","WHEAT CROP","Left","200","190","8","NETTLE WEED","experimental","61","1,2,3,4,5,6,7,8","180,213.46618539675532,221.81181031280806,234.2167441114111,238.68696977671675,229.4933562980634,224.55709561463559,200.73245003130035","8,7,6,5,4,3,2,1","WHEAT CROP,WHEAT CROP,WHEAT CROP,WHEAT CROP,WHEAT CROP,WHEAT CROP,WHEAT CROP,WHEAT CROP","190,222.73176734349238,215.7012425282161,227.4674894693451,251.48868177652471,267.0753887939231,209.75441040217936,201.87984083404857","8,7,6,5,4,3,2,1","NETTLE WEED,NETTLE WEED,NETTLE WEED,NETTLE WEED,NETTLE WEED,NETTLE WEED,NETTLE WEED,NETTLE WEED","20,20,20,20,20,20,20,20","20,20,20,20,20,20,20,20","10,10,10,10,10,10,10,10","20,20,20,20,20,20,20,20","0,0,0,0,0,0,0,0","20,20,20,20,20,20,20,20","20,20,20,20,20,20,20,20","20,20,20,20,20,20,20,20","10,10,10,10,10,10,10,10","20,20,20,20,20,20,20,20","0,0,0,0,0,0,0,0","20,20,20,20,20,20,20,20","0,1,1,1,1,1,1,0","1046,934,453,448,398,404,641,3543","33.46618539675532,8.345624916052753,12.404933798603013,4.470225665305662,-9.193613478653353,-4.936260683427795,-23.824645583335254,47.33027540599193","32.73176734349237,-7.030524815276253,11.766246941128987,24.02119230717961,15.586707017398364,-57.32097839174373,-7.874569568130788,18.720180769480216","0","0"
"543","86","text","0","149","1169943","0-0","","","","","","","","","","","","","","","","","","","","","","","","","","","","","","","","","","","","",""
"","","plant-game","0","150","1183222","0-0","","200","190","8","WHEAT CROP","Left","200","160","4","THISTLE WEED","experimental","62","1,2,3,4,5,6,7,8","190,218.74808481628352,203.91966448886316,196.1784206901376,187.2458952221433,225.70380269027294,244.122459628639,245.207942467415","8,7,6,5,4,3,2,1","WHEAT CROP,WHEAT CROP,WHEAT CROP,WHEAT CROP,WHEAT CROP,WHEAT CROP,WHEAT CROP,WHEAT CROP","160,182.9668483394704,183.90762592965075,173.83690679086592,160,181.58045837295012,142.5659887635551,170.95599579023346","4,3,2,1,4,3,2,1","THISTLE WEED,THISTLE WEED,THISTLE WEED,THISTLE WEED,NETTLE WEED,NETTLE WEED,NETTLE WEED,NETTLE WEED","20,20,20,20,20,20,20,20","20,20,20,20,20,20,20,20","10,10,10,10,10,10,10,10","20,20,20,20,20,20,20,20","0,0,0,0,0,0,0,0","20,20,20,20,20,20,20,20","20,20,20,20,20,20,20,20","20,20,20,20,20,20,20,20","10,10,10,10,10,10,10,10","20,20,20,20,20,20,20,20","0,0,0,0,0,0,0,0","20,20,20,20,20,20,20,20","0,0,1,1,0,1,1,1","988,813,400,312,1536,948,739,493","28.748084816283523,-14.828420327420368,-7.741243798725557,-8.93252546799432,38.45790746812962,18.41865693836606,1.0854828387759972,-20.41490953452701","22.96684833947039,0.9407775901803497,-10.070719138784824,-29.122280191152367,21.580458372950126,-39.014469609395015,28.390007026678354,10.640232605985435","3","0"
"505","86","text","0","151","1183837","0-0","","","","","","","","","","","","","","","","","","","","","","","","","","","","","","","","","","","","",""
"","","plant-game","0","152","1191871","0-0","","200","190","1","WHEAT CROP","Left","200","180","2","NETTLE WEED","experimental","63","1,2","190,190","1,1","WHEAT CROP,CORN CROP","180,207.19969311152795","2,1","NETTLE WEED,NETTLE WEED","20,20","20,20","10,10","20,20","0,0","20,20","20,20","20,20","10,10","20,20","0,0","20,20","0,1","1001,1462","24.136922396190148,7.498496599061232","27.199693111527953,-4.3273254844315465","0","0"
"668","86","text","0","153","1192669","0-0","","","","","","","","","","","","","","","","","","","","","","","","","","","","","","","","","","","","",""
"","","plant-game","0","154","1197322","0-0","","200","190","2","WHEAT CROP","Right","200","160","2","THISTLE WEED","experimental","64","1,2","160,180.74160834265496","2,1","THISTLE WEED,THISTLE WEED","190,196.1266662973204","2,1","WHEAT CROP,WHEAT CROP","0,0","20,20","10,10","20,20","20,20","20,20","0,0","20,20","10,10","20,20","20,20","20,20","1,1","1757,370","20.741608342654967,12.706271142292959","6.126666297320423,13.879937408915438","0","0"
"1273","86","text","0","155","1198725","0-0","","","","","","","","","","","","","","","","","","","","","","","","","","","","","","","","","","","","",""
"","","plant-game","0","156","1213536","0-0","","200","190","8","WHEAT CROP","Right","200","120","2","NETTLE WEED","experimental","65","1,2,3,4,5,6,7,8","120,136.15716030671655,140,126.01995560735078,142.88347782095263,169.45708906444918,155.22768920565667,161.51652011514852","2,1,6,5,4,3,2,1","NETTLE WEED,NETTLE WEED,THISTLE WEED,THISTLE WEED,THISTLE WEED,THISTLE WEED,THISTLE WEED,THISTLE WEED","190,229.45361779351893,231.54410900431884,210.90080470685973,221.1988337191706,216.73253075655464,192.3957955776812,201.48641960773563","8,7,6,5,4,3,2,1","WHEAT CROP,WHEAT CROP,WHEAT CROP,WHEAT CROP,WHEAT CROP,WHEAT CROP,WHEAT CROP,WHEAT CROP","0,0,0,0,0,0,0,0","20,20,20,20,20,20,20,20","10,10,10,10,10,10,10,10","20,20,20,20,20,20,20,20","20,20,20,20,20,20,20,20","20,20,20,20,20,20,20,20","0,0,0,0,0,0,0,0","20,20,20,20,20,20,20,20","10,10,10,10,10,10,10,10","20,20,20,20,20,20,20,20","20,20,20,20,20,20,20,20","20,20,20,20,20,20,20,20","1,0,0,0,0,0,1,1","1686,1011,4164,402,367,557,963,980","16.157160306716545,-6.820503565327746,-13.98004439264922,16.863522213601854,26.573611243496554,-14.229399858792496,6.288830909491844,2.7376576564870234","39.45361779351893,2.0904912107999247,-20.643304297459125,10.298029012310865,-4.466302962615966,-24.33673517887344,9.090624030054409,10.96005393419963","0","0"
"798","86","text","0","157","1214511","0-0","","","","","","","","","","","","","","","","","","","","","","","","","","","","","","","","","","","","",""
"","","plant-game","0","158","1225782","0-0","","200","120","1","CORN CROP","Right","200","190","8","NETTLE WEED","experimental","66","1,2,3,4,5,6,7,8","190,213.59268041892216,214.07809417600734,209.57503103998158,252.210952978875,242.7190779200001,291.0357699096079,323.58508429489575","8,7,6,5,4,3,2,1","NETTLE WEED,NETTLE WEED,NETTLE WEED,NETTLE WEED,NETTLE WEED,NETTLE WEED,NETTLE WEED,NETTLE WEED","120,130,142.27244161413648,140.52163273164132,147.97397878973948,167.00230197332758,175.83327391138474,206.05235872169686","1,7,6,5,4,3,2,1","CORN CROP,WHEAT CROP,WHEAT CROP,WHEAT CROP,WHEAT CROP,WHEAT CROP,WHEAT CROP,WHEAT CROP","0,0,0,0,0,0,0,0","20,20,20,20,20,20,20,20","10,10,10,10,10,10,10,10","20,20,20,20,20,20,20,20","20,20,20,20,20,20,20,20","20,20,20,20,20,20,20,20","0,0,0,0,0,0,0,0","20,20,20,20,20,20,20,20","10,10,10,10,10,10,10,10","20,20,20,20,20,20,20,20","20,20,20,20,20,20,20,20","20,20,20,20,20,20,20,20","0,1,1,1,1,1,1,1","3075,1198,698,675,295,265,107,95","23.592680418922157,0.4854137570851904,-4.503063136025766,42.63592193889343,-9.491875058874903,48.31669198960781,32.54931438528786,-17.555560024052667","-14.45563689570087,12.272441614136476,-1.750808882495157,7.452346058098151,19.02832318358809,8.830971938057168,30.21908481031213,10.050983845248924","0","0"
"580","86","text","0","159","1226462","0-0","","","","","","","","","","","","","","","","","","","","","","","","","","","","","","","","","","","","",""
"","","plant-game","0","160","1236056","0-0","","200","180","1","WHEAT CROP","Right","200","120","2","NETTLE WEED","experimental","67","1,2","120,151.9447386878644","2,1","NETTLE WEED,NETTLE WEED","180,190","1,1","WHEAT CROP,CORN CROP","0,0","20,20","10,10","20,20","20,20","20,20","0,0","20,20","10,10","20,20","20,20","20,20","1,1","3713,1301","31.9447386878644,27.974866583630618","25.34653716103938,7.847350221280838","0","0"
"670","86","text","0","161","1236866","0-0","","","","","","","","","","","","","","","","","","","","","","","","","","","","","","","","","","","","",""
"","","plant-game","0","162","1243155","0-0","","200","160","1","WHEAT CROP","Left","200","120","2","NETTLE WEED","experimental","68","1,2","160,190","1,1","WHEAT CROP,CORN CROP","120,111.16574453415664","2,1","NETTLE WEED,NETTLE WEED","20,20","20,20","10,10","20,20","0,0","20,20","20,20","20,20","10,10","20,20","0,0","20,20","0,0","1399,1131","21.546223671791395,7.163665962327016","-8.83425546584336,27.519083934729228","0","0"
"765","86","text","0","163","1244050","0-0","","","","","","","","","","","","","","","","","","","","","","","","","","","","","","","","","","","","",""
"","","plant-game","0","164","1252763","0-0","","200","120","1","CORN CROP","Left","200","180","8","THISTLE WEED","experimental","69","1,2,3,4,5,6,7,8","120,130,126.45210703025184,134.74324726020797,150.0311508927325,161.41945009047933,173.71262733285099,190.07345976675197","1,7,6,5,4,3,2,1","CORN CROP,WHEAT CROP,WHEAT CROP,WHEAT CROP,WHEAT CROP,WHEAT CROP,WHEAT CROP,WHEAT CROP","180,184.77818327190016,207.04656858129687,202.14299174827764,206.38047379827228,216.16214198227684,244.37022142259627,258.4959163330376","8,7,6,5,4,3,2,1","THISTLE WEED,THISTLE WEED,THISTLE WEED,THISTLE WEED,THISTLE WEED,THISTLE WEED,THISTLE WEED,THISTLE WEED","20,20,20,20,20,20,20,20","20,20,20,20,20,20,20,20","10,10,10,10,10,10,10,10","20,20,20,20,20,20,20,20","0,0,0,0,0,0,0,0","20,20,20,20,20,20,20,20","20,20,20,20,20,20,20,20","20,20,20,20,20,20,20,20","10,10,10,10,10,10,10,10","20,20,20,20,20,20,20,20","0,0,0,0,0,0,0,0","20,20,20,20,20,20,20,20","1,1,0,0,0,0,0,0","1361,898,617,333,72,68,51,55","8.213427268626042,-3.5478929697481645,8.291140229956142,15.28790363252455,11.388299197746814,12.29317724237166,16.36083243390098,8.775920973532337","4.778183271900166,22.268385309396713,-4.903576833019237,4.237482049994645,9.781668184004564,28.208079440319423,14.125694910441334,-12.056734446147125","0","0"
"1332","86","text","0","165","1254232","0-0","","","","","","","","","","","","","","","","","","","","","","","","","","","","","","","","","","","","",""
"","","plant-game","0","166","1263915","0-0","","200","120","1","CORN CROP","Left","200","120","4","THISTLE WEED","experimental","70","1,2,3,4","120,170,210.46779182922955,228.4996622885593","1,3,2,1","CORN CROP,WHEAT CROP,WHEAT CROP,WHEAT CROP","120,160.1337762816049,150.94883458070507,187.39661596722988","4,3,2,1","THISTLE WEED,THISTLE WEED,THISTLE WEED,THISTLE WEED","20,20,20,20","20,20,20,20","10,10,10,10","20,20,20,20","0,0,0,0","20,20,20,20","20,20,20,20","20,20,20,20","10,10,10,10","20,20,20,20","0,0,0,0","20,20,20,20","0,0,0,0","1728,2174,93,93","15.563062447081348,40.46779182922954,18.03187045932974,36.62730287615867","40.133776281604895,-9.184941700899834,36.447781386524795,16.52697839074323","0","0"
"1014","86","text","0","167","1265040","0-0","","","","","","","","","","","","","","","","","","","","","","","","","","","","","","","","","","","","",""
"","","plant-game","0","168","1275921","0-0","","200","180","1","WHEAT CROP","Right","200","190","8","NETTLE WEED","experimental","71","1,2,3,4,5,6,7,8","190,193.82213126793522,221.39484543664688,236.255434209508,264.7800050493634,281.64244767005306,327.9997393034648,375.12048928672726","8,7,6,5,4,3,2,1","NETTLE WEED,NETTLE WEED,NETTLE WEED,NETTLE WEED,NETTLE WEED,NETTLE WEED,NETTLE WEED,NETTLE WEED","180,130,168.5966003962464,169.9233479506775,174.0409238276877,143.48278417179483,179.7283678976608,214.04367150994833","1,7,6,5,4,3,2,1","WHEAT CROP,CORN CROP,CORN CROP,CORN CROP,CORN CROP,CORN CROP,CORN CROP,CORN CROP","0,0,0,0,0,0,0,0","20,20,20,20,20,20,20,20","10,10,10,10,10,10,10,10","20,20,20,20,20,20,20,20","20,20,20,20,20,20,20,20","20,20,20,20,20,20,20,20","0,0,0,0,0,0,0,0","20,20,20,20,20,20,20,20","10,10,10,10,10,10,10,10","20,20,20,20,20,20,20,20","20,20,20,20,20,20,20,20","20,20,20,20,20,20,20,20","1,1,1,1,1,1,1,1","1897,3058,143,87,370,65,310,91","3.8221312679352124,27.572714168711656,14.86058877286111,28.524570839855414,16.862442620689652,46.35729163341178,47.120749983262456,-0.7831305458278663","6.39456914552175,38.5966003962464,1.3267475544311047,4.117575877010182,-30.558139655892873,36.24558372586597,34.31530361228752,30.11241388112537","0","0"
"621","86","text","0","169","1276672","0-0","","","","","","","","","","","","","","","","","","","","","","","","","","","","","","","","","","","","",""
"","","plant-game","0","170","1287448","0-0","","200","120","8","WHEAT CROP","Left","200","120","1","NETTLE WEED","experimental","72","1,2,3,4,5,6,7,8","120,157.74390480158613,166.63850309499404,169.41754853553942,248.01069423701142,232.05845927438372,280.0658042103243,254.2871485614931","8,7,6,5,4,3,2,1","WHEAT CROP,WHEAT CROP,WHEAT CROP,WHEAT CROP,WHEAT CROP,WHEAT CROP,WHEAT CROP,WHEAT CROP","120,130,154.17479199334696,196.22839756262573,219.34830557177935,210.04262873818314,215.3364794695286,236.65835710292134","1,7,6,5,4,3,2,1","NETTLE WEED,THISTLE WEED,THISTLE WEED,THISTLE WEED,THISTLE WEED,THISTLE WEED,THISTLE WEED,THISTLE WEED","20,20,20,20,20,20,20,20","20,20,20,20,20,20,20,20","10,10,10,10,10,10,10,10","20,20,20,20,20,20,20,20","0,0,0,0,0,0,0,0","20,20,20,20,20,20,20,20","20,20,20,20,20,20,20,20","20,20,20,20,20,20,20,20","10,10,10,10,10,10,10,10","20,20,20,20,20,20,20,20","0,0,0,0,0,0,0,0","20,20,20,20,20,20,20,20","0,0,0,0,1,1,1,1","2260,748,98,134,1001,291,589,615","37.743904801586126,8.894598293407904,2.779045440545378,78.59314570147201,-15.952234962627703,48.00734493594058,-25.778655648831208,27.492057266007365","52.392117152299875,24.174791993346957,42.05360556927876,23.11990800915361,-9.305676833596204,5.293850731345458,21.321877633392745,-29.699209818194056","0","0"
"534","86","text","0","171","1288102","0-0","","","","","","","","","","","","","","","","","","","","","","","","","","","","","","","","","","","","",""
"","","plant-game","0","172","1298338","0-0","","200","120","2","WHEAT CROP","Left","200","180","8","THISTLE WEED","experimental","73","1,2,3,4,5,6,7,8","120,117.64751748714616,140,143.59038802304153,154.28885027266358,177.4343317033447,200.3006648348286,209.63692826569795","2,1,6,5,4,3,2,1","WHEAT CROP,WHEAT CROP,CORN CROP,CORN CROP,CORN CROP,CORN CROP,CORN CROP,CORN CROP","180,206.6495064860476,237.35647687262417,251.72323774421324,267.6177409145388,268.0134384834262,319.01004076737655,335.6128319959532","8,7,6,5,4,3,2,1","THISTLE WEED,THISTLE WEED,THISTLE WEED,THISTLE WEED,THISTLE WEED,THISTLE WEED,THISTLE WEED,THISTLE WEED","20,20,20,20,20,20,20,20","20,20,20,20,20,20,20,20","10,10,10,10,10,10,10,10","20,20,20,20,20,20,20,20","0,0,0,0,0,0,0,0","20,20,20,20,20,20,20,20","20,20,20,20,20,20,20,20","20,20,20,20,20,20,20,20","10,10,10,10,10,10,10,10","20,20,20,20,20,20,20,20","0,0,0,0,0,0,0,0","20,20,20,20,20,20,20,20","0,0,0,0,0,0,0,0","1409,247,697,1065,80,75,1199,636","-2.352482512853843,38.732433990294744,3.590388023041516,10.698462249622052,23.145481430681127,22.86633313148392,9.336263430869336,35.136405888218974","26.649506486047606,30.706970386576543,14.366760871589076,15.894503170325546,0.3956975688874351,50.996602283950345,16.602791228576635,19.898958216909207","0","0"
"598","86","text","0","173","1299066","0-0","","","","","","","","","","","","","","","","","","","","","","","","","","","","","","","","","","","","",""
"","","plant-game","0","174","1307473","0-0","","200","180","4","WHEAT CROP","Right","200","120","4","NETTLE WEED","experimental","74","1,2,3,4","120,157.58256124199738,179.80752916157323,139.60933993028965","4,3,2,1","NETTLE WEED,NETTLE WEED,NETTLE WEED,NETTLE WEED","180,180.30256596508536,200.75813953352596,212.33144882002915","4,3,2,1","WHEAT CROP,WHEAT CROP,WHEAT CROP,WHEAT CROP","0,0,0,0","20,20,20,20","10,10,10,10","20,20,20,20","20,20,20,20","20,20,20,20","0,0,0,0","20,20,20,20","10,10,10,10","20,20,20,20","20,20,20,20","20,20,20,20","1,1,0,1","1940,848,1255,1181","37.58256124199738,22.22496791957584,-40.19818923128358,11.586927283677932","0.3025659650853605,20.455573568440602,11.573309286503182,36.233274816037564","0","0"
"655","86","text","0","175","1308248","0-0","","","","","","","","","","","","","","","","","","","","","","","","","","","","","","","","","","","","",""
"","","plant-game","0","176","1316604","0-0","","200","120","2","CORN CROP","Right","200","120","4","NETTLE WEED","experimental","75","1,2,3,4","120,149.26610949267422,174.86062994051838,189.4120303454293","4,3,2,1","NETTLE WEED,NETTLE WEED,NETTLE WEED,NETTLE WEED","120,130.22128214019668,180,217.09744333849753","2,1,2,1","CORN CROP,CORN CROP,WHEAT CROP,WHEAT CROP","0,0,0,0","20,20,20,20","10,10,10,10","20,20,20,20","20,20,20,20","20,20,20,20","0,0,0,0","20,20,20,20","10,10,10,10","20,20,20,20","20,20,20,20","20,20,20,20","1,1,1,0","1408,322,1422,1171","29.26610949267421,25.59452044784417,14.551400404910897,12.993103910492927","10.22128214019668,13.627983101520286,37.09744333849753,14.004109825102049","0","0"
"599","86","text","0","177","1317313","0-0","","","","","","","","","","","","","","","","","","","","","","","","","","","","","","","","","","","","",""
"","","plant-game","0","178","1323632","0-0","","200","180","4","CORN CROP","Right","200","180","4","NETTLE WEED","experimental","76","1,2,3,4","180,159.15871373152365,189.86054037406927,160.3633932870818","4,3,2,1","NETTLE WEED,NETTLE WEED,NETTLE WEED,NETTLE WEED","180,197.08945169764317,241.2394225251644,248.55826353446946","4,3,2,1","CORN CROP,CORN CROP,CORN CROP,CORN CROP","0,0,0,0","20,20,20,20","10,10,10,10","20,20,20,20","20,20,20,20","20,20,20,20","0,0,0,0","20,20,20,20","10,10,10,10","20,20,20,20","20,20,20,20","20,20,20,20","1,1,0,0","1468,451,926,500","-20.84128626847636,30.701826642545637,-29.497147086987454,6.460843504681941","17.08945169764316,44.149970827521244,7.318841009305074,-17.818391354236734","0","0"
"691","86","text","0","179","1324466","0-0","","","","","","","","","","","","","","","","","","","","","","","","","","","","","","","","","","","","",""
"","","plant-game","0","180","1333165","0-0","","200","190","4","CORN CROP","Right","200","190","1","NETTLE WEED","experimental","77","1,2,3,4","190,170,179.89421196728676,146.77940573377506","1,3,2,1","NETTLE WEED,THISTLE WEED,THISTLE WEED,THISTLE WEED","190,231.10042972016333,256.3141713052727,240.9390006846364","4,3,2,1","CORN CROP,CORN CROP,CORN CROP,CORN CROP","0,0,0,0","20,20,20,20","10,10,10,10","20,20,20,20","20,20,20,20","20,20,20,20","0,0,0,0","20,20,20,20","10,10,10,10","20,20,20,20","20,20,20,20","20,20,20,20","1,1,0,1","1858,1718,672,638","48.03710592795842,9.894211967286777,-33.11480623351171,0.4842288958348391","41.10042972016332,25.213741585109368,-15.37517062063629,50.307621680063264","0","0"
"611","86","text","0","181","1333866","0-0","","","","","","","","","","","","","","","","","","","","","","","","","","","","","","","","","","","","",""
"","","plant-game","0","182","1341442","0-0","","200","180","4","WHEAT CROP","Left","200","120","2","THISTLE WEED","experimental","78","1,2,3,4","180,164.26962844779734,161.7753609217933,162.3209216378124","4,3,2,1","WHEAT CROP,WHEAT CROP,WHEAT CROP,WHEAT CROP","120,148.75299381621815,180,208.80249697346926","2,1,2,1","THISTLE WEED,THISTLE WEED,NETTLE WEED,NETTLE WEED","20,20,20,20","20,20,20,20","10,10,10,10","20,20,20,20","0,0,0,0","20,20,20,20","20,20,20,20","20,20,20,20","10,10,10,10","20,20,20,20","0,0,0,0","20,20,20,20","0,0,0,0","1402,435,647,953","-15.73037155220267,-2.494267526004048,0.5455607160191178,26.71181361450784","28.75299381621816,8.499838972926678,28.802496973469246,-5.496475995911982","0","0"
"542","86","text","0","183","1342114","0-0","","","","","","","","","","","","","","","","","","","","","","","","","","","","","","","","","","","","",""
"","","plant-game","0","184","1350753","0-0","","200","190","1","CORN CROP","Right","200","180","8","THISTLE WEED","experimental","79","1,2,3,4,5,6,7,8","180,200.0336999659683,216.73656126218555,243.02690635748465,278.2224933290876,284.81140881547816,311.89626472115935,345.0080573328247","8,7,6,5,4,3,2,1","THISTLE WEED,THISTLE WEED,THISTLE WEED,THISTLE WEED,THISTLE WEED,THISTLE WEED,THISTLE WEED,THISTLE WEED","190,130,125.0632193303989,145.44240061028125,137.54347453234828,155.04618556533825,184.4655605294109,212.90264719505961","1,7,6,5,4,3,2,1","CORN CROP,WHEAT CROP,WHEAT CROP,WHEAT CROP,WHEAT CROP,WHEAT CROP,WHEAT CROP,WHEAT CROP","0,0,0,0,0,0,0,0","20,20,20,20,20,20,20,20","10,10,10,10,10,10,10,10","20,20,20,20,20,20,20,20","20,20,20,20,20,20,20,20","20,20,20,20,20,20,20,20","0,0,0,0,0,0,0,0","20,20,20,20,20,20,20,20","10,10,10,10,10,10,10,10","20,20,20,20,20,20,20,20","20,20,20,20,20,20,20,20","20,20,20,20,20,20,20,20","1,1,1,1,1,1,1,1","966,1242,162,380,136,424,86,78","20.03369996596831,16.702861296217225,26.2903450952991,35.19558697160299,6.588915486390528,27.0848559056812,33.11179261166534,34.59141316871316","37.9074052859865,-4.936780669601106,20.379181279882363,-7.898926077932977,17.50271103298995,29.41937496407267,28.437086665648692,44.68823492789255","0","0"
"542","86","text","0","185","1351415","0-0","","","","","","","","","","","","","","","","","","","","","","","","","","","","","","","","","","","","",""
"","","plant-game","0","186","1361918","0-0","","200","190","8","WHEAT CROP","Left","200","180","4","THISTLE WEED","experimental","80","1,2,3,4,5,6,7,8","190,230.57136395268157,237.35746556777542,194.43082942400451,222.0043316822733,243.72332488850768,225.30366010413567,249.44043740087932","8,7,6,5,4,3,2,1","WHEAT CROP,WHEAT CROP,WHEAT CROP,WHEAT CROP,WHEAT CROP,WHEAT CROP,WHEAT CROP,WHEAT CROP","180,200.15151380651017,198.46516942745063,181.66175343523827,160,178.94719378495665,170.55795356759162,139.92253424040555","4,3,2,1,4,3,2,1","THISTLE WEED,THISTLE WEED,THISTLE WEED,THISTLE WEED,NETTLE WEED,NETTLE WEED,NETTLE WEED,NETTLE WEED","20,20,20,20,20,20,20,20","20,20,20,20,20,20,20,20","10,10,10,10,10,10,10,10","20,20,20,20,20,20,20,20","0,0,0,0,0,0,0,0","20,20,20,20,20,20,20,20","20,20,20,20,20,20,20,20","20,20,20,20,20,20,20,20","10,10,10,10,10,10,10,10","20,20,20,20,20,20,20,20","0,0,0,0,0,0,0,0","20,20,20,20,20,20,20,20","0,1,1,1,0,1,1,1","1485,550,389,543,1370,832,470,747","40.571363952681565,6.786101615093849,-42.92663614377091,27.57350225826878,21.718993206234376,-18.41966478437201,24.13677729674363,-8.74615059941807","20.15151380651016,-1.6863443790595305,-16.80341599221238,39.314403221437,18.947193784956646,-8.38924021736502,-30.63541932718607,-17.015670185246897","0","0"
"12159","86","text","0","187","1374202","0-0","","","","","","","","","","","","","","","","","","","","","","","","","","","","","","","","","","","","",""
"","","plant-game","0","188","1383896","0-0","","200","120","4","WHEAT CROP","Right","200","120","1","THISTLE WEED","experimental","81","1,2,3,4","120,170,187.385643747973,227.60443155724096","1,3,2,1","THISTLE WEED,NETTLE WEED,NETTLE WEED,NETTLE WEED","120,134.74147994788757,142.07965534632817,151.34765812795428","4,3,2,1","WHEAT CROP,WHEAT CROP,WHEAT CROP,WHEAT CROP","0,0,0,0","20,20,20,20","10,10,10,10","20,20,20,20","20,20,20,20","20,20,20,20","0,0,0,0","20,20,20,20","10,10,10,10","20,20,20,20","20,20,20,20","20,20,20,20","0,1,1,1","2239,2387,366,512","1.7926770235551934,17.385643747972995,40.21878780926794,21.718069313290616","14.741479947887576,7.338175398440594,9.268002781626103,-13.141751333458203","1","0"
"1128","86","text","0","189","1385191","0-0","","","","","","","","","","","","","","","","","","","","","","","","","","","","","","","","","","","","",""
"","","plant-game","0","190","1393790","0-0","","200","160","4","WHEAT CROP","Right","200","160","8","THISTLE WEED","experimental","82","1,2,3,4,5,6,7,8","160,146.299176715825,169.7412400477526,214.46382648004578,210.57226834386677,256.9976216719568,285.8573406200966,298.3227506920607","8,7,6,5,4,3,2,1","THISTLE WEED,THISTLE WEED,THISTLE WEED,THISTLE WEED,THISTLE WEED,THISTLE WEED,THISTLE WEED,THISTLE WEED","160,147.60212952191574,174.4079034437756,228.53604646634648,160,174.30653262940106,194.34608706288876,231.0003964729284","4,3,2,1,4,3,2,1","WHEAT CROP,WHEAT CROP,WHEAT CROP,WHEAT CROP,CORN CROP,CORN CROP,CORN CROP,CORN CROP","0,0,0,0,0,0,0,0","20,20,20,20,20,20,20,20","10,10,10,10,10,10,10,10","20,20,20,20,20,20,20,20","20,20,20,20,20,20,20,20","20,20,20,20,20,20,20,20","0,0,0,0,0,0,0,0","20,20,20,20,20,20,20,20","10,10,10,10,10,10,10,10","20,20,20,20,20,20,20,20","20,20,20,20,20,20,20,20","20,20,20,20,20,20,20,20","1,1,1,0,1,1,1,1","1602,483,208,550,832,116,161,102","-13.700823284174994,23.44206333192759,44.72258643229317,-3.891558136179026,46.42535332809002,28.85971894813981,12.465410071964111,-5.439236755872837","-12.397870478084272,26.805773921859863,54.128143022570875,-19.731813561934665,14.306532629401058,20.039554433487694,36.654309410039644,38.900211386732224","0","0"
"598","86","text","0","191","1394498","0-0","","","","","","","","","","","","","","","","","","","","","","","","","","","","","","","","","","","","",""
"","","plant-game","0","192","1404697","0-0","","200","160","4","WHEAT CROP","Left","200","190","8","NETTLE WEED","experimental","83","1,2,3,4,5,6,7,8","160,147.5369033056133,125.07841928489927,97.66645762208131,160,194.60034376160402,234.0430361963007,241.02941480496148","4,3,2,1,4,3,2,1","WHEAT CROP,WHEAT CROP,WHEAT CROP,WHEAT CROP,CORN CROP,CORN CROP,CORN CROP,CORN CROP","190,167.35160694971847,188.3705147396244,174.98578859300687,203.68304549381727,204.5022417050955,236.42005582467112,266.1028645899201","8,7,6,5,4,3,2,1","NETTLE WEED,NETTLE WEED,NETTLE WEED,NETTLE WEED,NETTLE WEED,NETTLE WEED,NETTLE WEED,NETTLE WEED","20,20,20,20,20,20,20,20","20,20,20,20,20,20,20,20","10,10,10,10,10,10,10,10","20,20,20,20,20,20,20,20","0,0,0,0,0,0,0,0","20,20,20,20,20,20,20,20","20,20,20,20,20,20,20,20","20,20,20,20,20,20,20,20","10,10,10,10,10,10,10,10","20,20,20,20,20,20,20,20","0,0,0,0,0,0,0,0","20,20,20,20,20,20,20,20","1,1,1,1,0,0,0,0","1863,355,529,950,900,267,134,310","-12.463096694386696,-22.458484020714028,-27.411961662817955,-3.5382192538653587,34.600343761604016,39.442692434696696,6.986378608660765,19.285648598536305","-22.648393050281527,21.018907789905924,-13.384726146617528,28.69725690081041,0.8191962112782321,31.917814119575617,29.68280876524897,27.90942909963527","0","0"
"519","86","text","0","193","1405346","0-0","","","","","","","","","","","","","","","","","","","","","","","","","","","","","","","","","","","","",""
