"rt","key_press","trial_type","trial_index","trial_index_global","time_elapsed","internal_chunk_id","responses","experimental_goal_height","experimental_start_height","experimental_weeks_total","experimental_crop_type","experimental_crop_side","fixed_goal_height","fixed_start_height","fixed_weeks_total","fixed_crop_type","trial_kind","trial_number","stage","left_current_height","left_weeks_remaining","left_crop_type","right_current_height","right_weeks_remaining","right_crop_type","mean_left_growth_given_left","sd_left_growth_given_left","mean_left_growth_given_middle","sd_left_growth_given_middle","mean_left_growth_given_right","sd_left_growth_given_right","mean_right_growth_given_left","sd_right_growth_given_left","mean_right_growth_given_middle","sd_right_growth_given_middle","mean_right_growth_given_right","sd_right_growth_given_right","response","response_time","left_growth","right_growth","other_key_pressed","mouse_clicked"
"1812905","87","text","0","0","1813002","0-0","","","","","","","","","","","","","","","","","","","","","","","","","","","","","","","","","","","","",""
"4415","","survey-text","0","1","1818454","0-0","{""Q0"":""18""}","","","","","","","","","","","","","","","","","","","","","","","","","","","","","","","","","","","",""
"3875","86","text","0","2","3953","0-0","","","","","","","","","","","","","","","","","","","","","","","","","","","","","","","","","","","","",""
"","","plant-game","0","3","58632","0-0","","200","120","8","CORN CROP","Right","200","120","8","THISTLE WEED","practice","1","1,2,3,4,5,6,7,8","120,116.1563140556115,138.33528293906605,154.6827407891555,173.8146930332016,212.50256732211943,237.13230318286134,228.53559893663726","8,7,6,5,4,3,2,1","THISTLE WEED,THISTLE WEED,THISTLE WEED,THISTLE WEED,THISTLE WEED,THISTLE WEED,THISTLE WEED,THISTLE WEED","120,154.63501956040295,151.59982057773735,140.69612486136413,144.52931028885808,176.99761944594536,191.6859161330545,225.06038611590742","8,7,6,5,4,3,2,1","CORN CROP,CORN CROP,CORN CROP,CORN CROP,CORN CROP,CORN CROP,CORN CROP,CORN CROP","0,0,0,0,0,0,0,0","20,20,20,20,20,20,20,20","10,10,10,10,10,10,10,10","20,20,20,20,20,20,20,20","20,20,20,20,20,20,20,20","20,20,20,20,20,20,20,20","0,0,0,0,0,0,0,0","20,20,20,20,20,20,20,20","10,10,10,10,10,10,10,10","20,20,20,20,20,20,20,20","20,20,20,20,20,20,20,20","20,20,20,20,20,20,20,20","0,0,0,1,1,1,1,1","14418,2214,2741,6209,2172,3151,865,2493","-3.8436859443884908,22.178968883454544,16.347457850089462,19.13195224404608,38.687874288917826,24.62973586074191,-8.596704246224078,59.42889983773527","34.63501956040295,-3.0351989826656,-10.903695716373207,3.8331854274939623,32.468309157087276,14.688296687109125,33.37446998285293,42.041699548739196","0","0"
"1139","86","text","0","4","59851","0-0","","","","","","","","","","","","","","","","","","","","","","","","","","","","","","","","","","","","",""
"","","plant-game","0","5","90571","0-0","","200","160","4","CORN CROP","Left","200","160","4","NETTLE WEED","practice","2","1,2,3,4","160,179.08900596745198,189.6276690785182,196.70484385138343","4,3,2,1","CORN CROP,CORN CROP,CORN CROP,CORN CROP","160,170.93783033943106,129.7221366909643,157.97787487085992","4,3,2,1","NETTLE WEED,NETTLE WEED,NETTLE WEED,NETTLE WEED","20,20,20,20","20,20,20,20","10,10,10,10","20,20,20,20","0,0,0,0","20,20,20,20","20,20,20,20","20,20,20,20","10,10,10,10","20,20,20,20","0,0,0,0","20,20,20,20","0,1,0,1","4772,4078,1926,1366","19.089005967451982,10.538663111066235,7.077174772865224,27.859217687457306","10.937830339431063,-41.215693648466754,28.2557381798956,18.275995794772136","0","0"
"952","86","text","0","6","91634","0-0","","","","","","","","","","","","","","","","","","","","","","","","","","","","","","","","","","","","",""
"","","plant-game","0","7","118448","0-0","","200","180","2","WHEAT CROP","Right","200","180","2","NETTLE WEED","practice","3","1,2","180,169.09685595717053","2,1","NETTLE WEED,NETTLE WEED","180,163.41748835267825","2,1","WHEAT CROP,WHEAT CROP","0,0","20,20","10,10","20,20","20,20","20,20","0,0","20,20","10,10","20,20","20,20","20,20","0,1","7456,4253","-10.903144042829464,16.383255371625978","-16.582511647321756,-18.70594339712534","0","0"
"755","86","text","0","8","119281","0-0","","","","","","","","","","","","","","","","","","","","","","","","","","","","","","","","","","","","",""
"","","plant-game","0","9","132286","0-0","","200","190","1","CORN CROP","Right","200","190","1","THISTLE WEED","practice","4","1","190","1","THISTLE WEED","190","1","CORN CROP","0","20","10","20","20","20","0","20","10","20","20","20","1","3248","34.49154879556654","6.2425908537578","0","0"
"590","86","text","0","10","132956","0-0","","","","","","","","","","","","","","","","","","","","","","","","","","","","","","","","","","","","",""
"","","plant-game","0","11","162550","0-0","","200","120","8","WHEAT CROP","Left","200","160","8","NETTLE WEED","practice","5","1,2,3,4,5,6,7,8","120,150.3111313770077,177.1170164060965,192.77289159484553,167.1744583863074,159.76786385590708,177.26534760026388,177.08669212961067","8,7,6,5,4,3,2,1","WHEAT CROP,WHEAT CROP,WHEAT CROP,WHEAT CROP,WHEAT CROP,WHEAT CROP,WHEAT CROP,WHEAT CROP","160,176.52127668108233,125.4658357171094,92.13200162999904,97.70613019334414,73.96223524613075,39.374357840807725,45.827920238122225","8,7,6,5,4,3,2,1","NETTLE WEED,NETTLE WEED,NETTLE WEED,NETTLE WEED,NETTLE WEED,NETTLE WEED,NETTLE WEED,NETTLE WEED","20,20,20,20,20,20,20,20","20,20,20,20,20,20,20,20","10,10,10,10,10,10,10,10","20,20,20,20,20,20,20,20","0,0,0,0,0,0,0,0","20,20,20,20,20,20,20,20","20,20,20,20,20,20,20,20","20,20,20,20,20,20,20,20","10,10,10,10,10,10,10,10","20,20,20,20,20,20,20,20","0,0,0,0,0,0,0,0","20,20,20,20,20,20,20,20","0,1,0,0,1,1,1,0","2149,1155,1521,1056,818,1656,2270,2418","30.311131377007698,26.805885029088778,15.655875188749036,-25.59843320853812,-7.406594530400313,17.497483744356806,-0.1786554706532033,8.719632912168038","16.521276681082334,-51.05544096397293,-33.33383408711036,5.574128563345093,-23.743894947213388,-34.58787740532302,6.453562397314501,-15.49252278067663","0","0"
"678","86","text","0","12","163306","0-0","","","","","","","","","","","","","","","","","","","","","","","","","","","","","","","","","","","","",""
"","","plant-game","0","13","176048","0-0","","200","180","4","CORN CROP","Left","200","160","4","THISTLE WEED","practice","6","1,2,3,4","180,200.37162472727437,185.56425896321494,184.62003217680345","4,3,2,1","CORN CROP,CORN CROP,CORN CROP,CORN CROP","160,164.49211331767356,136.271379840765,155.60010610377958","4,3,2,1","THISTLE WEED,THISTLE WEED,THISTLE WEED,THISTLE WEED","20,20,20,20","20,20,20,20","10,10,10,10","20,20,20,20","0,0,0,0","20,20,20,20","20,20,20,20","20,20,20,20","10,10,10,10","20,20,20,20","0,0,0,0","20,20,20,20","0,1,0,1","1396,1435,1112,694","20.37162472727435,-14.807365764059421,-0.9442267864114875,1.5445134778771514","4.492113317673558,-28.220733476908563,19.328726263014563,4.916109104344825","0","0"
"707","86","text","0","14","176825","0-0","","","","","","","","","","","","","","","","","","","","","","","","","","","","","","","","","","","","",""
"","","plant-game","0","15","191985","0-0","","200","180","2","CORN CROP","Left","200","190","2","THISTLE WEED","practice","7","1,2","180,214.4832252764897","2,1","CORN CROP,CORN CROP","190,183.59120946594868","2,1","THISTLE WEED,THISTLE WEED","20,20","20,20","10,10","20,20","0,0","20,20","20,20","20,20","10,10","20,20","0,0","20,20","0,0","861,4218","34.48322527648969,-28.685214733751664","-6.408790534051327,64.05096989770193","0","0"
"620","86","text","0","16","192675","0-0","","","","","","","","","","","","","","","","","","","","","","","","","","","","","","","","","","","","",""
"","","plant-game","0","17","219049","0-0","","200","120","4","WHEAT CROP","Right","200","120","8","THISTLE WEED","practice","8","1,2,3,4,5,6,7,8","120,114.33590234265054,116.7721784179728,132.28222132514574,177.1516442398812,185.70859064041582,185.386579093176,186.13929880395122","8,7,6,5,4,3,2,1","THISTLE WEED,THISTLE WEED,THISTLE WEED,THISTLE WEED,THISTLE WEED,THISTLE WEED,THISTLE WEED,THISTLE WEED","120,140.80059428350276,171.03427193625419,169.4756072115335,160,148.6186640505437,138.1434522108567,156.7370446909833","4,3,2,1,4,3,2,1","WHEAT CROP,WHEAT CROP,WHEAT CROP,WHEAT CROP,CORN CROP,CORN CROP,CORN CROP,CORN CROP","0,0,0,0,0,0,0,0","20,20,20,20,20,20,20,20","10,10,10,10,10,10,10,10","20,20,20,20,20,20,20,20","20,20,20,20,20,20,20,20","20,20,20,20,20,20,20,20","0,0,0,0,0,0,0,0","20,20,20,20,20,20,20,20","10,10,10,10,10,10,10,10","20,20,20,20,20,20,20,20","20,20,20,20,20,20,20,20","20,20,20,20,20,20,20,20","1,0,1,1,0,1,0,0","1797,1202,987,1127,2606,553,795,1784","-5.664097657349451,2.43627607532226,15.510042907172943,44.86942291473545,8.55694640053462,-0.3220115472398106,0.7527197107752195,-4.2141583711684705","20.800594283502768,30.233677652751425,-1.5586647247207068,24.251236334535108,-11.38133594945629,-10.47521183968701,18.59359248012661,-7.045259594472398","0","0"
"558","86","text","0","18","219685","0-0","","","","","","","","","","","","","","","","","","","","","","","","","","","","","","","","","","","","",""
"","","plant-game","0","19","238608","0-0","","200","160","4","CORN CROP","Left","200","160","2","THISTLE WEED","practice","9","1,2,3,4","160,159.82650764891832,173.13135843360476,227.27559382589072","4,3,2,1","CORN CROP,CORN CROP,CORN CROP,CORN CROP","160,181.56975307117366,180,185.41734264488676","2,1,2,1","THISTLE WEED,THISTLE WEED,NETTLE WEED,NETTLE WEED","20,20,20,20","20,20,20,20","10,10,10,10","20,20,20,20","0,0,0,0","20,20,20,20","20,20,20,20","20,20,20,20","10,10,10,10","20,20,20,20","0,0,0,0","20,20,20,20","1,0,0,1","338,984,1456,2807","-0.1734923510816713,13.304850784686439,54.144235392285964,3.4533176141790864","21.569753071173675,11.800165437564257,5.417342644886771,1.1916268135082788","0","0"
"591","86","text","0","20","239269","0-0","","","","","","","","","","","","","","","","","","","","","","","","","","","","","","","","","","","","",""
"","","plant-game","0","21","252806","0-0","","200","180","2","WHEAT CROP","Right","200","180","1","THISTLE WEED","practice","10","1,2","180,190","1,1","THISTLE WEED,NETTLE WEED","180,178.79520383685343","2,1","WHEAT CROP,WHEAT CROP","0,0","20,20","10,10","20,20","20,20","20,20","0,0","20,20","10,10","20,20","20,20","20,20","1,0","1119,2605","-2.508177509998223,-17.696716169276478","-1.2047961631465753,-21.76307892321127","0","0"
"609","86","text","0","22","253509","0-0","","","","","","","","","","","","","","","","","","","","","","","","","","","","","","","","","","","","",""
"","","plant-game","0","23","273514","0-0","","200","120","8","WHEAT CROP","Right","200","160","4","NETTLE WEED","practice","11","1,2,3,4,5,6,7,8","160,147.00815959239665,149.9327759642543,156.77870897398822,160,181.3367699678788,162.2079405442181,212.9031097454216","4,3,2,1,4,3,2,1","NETTLE WEED,NETTLE WEED,NETTLE WEED,NETTLE WEED,THISTLE WEED,THISTLE WEED,THISTLE WEED,THISTLE WEED","120,163.61250878670415,184.20259098267272,231.9982824502486,168.86175845832935,158.22122300511967,131.73936538620623,148.89818025126428","8,7,6,5,4,3,2,1","WHEAT CROP,WHEAT CROP,WHEAT CROP,WHEAT CROP,WHEAT CROP,WHEAT CROP,WHEAT CROP,WHEAT CROP","0,0,0,0,0,0,0,0","20,20,20,20,20,20,20,20","10,10,10,10,10,10,10,10","20,20,20,20,20,20,20,20","20,20,20,20,20,20,20,20","20,20,20,20,20,20,20,20","0,0,0,0,0,0,0,0","20,20,20,20,20,20,20,20","10,10,10,10,10,10,10,10","20,20,20,20,20,20,20,20","20,20,20,20,20,20,20,20","20,20,20,20,20,20,20,20","1,0,1,0,1,0,1,0","378,1013,754,1704,787,961,1130,1943","-12.991840407603348,2.9246163718576246,6.845933009733914,-1.177491492077546,21.336769967878794,-19.128829423660694,50.6951692012035,4.824364039217367","43.612508786704154,20.59008219596857,47.79569146757591,-63.13652399191927,-10.640535453209687,-26.48185761891344,17.158814865058055,-13.128910276270032","0","0"
"674","86","text","0","24","274318","0-0","","","","","","","","","","","","","","","","","","","","","","","","","","","","","","","","","","","","",""
"","","plant-game","0","25","290385","0-0","","200","180","2","CORN CROP","Left","200","160","4","THISTLE WEED","practice","12","1,2,3,4","180,216.92606573191847,180,183.38697137315341","2,1,2,1","CORN CROP,CORN CROP,WHEAT CROP,WHEAT CROP","160,176.05993156581934,198.3415970941581,174.63206514424314","4,3,2,1","THISTLE WEED,THISTLE WEED,THISTLE WEED,THISTLE WEED","20,20,20,20","20,20,20,20","10,10,10,10","20,20,20,20","0,0,0,0","20,20,20,20","20,20,20,20","20,20,20,20","10,10,10,10","20,20,20,20","0,0,0,0","20,20,20,20","1,0,1,0","1071,2390,2333,1310","36.92606573191847,37.60235694950215,3.386971373153413,14.22579573542395","16.059931565819344,22.28166552833875,-23.70953194991496,8.193582883806327","0","0"
"520","86","text","0","26","290985","0-0","","","","","","","","","","","","","","","","","","","","","","","","","","","","","","","","","","","","",""
"8510","86","text","0","27","300579","0-0","","","","","","","","","","","","","","","","","","","","","","","","","","","","","","","","","","","","",""
"","","plant-game","0","28","334753","0-0","","200","160","2","WHEAT CROP","Right","200","190","8","THISTLE WEED","experimental","1","1,2,3,4,5,6,7,8","190,181.91899287467967,163.66155870174717,162.06121699401908,175.55427757309178,174.63863566161643,184.25512989644292,198.2116279399396","8,7,6,5,4,3,2,1","THISTLE WEED,THISTLE WEED,THISTLE WEED,THISTLE WEED,THISTLE WEED,THISTLE WEED,THISTLE WEED,THISTLE WEED","160,163.6361893767439,140,172.2693290725139,189.99322469696108,203.31372857277063,243.29105125470662,272.7847544252895","2,1,6,5,4,3,2,1","WHEAT CROP,WHEAT CROP,CORN CROP,CORN CROP,CORN CROP,CORN CROP,CORN CROP,CORN CROP","0,0,0,0,0,0,0,0","20,20,20,20,20,20,20,20","10,10,10,10,10,10,10,10","20,20,20,20,20,20,20,20","20,20,20,20,20,20,20,20","20,20,20,20,20,20,20,20","0,0,0,0,0,0,0,0","20,20,20,20,20,20,20,20","10,10,10,10,10,10,10,10","20,20,20,20,20,20,20,20","20,20,20,20,20,20,20,20","20,20,20,20,20,20,20,20","0,1,1,1,0,1,0,0","12173,2698,2558,1846,986,3145,1323,2960","-8.081007125320323,-18.257434172932506,-1.600341707728088,13.493060579072711,-0.9156419114753529,9.616494234826497,13.95649804349667,-8.61654243085012","3.6361893767439235,3.47208966880088,32.2693290725139,17.72389562444717,13.32050387580955,39.97732268193598,29.49370317058291,-21.32911761291911","0","0"
"453","86","text","0","29","335276","0-0","","","","","","","","","","","","","","","","","","","","","","","","","","","","","","","","","","","","",""
"","","plant-game","0","30","354262","0-0","","200","190","8","CORN CROP","Left","200","180","8","NETTLE WEED","experimental","2","1,2,3,4,5,6,7,8","190,173.8205282477793,177.31379454743924,204.20856937591444,233.39457068774436,236.10537068982993,264.59425837991716,247.03627206045445","8,7,6,5,4,3,2,1","CORN CROP,CORN CROP,CORN CROP,CORN CROP,CORN CROP,CORN CROP,CORN CROP,CORN CROP","180,201.02304909158616,220.83612641490703,217.88910564531912,202.471250631401,237.85458241555966,252.2096074400158,210.96010948771314","8,7,6,5,4,3,2,1","NETTLE WEED,NETTLE WEED,NETTLE WEED,NETTLE WEED,NETTLE WEED,NETTLE WEED,NETTLE WEED,NETTLE WEED","20,20,20,20,20,20,20,20","20,20,20,20,20,20,20,20","10,10,10,10,10,10,10,10","20,20,20,20,20,20,20,20","0,0,0,0,0,0,0,0","20,20,20,20,20,20,20,20","20,20,20,20,20,20,20,20","20,20,20,20,20,20,20,20","10,10,10,10,10,10,10,10","20,20,20,20,20,20,20,20","0,0,0,0,0,0,0,0","20,20,20,20,20,20,20,20","0,1,1,1,1,0,1,1","4063,2474,2277,1150,1300,1032,647,1558","-16.1794717522207,3.493266299659958,26.894774828475203,29.18600131182992,2.710800002085561,28.488887690087267,-17.557986319462717,-29.487093183704527","21.023049091586156,19.81307732332088,-2.947020769587904,-15.417855013918114,35.38333178415866,14.355025024456127,-41.24949795230265,-30.08687639155745","0","0"
"524","86","text","0","31","354896","0-0","","","","","","","","","","","","","","","","","","","","","","","","","","","","","","","","","","","","",""
"","","plant-game","0","32","373787","0-0","","200","180","8","CORN CROP","Left","200","180","1","THISTLE WEED","experimental","3","1,2,3,4,5,6,7,8","180,219.16845773638252,228.81112470511133,281.6974600602523,283.09468781669574,303.9017315869655,305.4091836189783,336.1542431736998","8,7,6,5,4,3,2,1","CORN CROP,CORN CROP,CORN CROP,CORN CROP,CORN CROP,CORN CROP,CORN CROP,CORN CROP","180,130,139.8479738454865,146.8619973619556,149.3076025638913,187.5555870456355,224.6901970407581,214.7505502806378","1,7,6,5,4,3,2,1","THISTLE WEED,NETTLE WEED,NETTLE WEED,NETTLE WEED,NETTLE WEED,NETTLE WEED,NETTLE WEED,NETTLE WEED","20,20,20,20,20,20,20,20","20,20,20,20,20,20,20,20","10,10,10,10,10,10,10,10","20,20,20,20,20,20,20,20","0,0,0,0,0,0,0,0","20,20,20,20,20,20,20,20","20,20,20,20,20,20,20,20","20,20,20,20,20,20,20,20","10,10,10,10,10,10,10,10","20,20,20,20,20,20,20,20","0,0,0,0,0,0,0,0","20,20,20,20,20,20,20,20","0,1,0,1,0,1,0,1","3139,2715,1019,1081,537,1049,1133,1405","39.16845773638252,9.642666968728795,52.88633535514099,1.397227756443418,20.8070437702698,1.507452032012804,30.7450595547215,17.864155444899556","17.793589283082984,9.847973845486518,7.014023516469074,2.445605201935715,38.24798448174421,37.13460999512262,-9.939646760120311,-22.134511751355262","0","0"
"480","86","text","0","33","374347","0-0","","","","","","","","","","","","","","","","","","","","","","","","","","","","","","","","","","","","",""
"","","plant-game","0","34","383455","0-0","","200","120","1","WHEAT CROP","Right","200","120","2","NETTLE WEED","experimental","4","1,2","120,144.2644281311359","2,1","NETTLE WEED,NETTLE WEED","120,190","1,1","WHEAT CROP,CORN CROP","0,0","20,20","10,10","20,20","20,20","20,20","0,0","20,20","10,10","20,20","20,20","20,20","1,1","2952,1273","24.264428131135897,34.00034662358742","18.5875169547475,17.598548845616733","0","0"
"456","86","text","0","35","383991","0-0","","","","","","","","","","","","","","","","","","","","","","","","","","","","","","","","","","","","",""
"","","plant-game","0","36","401907","0-0","","200","180","2","WHEAT CROP","Right","200","180","8","THISTLE WEED","experimental","5","1,2,3,4,5,6,7,8","180,177.67795264013688,215.1932072339402,228.9863875565145,258.7769259549382,252.54050655834698,230.13853358613036,258.4751147697393","8,7,6,5,4,3,2,1","THISTLE WEED,THISTLE WEED,THISTLE WEED,THISTLE WEED,THISTLE WEED,THISTLE WEED,THISTLE WEED,THISTLE WEED","180,157.94707736873042,140,117.95693934829485,127.1764381816812,130.09512726397054,150.12244431793664,167.55035163713887","2,1,6,5,4,3,2,1","WHEAT CROP,WHEAT CROP,CORN CROP,CORN CROP,CORN CROP,CORN CROP,CORN CROP,CORN CROP","0,0,0,0,0,0,0,0","20,20,20,20,20,20,20,20","10,10,10,10,10,10,10,10","20,20,20,20,20,20,20,20","20,20,20,20,20,20,20,20","20,20,20,20,20,20,20,20","0,0,0,0,0,0,0,0","20,20,20,20,20,20,20,20","10,10,10,10,10,10,10,10","20,20,20,20,20,20,20,20","20,20,20,20,20,20,20,20","20,20,20,20,20,20,20,20","0,1,0,1,0,0,0,0","2770,1971,1137,1472,1767,982,1066,746","-2.3220473598631317,37.51525459380332,13.79318032257431,29.79053839842365,-6.236419396591212,-22.40197297221661,28.336581183608928,-12.16085409574765","-22.05292263126959,22.527658482639485,-22.043060651705147,9.219498833386348,2.9186890822893297,20.027317053966094,17.42790731920223,9.147591833321728","0","0"
"464","86","text","0","37","402461","0-0","","","","","","","","","","","","","","","","","","","","","","","","","","","","","","","","","","","","",""
"","","plant-game","0","38","420759","0-0","","200","160","8","WHEAT CROP","Left","200","120","4","THISTLE WEED","experimental","6","1,2,3,4,5,6,7,8","160,181.78918201715229,179.63288351898856,209.94928096693224,221.36991311047336,260.107219838724,264.6098087486596,276.6321956346568","8,7,6,5,4,3,2,1","WHEAT CROP,WHEAT CROP,WHEAT CROP,WHEAT CROP,WHEAT CROP,WHEAT CROP,WHEAT CROP,WHEAT CROP","120,142.9207851468724,171.2191086086771,189.7673185588429,160,180.14202302561145,184.38257738830427,228.4328108674457","4,3,2,1,4,3,2,1","THISTLE WEED,THISTLE WEED,THISTLE WEED,THISTLE WEED,NETTLE WEED,NETTLE WEED,NETTLE WEED,NETTLE WEED","20,20,20,20,20,20,20,20","20,20,20,20,20,20,20,20","10,10,10,10,10,10,10,10","20,20,20,20,20,20,20,20","0,0,0,0,0,0,0,0","20,20,20,20,20,20,20,20","20,20,20,20,20,20,20,20","20,20,20,20,20,20,20,20","10,10,10,10,10,10,10,10","20,20,20,20,20,20,20,20","0,0,0,0,0,0,0,0","20,20,20,20,20,20,20,20","0,1,0,1,0,1,0,1","4742,767,684,1402,1866,1327,604,813","21.789182017152296,-2.1562984981637108,30.316397447943668,11.420632143541116,38.737306728250644,4.502588909935596,12.022386885997209,-13.56749839246591","22.92078514687239,28.29832346180471,18.548209950165816,-21.256750136643397,20.14202302561144,4.240554362692823,44.05023347914144,7.990238340846895","0","0"
"461","86","text","0","39","421310","0-0","","","","","","","","","","","","","","","","","","","","","","","","","","","","","","","","","","","","",""
"","","plant-game","0","40","433180","0-0","","200","120","4","WHEAT CROP","Left","200","160","1","THISTLE WEED","experimental","7","1,2,3,4","120,118.86131814969237,101.99897024059831,115.530217481961","4,3,2,1","WHEAT CROP,WHEAT CROP,WHEAT CROP,WHEAT CROP","160,170,140.8363791992168,157.17168753218937","1,3,2,1","THISTLE WEED,NETTLE WEED,NETTLE WEED,NETTLE WEED","20,20,20,20","20,20,20,20","10,10,10,10","20,20,20,20","0,0,0,0","20,20,20,20","20,20,20,20","20,20,20,20","10,10,10,10","20,20,20,20","0,0,0,0","20,20,20,20","0,1,0,0","2729,1524,1696,1065","-1.1386818503076377,-16.862347909094062,13.531247241362697,-2.7508969240347803","47.22297122123137,-29.163620800783203,16.335308332972563,28.472190441062626","0","0"
"357","86","text","0","41","433607","0-0","","","","","","","","","","","","","","","","","","","","","","","","","","","","","","","","","","","","",""
"","","plant-game","0","42","447102","0-0","","200","190","8","CORN CROP","Left","200","160","8","THISTLE WEED","experimental","8","1,2,3,4,5,6,7,8","190,167.27336623197954,217.9072414505507,194.0158566883175,206.1978572285251,202.63770006357817,230.49100362396362,261.7762809495905","8,7,6,5,4,3,2,1","CORN CROP,CORN CROP,CORN CROP,CORN CROP,CORN CROP,CORN CROP,CORN CROP,CORN CROP","160,156.30339296282003,155.142947972711,159.96535538895193,178.84753895906027,203.53280651619949,217.21073243352035,212.46062483255528","8,7,6,5,4,3,2,1","THISTLE WEED,THISTLE WEED,THISTLE WEED,THISTLE WEED,THISTLE WEED,THISTLE WEED,THISTLE WEED,THISTLE WEED","20,20,20,20,20,20,20,20","20,20,20,20,20,20,20,20","10,10,10,10,10,10,10,10","20,20,20,20,20,20,20,20","0,0,0,0,0,0,0,0","20,20,20,20,20,20,20,20","20,20,20,20,20,20,20,20","20,20,20,20,20,20,20,20","10,10,10,10,10,10,10,10","20,20,20,20,20,20,20,20","0,0,0,0,0,0,0,0","20,20,20,20,20,20,20,20","1,0,1,0,1,0,0,0","2106,1052,1027,732,803,822,713,1474","-22.726633768020463,50.63387521857118,-23.89138476223321,12.18200054020759,-3.5601571649469337,27.853303560385463,31.285277325626872,15.09029886985727","-3.6966070371799633,-1.160444990109042,4.822407416240944,18.88218357010834,24.68526755713922,13.677925917320856,-4.750107600965073,22.32513091959156","0","0"
"793","86","text","0","43","448025","0-0","","","","","","","","","","","","","","","","","","","","","","","","","","","","","","","","","","","","",""
"","","plant-game","0","44","467106","0-0","","200","120","8","WHEAT CROP","Right","200","160","1","THISTLE WEED","experimental","9","1,2,3,4,5,6,7,8","160,130,173.21362236057865,185.07804713296784,229.5792680607126,245.70098536619432,263.101007766699,268.2433406896965","1,7,6,5,4,3,2,1","THISTLE WEED,NETTLE WEED,NETTLE WEED,NETTLE WEED,NETTLE WEED,NETTLE WEED,NETTLE WEED,NETTLE WEED","120,97.27785404552549,139.21042913049683,105.05100187794733,147.32937991832392,165.2476700661755,187.2713804544824,220.63160174507604","8,7,6,5,4,3,2,1","WHEAT CROP,WHEAT CROP,WHEAT CROP,WHEAT CROP,WHEAT CROP,WHEAT CROP,WHEAT CROP,WHEAT CROP","0,0,0,0,0,0,0,0","20,20,20,20,20,20,20,20","10,10,10,10,10,10,10,10","20,20,20,20,20,20,20,20","20,20,20,20,20,20,20,20","20,20,20,20,20,20,20,20","0,0,0,0,0,0,0,0","20,20,20,20,20,20,20,20","10,10,10,10,10,10,10,10","20,20,20,20,20,20,20,20","20,20,20,20,20,20,20,20","20,20,20,20,20,20,20,20","0,1,0,1,1,1,1,1","7085,1648,892,692,702,776,832,774","-45.694039844571115,43.21362236057864,11.864424772389174,44.50122092774474,16.121717305481727,17.400022400504675,5.142332922997483,13.181228618373236","-22.722145954474513,41.93257508497136,-34.1594272525495,42.27837804037661,17.918290147851554,22.023710388306917,33.36022129059365,10.280626482869138","0","0"
"480","86","text","0","45","467666","0-0","","","","","","","","","","","","","","","","","","","","","","","","","","","","","","","","","","","","",""
"","","plant-game","0","46","480163","0-0","","200","120","8","WHEAT CROP","Right","200","180","2","NETTLE WEED","experimental","10","1,2,3,4,5,6,7,8","180,201.11154791331103,140,157.61314857643276,137.15656390860948,159.22050433756337,207.27306766113512,207.02189747352713","2,1,6,5,4,3,2,1","NETTLE WEED,NETTLE WEED,THISTLE WEED,THISTLE WEED,THISTLE WEED,THISTLE WEED,THISTLE WEED,THISTLE WEED","120,137.76631245117989,147.89546831911804,160.85125499014634,142.2023245404634,176.09039451639805,167.77293035344937,195.4345285879661","8,7,6,5,4,3,2,1","WHEAT CROP,WHEAT CROP,WHEAT CROP,WHEAT CROP,WHEAT CROP,WHEAT CROP,WHEAT CROP,WHEAT CROP","0,0,0,0,0,0,0,0","20,20,20,20,20,20,20,20","10,10,10,10,10,10,10,10","20,20,20,20,20,20,20,20","20,20,20,20,20,20,20,20","20,20,20,20,20,20,20,20","0,0,0,0,0,0,0,0","20,20,20,20,20,20,20,20","10,10,10,10,10,10,10,10","20,20,20,20,20,20,20,20","20,20,20,20,20,20,20,20","20,20,20,20,20,20,20,20","0,1,1,0,1,1,0,1","1723,701,672,670,539,945,764,841","21.111547913311025,1.4450777113497324,17.61314857643275,-20.456584667823293,22.06394042895389,48.052563323571746,-0.2511701876079927,-6.95488478058731","17.766312451179882,10.129155867938145,12.955786671028317,-18.648930449682936,33.888069975934656,-8.317464162948692,27.66159823451673,-5.59745461508647","0","0"
"757","86","text","0","47","481020","0-0","","","","","","","","","","","","","","","","","","","","","","","","","","","","","","","","","","","","",""
"","","plant-game","0","48","491613","0-0","","200","190","4","CORN CROP","Left","200","160","1","NETTLE WEED","experimental","11","1,2,3,4","190,141.31213390865753,117.90864041469706,143.77342216270262","4,3,2,1","CORN CROP,CORN CROP,CORN CROP,CORN CROP","160,170,175.47794111161184,206.20330190631788","1,3,2,1","NETTLE WEED,THISTLE WEED,THISTLE WEED,THISTLE WEED","20,20,20,20","20,20,20,20","10,10,10,10","20,20,20,20","0,0,0,0","20,20,20,20","20,20,20,20","20,20,20,20","10,10,10,10","20,20,20,20","0,0,0,0","20,20,20,20","1,1,0,1","1341,1690,521,651","-48.687866091342464,-23.40349349396046,25.864781748005566,-34.47127181458321","-22.368221466002566,5.477941111611853,30.725360794706045,-10.061447323310544","0","0"
"808","86","text","0","49","492494","0-0","","","","","","","","","","","","","","","","","","","","","","","","","","","","","","","","","","","","",""
"","","plant-game","0","50","504157","0-0","","200","160","4","WHEAT CROP","Left","200","160","8","NETTLE WEED","experimental","12","1,2,3,4,5,6,7,8","160,186.1679391040385,168.23354048871713,201.0725085298491,160,155.80629884007584,180.2569449323409,234.4843526092622","4,3,2,1,4,3,2,1","WHEAT CROP,WHEAT CROP,WHEAT CROP,WHEAT CROP,CORN CROP,CORN CROP,CORN CROP,CORN CROP","160,147.14984274809143,144.34489104472107,138.0511124120625,125.24058941616244,105.5109088950101,119.68775447356714,133.3742537559423","8,7,6,5,4,3,2,1","NETTLE WEED,NETTLE WEED,NETTLE WEED,NETTLE WEED,NETTLE WEED,NETTLE WEED,NETTLE WEED,NETTLE WEED","20,20,20,20,20,20,20,20","20,20,20,20,20,20,20,20","10,10,10,10,10,10,10,10","20,20,20,20,20,20,20,20","0,0,0,0,0,0,0,0","20,20,20,20,20,20,20,20","20,20,20,20,20,20,20,20","20,20,20,20,20,20,20,20","10,10,10,10,10,10,10,10","20,20,20,20,20,20,20,20","0,0,0,0,0,0,0,0","20,20,20,20,20,20,20,20","0,1,0,0,1,0,0,0","1312,759,543,665,1071,951,741,867","26.1679391040385,-17.934398615321385,32.83896804113198,-16.77974665475032,-4.1937011599241645,24.45064609226506,54.2274076769213,20.386533201108577","-12.850157251908577,-2.804951703370371,-6.293778632658547,-12.810522995900065,-19.729680521152336,14.176845578557037,13.68649928237516,21.938887002113578","0","0"
"551","86","text","0","51","504790","0-0","","","","","","","","","","","","","","","","","","","","","","","","","","","","","","","","","","","","",""
"","","plant-game","0","52","520941","0-0","","200","180","8","CORN CROP","Left","200","160","4","THISTLE WEED","experimental","13","1,2,3,4,5,6,7,8","180,152.8491204061327,168.61150407046907,177.26642922665872,218.26489476923746,197.40387515043133,232.70024126299,282.26096312267686","8,7,6,5,4,3,2,1","CORN CROP,CORN CROP,CORN CROP,CORN CROP,CORN CROP,CORN CROP,CORN CROP,CORN CROP","160,177.75270850238027,175.93488199392712,184.02413123600962,160,184.3822339931155,195.89572395704022,240.25231295953992","4,3,2,1,4,3,2,1","THISTLE WEED,THISTLE WEED,THISTLE WEED,THISTLE WEED,NETTLE WEED,NETTLE WEED,NETTLE WEED,NETTLE WEED","20,20,20,20,20,20,20,20","20,20,20,20,20,20,20,20","10,10,10,10,10,10,10,10","20,20,20,20,20,20,20,20","0,0,0,0,0,0,0,0","20,20,20,20,20,20,20,20","20,20,20,20,20,20,20,20","20,20,20,20,20,20,20,20","10,10,10,10,10,10,10,10","20,20,20,20,20,20,20,20","0,0,0,0,0,0,0,0","20,20,20,20,20,20,20,20","1,0,1,0,1,0,1,0","1168,1823,2739,596,1101,679,1183,786","-27.150879593867305,15.762383664336369,8.654925156189636,40.99846554257876,-20.86101961880612,35.296366112558665,49.56072185968683,24.292104988507724","17.752708502380266,-1.8178265084531517,8.089249242082506,-10.943494427565547,24.382233993115513,11.513489963924714,44.356589002499696,41.60553096433387","0","0"
"574","86","text","0","53","521582","0-0","","","","","","","","","","","","","","","","","","","","","","","","","","","","","","","","","","","","",""
"","","plant-game","0","54","531078","0-0","","200","180","4","WHEAT CROP","Right","200","160","2","NETTLE WEED","experimental","14","1,2,3,4","160,187.5804683924684,180,192.00560218864376","2,1,2,1","NETTLE WEED,NETTLE WEED,THISTLE WEED,THISTLE WEED","180,179.08687438498222,170.58754528745186,134.90122072699774","4,3,2,1","WHEAT CROP,WHEAT CROP,WHEAT CROP,WHEAT CROP","0,0,0,0","20,20,20,20","10,10,10,10","20,20,20,20","20,20,20,20","20,20,20,20","0,0,0,0","20,20,20,20","10,10,10,10","20,20,20,20","20,20,20,20","20,20,20,20","1,0,0,1","761,2231,1522,563","27.58046839246839,-16.47087777921345,12.005602188643751,22.14033936075017","-0.9131256150177833,-8.499329097530367,-35.686324560454125,18.366582828460835","0","0"
"571","86","text","0","55","531709","0-0","","","","","","","","","","","","","","","","","","","","","","","","","","","","","","","","","","","","",""
"","","plant-game","0","56","546135","0-0","","200","160","1","WHEAT CROP","Left","200","190","8","NETTLE WEED","experimental","15","1,2,3,4,5,6,7,8","160,130,107.81221944892624,144.45009101462185,133.8572794953006,157.0736685285728,165.01266572593357,186.31532079313737","1,7,6,5,4,3,2,1","WHEAT CROP,CORN CROP,CORN CROP,CORN CROP,CORN CROP,CORN CROP,CORN CROP,CORN CROP","190,191.86820254491127,177.96152545272366,193.44450231492797,212.8004849267106,222.07635841262623,264.3013426340467,274.4957204215685","8,7,6,5,4,3,2,1","NETTLE WEED,NETTLE WEED,NETTLE WEED,NETTLE WEED,NETTLE WEED,NETTLE WEED,NETTLE WEED,NETTLE WEED","20,20,20,20,20,20,20,20","20,20,20,20,20,20,20,20","10,10,10,10,10,10,10,10","20,20,20,20,20,20,20,20","0,0,0,0,0,0,0,0","20,20,20,20,20,20,20,20","20,20,20,20,20,20,20,20","20,20,20,20,20,20,20,20","10,10,10,10,10,10,10,10","20,20,20,20,20,20,20,20","0,0,0,0,0,0,0,0","20,20,20,20,20,20,20,20","1,1,0,1,0,0,0,0","2233,2627,710,732,696,522,329,299","25.824064801790932,-22.187780551073764,36.637871565695605,-10.592811519321268,23.216389033272215,7.938997197360763,21.302655067203812,42.35808173967209","1.8682025449112798,-13.906677092187593,15.482976862204312,19.355982611782625,9.275873485915625,42.224984221420456,10.194377787521798,7.399664750643449","0","0"
"416","86","text","0","57","546641","0-0","","","","","","","","","","","","","","","","","","","","","","","","","","","","","","","","","","","","",""
"","","plant-game","0","58","556377","0-0","","200","160","1","CORN CROP","Left","200","180","4","NETTLE WEED","experimental","16","1,2,3,4","160,170,148.3540427501373,111.83825331061786","1,3,2,1","CORN CROP,WHEAT CROP,WHEAT CROP,WHEAT CROP","180,155.40905395681426,192.36617432396926,204.56865612005902","4,3,2,1","NETTLE WEED,NETTLE WEED,NETTLE WEED,NETTLE WEED","20,20,20,20","20,20,20,20","10,10,10,10","20,20,20,20","0,0,0,0","20,20,20,20","20,20,20,20","20,20,20,20","10,10,10,10","20,20,20,20","0,0,0,0","20,20,20,20","1,0,1,0","1504,1254,1180,542","-23.603236962550834,-21.645957249862718,-36.51578943951944,3.8222819878330796","-24.59094604318574,36.957120367155,12.20248179608975,6.75873316526884","0","0"
"912","86","text","0","59","557382","0-0","","","","","","","","","","","","","","","","","","","","","","","","","","","","","","","","","","","","",""
"","","plant-game","0","60","571500","0-0","","200","120","1","WHEAT CROP","Right","200","160","8","THISTLE WEED","experimental","17","1,2,3,4,5,6,7,8","160,171.06486241497885,161.21290362741283,173.27278257303874,159.4973803282673,166.836906835671,153.9097037337742,186.07623758191897","8,7,6,5,4,3,2,1","THISTLE WEED,THISTLE WEED,THISTLE WEED,THISTLE WEED,THISTLE WEED,THISTLE WEED,THISTLE WEED,THISTLE WEED","120,130,141.3450720402762,175.5024600425538,183.74255654477923,187.90311104228024,150.83128786650047,173.33235931505195","1,7,6,5,4,3,2,1","WHEAT CROP,CORN CROP,CORN CROP,CORN CROP,CORN CROP,CORN CROP,CORN CROP,CORN CROP","0,0,0,0,0,0,0,0","20,20,20,20,20,20,20,20","10,10,10,10,10,10,10,10","20,20,20,20,20,20,20,20","20,20,20,20,20,20,20,20","20,20,20,20,20,20,20,20","0,0,0,0,0,0,0,0","20,20,20,20,20,20,20,20","10,10,10,10,10,10,10,10","20,20,20,20,20,20,20,20","20,20,20,20,20,20,20,20","20,20,20,20,20,20,20,20","1,0,1,0,1,0,1,1","1937,1815,807,877,1026,728,598,1608","11.064862414978853,-9.851958787566028,12.059878945625904,-13.775402244771435,7.3395265074036775,-12.92720310189679,32.16653384814477,32.38990996238957","37.090409712534495,11.34507204027618,34.15738800227761,8.240096502225429,4.160554497501019,-37.071823175779784,22.50107144855146,25.402359626094924","0","0"
"396","86","text","0","61","571986","0-0","","","","","","","","","","","","","","","","","","","","","","","","","","","","","","","","","","","","",""
"","","plant-game","0","62","581965","0-0","","200","120","4","WHEAT CROP","Left","200","120","1","NETTLE WEED","experimental","18","1,2,3,4","120,131.50796188977242,152.82148041017308,156.11917957894707","4,3,2,1","WHEAT CROP,WHEAT CROP,WHEAT CROP,WHEAT CROP","120,170,194.07741342430717,237.42008419651768","1,3,2,1","NETTLE WEED,THISTLE WEED,THISTLE WEED,THISTLE WEED","20,20,20,20","20,20,20,20","10,10,10,10","20,20,20,20","0,0,0,0","20,20,20,20","20,20,20,20","20,20,20,20","10,10,10,10","20,20,20,20","0,0,0,0","20,20,20,20","1,0,1,0","975,790,1496,953","11.507961889772428,21.313518520400663,3.297699168773986,31.94036111632923","23.36689032858058,24.077413424307164,43.3426707722105,13.76548958383138","0","0"
"1080","86","text","0","63","583183","0-0","","","","","","","","","","","","","","","","","","","","","","","","","","","","","","","","","","","","",""
"","","plant-game","0","64","599828","0-0","","200","160","4","WHEAT CROP","Right","200","190","8","THISTLE WEED","experimental","19","1,2,3,4,5,6,7,8","190,254.60272422982607,227.9664778319841,239.81770315798335,237.18135337117124,244.8363840108928,255.33598993676932,240.59708146895971","8,7,6,5,4,3,2,1","THISTLE WEED,THISTLE WEED,THISTLE WEED,THISTLE WEED,THISTLE WEED,THISTLE WEED,THISTLE WEED,THISTLE WEED","160,137.21042913956478,144.55897087156129,160.3650206742573,160,196.3436752632652,206.809404393671,248.01711020208967","4,3,2,1,4,3,2,1","WHEAT CROP,WHEAT CROP,WHEAT CROP,WHEAT CROP,CORN CROP,CORN CROP,CORN CROP,CORN CROP","0,0,0,0,0,0,0,0","20,20,20,20,20,20,20,20","10,10,10,10,10,10,10,10","20,20,20,20,20,20,20,20","20,20,20,20,20,20,20,20","20,20,20,20,20,20,20,20","0,0,0,0,0,0,0,0","20,20,20,20,20,20,20,20","10,10,10,10,10,10,10,10","20,20,20,20,20,20,20,20","20,20,20,20,20,20,20,20","20,20,20,20,20,20,20,20","1,0,0,0,1,0,1,0","3430,1098,430,447,807,1359,1478,1434","64.60272422982607,-26.63624639784196,11.851225325999259,-2.636349786812109,7.655030639721563,10.499605925876526,-14.738908467809601,29.156348629071807","-22.789570860435234,7.348541731996503,15.806049802696014,29.57348411296215,36.34367526326521,10.46572913040581,41.20770580841867,30.05354896022996","0","0"
"2209","86","text","0","65","602097","0-0","","","","","","","","","","","","","","","","","","","","","","","","","","","","","","","","","","","","",""
"","","plant-game","0","66","612063","0-0","","200","180","4","WHEAT CROP","Left","200","190","4","THISTLE WEED","experimental","20","1,2,3,4","180,154.9308593103018,180.84148529687997,207.66430046999412","4,3,2,1","WHEAT CROP,WHEAT CROP,WHEAT CROP,WHEAT CROP","190,198.09725619154673,210.40546102093066,245.05130935179065","4,3,2,1","THISTLE WEED,THISTLE WEED,THISTLE WEED,THISTLE WEED","20,20,20,20","20,20,20,20","10,10,10,10","20,20,20,20","0,0,0,0","20,20,20,20","20,20,20,20","20,20,20,20","10,10,10,10","20,20,20,20","0,0,0,0","20,20,20,20","1,0,0,1","2034,1799,1071,769","-25.069140689698216,25.910625986578168,26.822815173114144,-4.195261039857578","8.097256191546743,12.30820482938391,34.64584833086,13.971919535608777","0","0"
"478","86","text","0","67","612651","0-0","","","","","","","","","","","","","","","","","","","","","","","","","","","","","","","","","","","","",""
"","","plant-game","0","68","630790","0-0","","200","160","4","CORN CROP","Right","200","180","8","THISTLE WEED","experimental","21","1,2,3,4,5,6,7,8","180,185.03735467005558,195.56882468594816,203.10016734477568,209.43929081552528,248.9732654844018,252.6649442683015,286.09331127225556","8,7,6,5,4,3,2,1","THISTLE WEED,THISTLE WEED,THISTLE WEED,THISTLE WEED,THISTLE WEED,THISTLE WEED,THISTLE WEED,THISTLE WEED","160,213.22975395737186,234.20545406217423,258.1469939809775,160,183.278723850016,191.39946237897033,205.81478897786712","4,3,2,1,4,3,2,1","CORN CROP,CORN CROP,CORN CROP,CORN CROP,WHEAT CROP,WHEAT CROP,WHEAT CROP,WHEAT CROP","0,0,0,0,0,0,0,0","20,20,20,20,20,20,20,20","10,10,10,10,10,10,10,10","20,20,20,20,20,20,20,20","20,20,20,20,20,20,20,20","20,20,20,20,20,20,20,20","0,0,0,0,0,0,0,0","20,20,20,20,20,20,20,20","10,10,10,10,10,10,10,10","20,20,20,20,20,20,20,20","20,20,20,20,20,20,20,20","20,20,20,20,20,20,20,20","1,0,1,0,1,0,1,1","3024,1835,2182,1463,1279,500,616,1172","5.037354670055569,10.531470015892593,7.531342658827516,6.339123470749612,39.53397466887651,3.691678783899704,33.42836700395408,17.021493510945206","53.22975395737185,20.975700104802378,23.941539918803297,22.552261526928522,23.278723850015997,8.120738528954307,14.41532659889681,17.179753392831486","0","0"
"116","86","text","0","69","630946","0-0","","","","","","","","","","","","","","","","","","","","","","","","","","","","","","","","","","","","",""
"","","plant-game","0","70","640070","0-0","","200","180","2","CORN CROP","Left","200","120","4","NETTLE WEED","experimental","22","1,2,3,4","180,155.85156035617263,180,147.6957427175704","2,1,2,1","CORN CROP,CORN CROP,WHEAT CROP,WHEAT CROP","120,98.11433734813811,118.77374576472363,150.28310698600373","4,3,2,1","NETTLE WEED,NETTLE WEED,NETTLE WEED,NETTLE WEED","20,20,20,20","20,20,20,20","10,10,10,10","20,20,20,20","0,0,0,0","20,20,20,20","20,20,20,20","20,20,20,20","10,10,10,10","20,20,20,20","0,0,0,0","20,20,20,20","1,0,1,0","855,1087,851,841","-24.14843964382737,23.939733093240815,-32.30425728242962,44.125742075948025","-21.885662651861892,20.659408416585517,31.50936122128009,2.9112473681934823","0","0"
"581","86","text","0","71","640761","0-0","","","","","","","","","","","","","","","","","","","","","","","","","","","","","","","","","","","","",""
"","","plant-game","0","72","650088","0-0","","200","160","4","CORN CROP","Right","200","190","2","THISTLE WEED","experimental","23","1,2,3,4","190,186.97824229415684,180,194.59495934878743","2,1,2,1","THISTLE WEED,THISTLE WEED,NETTLE WEED,NETTLE WEED","160,194.70238901974957,202.60624719440128,221.2047804896698","4,3,2,1","CORN CROP,CORN CROP,CORN CROP,CORN CROP","0,0,0,0","20,20,20,20","10,10,10,10","20,20,20,20","20,20,20,20","20,20,20,20","0,0,0,0","20,20,20,20","10,10,10,10","20,20,20,20","20,20,20,20","20,20,20,20","1,1,1,0","796,1448,1309,775","-3.0217577058431466,31.082135332825644,14.594959348787413,-23.096642490703594","34.702389019749575,7.903858174651715,18.598533295268506,-11.70271219870565","0","0"
"1268","86","text","0","73","651426","0-0","","","","","","","","","","","","","","","","","","","","","","","","","","","","","","","","","","","","",""
"","","plant-game","0","74","656360","0-0","","200","190","2","WHEAT CROP","Left","200","190","2","NETTLE WEED","experimental","24","1,2","190,189.45660808329575","2,1","WHEAT CROP,WHEAT CROP","190,203.4132777777616","2,1","NETTLE WEED,NETTLE WEED","20,20","20,20","10,10","20,20","0,0","20,20","20,20","20,20","10,10","20,20","0,0","20,20","1,0","804,769","-0.5433919167042415,-17.95643466529326","13.413277777761603,49.6540194499086","0","0"
"454","86","text","0","75","656894","0-0","","","","","","","","","","","","","","","","","","","","","","","","","","","","","","","","","","","","",""
"","","plant-game","0","76","668364","0-0","","200","120","1","WHEAT CROP","Right","200","120","8","THISTLE WEED","experimental","25","1,2,3,4,5,6,7,8","120,143.02999392829918,182.37307276926896,217.26418295255866,211.49891571862622,229.1513683019857,207.49130455522752,207.09030853900546","8,7,6,5,4,3,2,1","THISTLE WEED,THISTLE WEED,THISTLE WEED,THISTLE WEED,THISTLE WEED,THISTLE WEED,THISTLE WEED,THISTLE WEED","120,130,132.6827594900992,144.65591525327613,156.70762270705174,159.44423134141317,140.60883110871865,180.35848093177324","1,7,6,5,4,3,2,1","WHEAT CROP,CORN CROP,CORN CROP,CORN CROP,CORN CROP,CORN CROP,CORN CROP,CORN CROP","0,0,0,0,0,0,0,0","20,20,20,20,20,20,20,20","10,10,10,10,10,10,10,10","20,20,20,20,20,20,20,20","20,20,20,20,20,20,20,20","20,20,20,20,20,20,20,20","0,0,0,0,0,0,0,0","20,20,20,20,20,20,20,20","10,10,10,10,10,10,10,10","20,20,20,20,20,20,20,20","20,20,20,20,20,20,20,20","20,20,20,20,20,20,20,20","1,1,0,0,0,0,1,0","1011,975,963,425,840,441,766,1249","23.02999392829918,39.34307884096978,34.89111018328971,-5.7652672339324385,17.652452583359487,-21.660063746758198,-0.4009960162220594,-33.696064856456665","-13.69368637005715,2.6827594900991905,11.97315576317694,12.051707453775599,2.7366086343614398,-18.835400232694525,39.7496498230546,29.11221148146887","0","0"
"603","86","text","0","77","669047","0-0","","","","","","","","","","","","","","","","","","","","","","","","","","","","","","","","","","","","",""
"","","plant-game","0","78","674182","0-0","","200","160","2","WHEAT CROP","Left","200","180","2","NETTLE WEED","experimental","26","1,2","160,178.30867047640257","2,1","WHEAT CROP,WHEAT CROP","180,206.71632260790258","2,1","NETTLE WEED,NETTLE WEED","20,20","20,20","10,10","20,20","0,0","20,20","20,20","20,20","10,10","20,20","0,0","20,20","0,1","1378,1132","18.30867047640256,19.442868613717856","26.716322607902583,18.56860596210495","0","0"
"577","86","text","0","79","674869","0-0","","","","","","","","","","","","","","","","","","","","","","","","","","","","","","","","","","","","",""
"","","plant-game","0","80","688300","0-0","","200","190","8","CORN CROP","Left","200","180","1","THISTLE WEED","experimental","27","1,2,3,4,5,6,7,8","190,242.91652521817107,233.34882982433516,270.5172550509098,269.7006597322062,284.17383723991804,319.63299984306116,312.695536174885","8,7,6,5,4,3,2,1","CORN CROP,CORN CROP,CORN CROP,CORN CROP,CORN CROP,CORN CROP,CORN CROP,CORN CROP","180,130,104.95233357560366,99.78682972262469,121.6283426750239,130.34407505976426,138.4375832337218,181.79648062274595","1,7,6,5,4,3,2,1","THISTLE WEED,NETTLE WEED,NETTLE WEED,NETTLE WEED,NETTLE WEED,NETTLE WEED,NETTLE WEED,NETTLE WEED","20,20,20,20,20,20,20,20","20,20,20,20,20,20,20,20","10,10,10,10,10,10,10,10","20,20,20,20,20,20,20,20","0,0,0,0,0,0,0,0","20,20,20,20,20,20,20,20","20,20,20,20,20,20,20,20","20,20,20,20,20,20,20,20","10,10,10,10,10,10,10,10","20,20,20,20,20,20,20,20","0,0,0,0,0,0,0,0","20,20,20,20,20,20,20,20","1,1,1,1,0,1,0,0","805,1550,1433,1177,1033,732,606,945","52.91652521817107,-9.567695393835907,37.16842522657465,-0.8165953187035889,14.473177507711835,35.45916260314311,-6.937463668176203,-2.77757342095245","-10.586741750507642,-25.047666424396336,-5.165503852978977,21.841512952399206,8.715732384740353,8.09350817395753,43.35889738902414,32.91147221231493","0","0"
"460","86","text","0","81","688830","0-0","","","","","","","","","","","","","","","","","","","","","","","","","","","","","","","","","","","","",""
"","","plant-game","0","82","698008","0-0","","200","160","4","CORN CROP","Right","200","120","1","NETTLE WEED","experimental","28","1,2,3,4","120,170,166.68812407796543,218.1633515750116","1,3,2,1","NETTLE WEED,THISTLE WEED,THISTLE WEED,THISTLE WEED","160,189.63258681375805,181.30075781428124,203.30927722186323","4,3,2,1","CORN CROP,CORN CROP,CORN CROP,CORN CROP","0,0,0,0","20,20,20,20","10,10,10,10","20,20,20,20","20,20,20,20","20,20,20,20","0,0,0,0","20,20,20,20","10,10,10,10","20,20,20,20","20,20,20,20","20,20,20,20","1,0,1,0","1236,1448,768,1193","-14.186937121868368,-3.3118759220345657,51.47522749704618,4.580093644060405","29.632586813758053,-8.331828999476825,22.008519407581986,1.0427094694636174","0","0"
"620","86","text","0","83","698698","0-0","","","","","","","","","","","","","","","","","","","","","","","","","","","","","","","","","","","","",""
"","","plant-game","0","84","707052","0-0","","200","120","4","CORN CROP","Left","200","120","2","NETTLE WEED","experimental","29","1,2,3,4","120,132.15725320989856,99.56495836961682,110.85528805892031","4,3,2,1","CORN CROP,CORN CROP,CORN CROP,CORN CROP","120,117.3481579779009,180,205.135247246851","2,1,2,1","NETTLE WEED,NETTLE WEED,THISTLE WEED,THISTLE WEED","20,20,20,20","20,20,20,20","10,10,10,10","20,20,20,20","0,0,0,0","20,20,20,20","20,20,20,20","20,20,20,20","10,10,10,10","20,20,20,20","0,0,0,0","20,20,20,20","1,1,0,1","897,423,1896,735","12.157253209898556,-32.592294840281745,11.290329689303492,-5.105871489146744","-2.6518420220991,2.8095907237431614,25.135247246851005,-2.594683750043722","0","0"
"424","86","text","0","85","707566","0-0","","","","","","","","","","","","","","","","","","","","","","","","","","","","","","","","","","","","",""
"","","plant-game","0","86","714806","0-0","","200","180","1","CORN CROP","Right","200","160","2","THISTLE WEED","experimental","30","1,2","160,169.37018083667473","2,1","THISTLE WEED,THISTLE WEED","180,190","1,1","CORN CROP,WHEAT CROP","0,0","20,20","10,10","20,20","20,20","20,20","0,0","20,20","10,10","20,20","20,20","20,20","1,1","1052,986","9.370180836674747,-12.245426481132135","35.458878231149605,42.9756012129203","0","0"
"510","86","text","0","87","715406","0-0","","","","","","","","","","","","","","","","","","","","","","","","","","","","","","","","","","","","",""
"","","plant-game","0","88","722119","0-0","","200","120","2","CORN CROP","Left","200","160","2","THISTLE WEED","experimental","31","1,2","120,142.73409235074908","2,1","CORN CROP,CORN CROP","160,171.9885251010353","2,1","THISTLE WEED,THISTLE WEED","20,20","20,20","10,10","20,20","0,0","20,20","20,20","20,20","10,10","20,20","0,0","20,20","0,0","1315,2536","22.734092350749084,-5.594847257557369","11.9885251010353,19.31835034948663","0","0"
"390","86","text","0","89","722609","0-0","","","","","","","","","","","","","","","","","","","","","","","","","","","","","","","","","","","","",""
"","","plant-game","0","90","740079","0-0","","200","180","4","WHEAT CROP","Right","200","160","8","THISTLE WEED","experimental","32","1,2,3,4,5,6,7,8","160,179.81433579405058,210.37467295665,226.8698952165331,217.02086372962623,255.97124158039017,258.7201724622019,292.3124207769144","8,7,6,5,4,3,2,1","THISTLE WEED,THISTLE WEED,THISTLE WEED,THISTLE WEED,THISTLE WEED,THISTLE WEED,THISTLE WEED,THISTLE WEED","180,161.42169765322564,194.36529617894763,246.71075753402138,160,189.05217393860647,208.29047880623514,203.47397525583588","4,3,2,1,4,3,2,1","WHEAT CROP,WHEAT CROP,WHEAT CROP,WHEAT CROP,CORN CROP,CORN CROP,CORN CROP,CORN CROP","0,0,0,0,0,0,0,0","20,20,20,20,20,20,20,20","10,10,10,10,10,10,10,10","20,20,20,20,20,20,20,20","20,20,20,20,20,20,20,20","20,20,20,20,20,20,20,20","0,0,0,0,0,0,0,0","20,20,20,20,20,20,20,20","10,10,10,10,10,10,10,10","20,20,20,20,20,20,20,20","20,20,20,20,20,20,20,20","20,20,20,20,20,20,20,20","1,1,1,0,1,0,1,0","4115,2239,798,1496,717,699,951,953","19.81433579405057,30.560337162599403,16.495222259883107,-9.84903148690689,38.95037785076394,2.748930881811717,33.592248314712506,-9.615582644283474","-18.578302346774358,32.943598525722,52.345461355073745,-38.6561209866004,29.05217393860646,19.23830486762868,-4.816503550399251,2.7987035389413837","0","0"
"190","86","text","0","91","740373","0-0","","","","","","","","","","","","","","","","","","","","","","","","","","","","","","","","","","","","",""
"","","plant-game","0","92","745824","0-0","","200","190","1","WHEAT CROP","Left","200","120","1","NETTLE WEED","experimental","33","1","190","1","WHEAT CROP","120","1","NETTLE WEED","20","20","10","20","0","20","20","20","10","20","0","20","1","2682","-13.859058811914327","33.44784777288238","0","0"
"877","86","text","0","93","746771","0-0","","","","","","","","","","","","","","","","","","","","","","","","","","","","","","","","","","","","",""
"","","plant-game","0","94","760472","0-0","","200","190","4","WHEAT CROP","Right","200","160","8","NETTLE WEED","experimental","34","1,2,3,4,5,6,7,8","160,173.23742331171394,208.3192581182209,228.43834532561164,221.81451040327093,250.29308824611874,255.74758215031784,242.63757818662202","8,7,6,5,4,3,2,1","NETTLE WEED,NETTLE WEED,NETTLE WEED,NETTLE WEED,NETTLE WEED,NETTLE WEED,NETTLE WEED,NETTLE WEED","190,203.14494233276974,195.43304986231962,238.7666601730017,160,186.08066281750956,191.14253679324136,200.32602035128835","4,3,2,1,4,3,2,1","WHEAT CROP,WHEAT CROP,WHEAT CROP,WHEAT CROP,CORN CROP,CORN CROP,CORN CROP,CORN CROP","0,0,0,0,0,0,0,0","20,20,20,20,20,20,20,20","10,10,10,10,10,10,10,10","20,20,20,20,20,20,20,20","20,20,20,20,20,20,20,20","20,20,20,20,20,20,20,20","0,0,0,0,0,0,0,0","20,20,20,20,20,20,20,20","10,10,10,10,10,10,10,10","20,20,20,20,20,20,20,20","20,20,20,20,20,20,20,20","20,20,20,20,20,20,20,20","1,1,1,1,1,1,1,1","1981,1419,1028,938,2343,522,931,703","13.237423311713949,35.081834806506954,20.119087207390745,-6.6238349223406985,28.478577842847823,5.454493904199108,-13.110003963695817,59.87383217996683","13.144942332769734,-7.711892470450117,43.33361031068209,26.38309282105719,26.08066281750955,5.061873975731787,9.18348355804699,55.342095053291246","2","0"
"954","86","text","0","95","761486","0-0","","","","","","","","","","","","","","","","","","","","","","","","","","","","","","","","","","","","",""
"","","plant-game","0","96","774397","0-0","","200","120","2","WHEAT CROP","Left","200","190","8","NETTLE WEED","experimental","35","1,2,3,4,5,6,7,8","120,140.22969496638348,140,131.74130733316974,132.74060412047135,149.8206126216552,206.71109676724382,225.2930435782725","2,1,6,5,4,3,2,1","WHEAT CROP,WHEAT CROP,CORN CROP,CORN CROP,CORN CROP,CORN CROP,CORN CROP,CORN CROP","190,221.179113153995,255.00608923794093,260.9442128958498,279.31577837255315,289.5727391455793,264.36912558397376,262.44191842368605","8,7,6,5,4,3,2,1","NETTLE WEED,NETTLE WEED,NETTLE WEED,NETTLE WEED,NETTLE WEED,NETTLE WEED,NETTLE WEED,NETTLE WEED","20,20,20,20,20,20,20,20","20,20,20,20,20,20,20,20","10,10,10,10,10,10,10,10","20,20,20,20,20,20,20,20","0,0,0,0,0,0,0,0","20,20,20,20,20,20,20,20","20,20,20,20,20,20,20,20","20,20,20,20,20,20,20,20","10,10,10,10,10,10,10,10","20,20,20,20,20,20,20,20","0,0,0,0,0,0,0,0","20,20,20,20,20,20,20,20","0,0,0,0,0,0,0,0","2097,1318,1020,1454,425,1025,1253,471","20.229694966383477,21.135017460980297,-8.258692666830246,0.9992967873015992,17.080008501183848,56.890484145588644,18.581946811028665,33.01250212122814","31.179113153994997,33.82697608394593,5.938123657908875,18.37156547670336,10.256960773026172,-25.20361356160557,-1.9272071602876828,22.811017215695202","0","0"
"711","86","text","0","97","775168","0-0","","","","","","","","","","","","","","","","","","","","","","","","","","","","","","","","","","","","",""
"","","plant-game","0","98","787635","0-0","","200","120","8","CORN CROP","Left","200","120","1","THISTLE WEED","experimental","36","1,2,3,4,5,6,7,8","120,175.85578547956086,223.26884569029724,230.06849597264352,207.02051820373282,235.14018673071564,211.97846681630216,223.47581474475209","8,7,6,5,4,3,2,1","CORN CROP,CORN CROP,CORN CROP,CORN CROP,CORN CROP,CORN CROP,CORN CROP,CORN CROP","120,130,136.2339813726386,142.9019105707517,148.3603337468752,117.05151183850371,122.58943835646558,111.72381883640998","1,7,6,5,4,3,2,1","THISTLE WEED,NETTLE WEED,NETTLE WEED,NETTLE WEED,NETTLE WEED,NETTLE WEED,NETTLE WEED,NETTLE WEED","20,20,20,20,20,20,20,20","20,20,20,20,20,20,20,20","10,10,10,10,10,10,10,10","20,20,20,20,20,20,20,20","0,0,0,0,0,0,0,0","20,20,20,20,20,20,20,20","20,20,20,20,20,20,20,20","20,20,20,20,20,20,20,20","10,10,10,10,10,10,10,10","20,20,20,20,20,20,20,20","0,0,0,0,0,0,0,0","20,20,20,20,20,20,20,20","0,0,1,0,1,1,1,1","1319,1221,1759,780,628,529,1076,571","55.855785479560865,47.413060210736376,6.799650282346286,-23.047977768910712,28.119668526982814,-23.16171991441347,11.497347928449921,12.356864033837487","22.38994409329705,6.2339813726385955,6.667929198113115,5.458423176123501,-31.30882190837149,5.537926517961862,-10.865619520055606,14.38648243964256","0","0"
"434","86","text","0","99","788169","0-0","","","","","","","","","","","","","","","","","","","","","","","","","","","","","","","","","","","","",""
"","","plant-game","0","100","797113","0-0","","200","120","2","WHEAT CROP","Right","200","160","4","THISTLE WEED","experimental","37","1,2,3,4","160,156.43749462909346,152.07703914270937,168.6846071491021","4,3,2,1","THISTLE WEED,THISTLE WEED,THISTLE WEED,THISTLE WEED","120,132.23685603679962,180,188.27455167401902","2,1,2,1","WHEAT CROP,WHEAT CROP,CORN CROP,CORN CROP","0,0,0,0","20,20,20,20","10,10,10,10","20,20,20,20","20,20,20,20","20,20,20,20","0,0,0,0","20,20,20,20","10,10,10,10","20,20,20,20","20,20,20,20","20,20,20,20","0,1,1,0","1900,938,1049,1009","-3.5625053709065235,-4.3604554863841045,16.60756800639273,-3.6124556076345304","12.23685603679961,16.418852726898752,8.274551674019024,3.4911266336907065","0","0"
"430","86","text","0","101","797609","0-0","","","","","","","","","","","","","","","","","","","","","","","","","","","","","","","","","","","","",""
"","","plant-game","0","102","807089","0-0","","200","180","4","CORN CROP","Right","200","180","1","NETTLE WEED","experimental","38","1,2,3,4","180,170,165.72965496618568,175.8616134150901","1,3,2,1","NETTLE WEED,THISTLE WEED,THISTLE WEED,THISTLE WEED","180,200.59450406133982,225.2273715666443,228.00519627640566","4,3,2,1","CORN CROP,CORN CROP,CORN CROP,CORN CROP","0,0,0,0","20,20,20,20","10,10,10,10","20,20,20,20","20,20,20,20","20,20,20,20","0,0,0,0","20,20,20,20","10,10,10,10","20,20,20,20","20,20,20,20","20,20,20,20","1,1,0,1","1752,1531,928,508","17.471728180399566,-4.270345033814323,10.131958448904415,24.91512534697258","20.594504061339823,24.632867505304496,2.777824709761339,27.22720003842317","0","0"
"156","86","text","0","103","807325","0-0","","","","","","","","","","","","","","","","","","","","","","","","","","","","","","","","","","","","",""
"","","plant-game","0","104","815294","0-0","","200","180","2","WHEAT CROP","Right","200","160","1","NETTLE WEED","experimental","39","1,2","160,190","1,1","NETTLE WEED,THISTLE WEED","180,210.33864590467283","2,1","WHEAT CROP,WHEAT CROP","0,0","20,20","10,10","20,20","20,20","20,20","0,0","20,20","10,10","20,20","20,20","20,20","1,0","2485,2173","0.4683452954736822,10.80737973024285","30.338645904672816,18.105245884019226","0","0"
"780","86","text","0","105","816134","0-0","","","","","","","","","","","","","","","","","","","","","","","","","","","","","","","","","","","","",""
"","","plant-game","0","106","826323","0-0","","200","120","8","CORN CROP","Right","200","180","8","THISTLE WEED","experimental","40","1,2,3,4,5,6,7,8","180,154.13815354569442,180.05607608908477,175.8706302576288,161.05126488238147,187.46350989254725,212.28992164420396,252.9099679408124","8,7,6,5,4,3,2,1","THISTLE WEED,THISTLE WEED,THISTLE WEED,THISTLE WEED,THISTLE WEED,THISTLE WEED,THISTLE WEED,THISTLE WEED","120,123.8431794827028,135.53601365685094,120.2515087955226,115.27112911361534,134.76226032862323,122.94589704955928,96.81184111097626","8,7,6,5,4,3,2,1","CORN CROP,CORN CROP,CORN CROP,CORN CROP,CORN CROP,CORN CROP,CORN CROP,CORN CROP","0,0,0,0,0,0,0,0","20,20,20,20,20,20,20,20","10,10,10,10,10,10,10,10","20,20,20,20,20,20,20,20","20,20,20,20,20,20,20,20","20,20,20,20,20,20,20,20","0,0,0,0,0,0,0,0","20,20,20,20,20,20,20,20","10,10,10,10,10,10,10,10","20,20,20,20,20,20,20,20","20,20,20,20,20,20,20,20","20,20,20,20,20,20,20,20","0,1,0,0,1,1,0,1","2935,722,524,654,389,1098,608,337","-25.86184645430558,25.91792254339035,-4.185445831455967,-14.819365375247306,26.412245010165776,24.8264117516567,40.620046296608436,-3.114315362198713","3.8431794827027903,11.692834174148134,-15.28450486132834,-4.980379681907257,19.491131215007883,-11.816363279063943,-26.134055938583018,11.867295743375255","0","0"
"356","86","text","0","107","826799","0-0","","","","","","","","","","","","","","","","","","","","","","","","","","","","","","","","","","","","",""
"","","plant-game","0","108","837596","0-0","","200","120","8","CORN CROP","Right","200","120","2","THISTLE WEED","experimental","41","1,2,3,4,5,6,7,8","120,133.81721767783583,140,154.45743225080255,144.30016707684064,180.03901957213546,178.31019529177675,157.96437559451226","2,1,6,5,4,3,2,1","THISTLE WEED,THISTLE WEED,NETTLE WEED,NETTLE WEED,NETTLE WEED,NETTLE WEED,NETTLE WEED,NETTLE WEED","120,134.39549851146185,155.51159606638996,189.69125106725443,185.0334952110567,215.50661052670594,229.5158667966669,264.0856035831842","8,7,6,5,4,3,2,1","CORN CROP,CORN CROP,CORN CROP,CORN CROP,CORN CROP,CORN CROP,CORN CROP,CORN CROP","0,0,0,0,0,0,0,0","20,20,20,20,20,20,20,20","10,10,10,10,10,10,10,10","20,20,20,20,20,20,20,20","20,20,20,20,20,20,20,20","20,20,20,20,20,20,20,20","0,0,0,0,0,0,0,0","20,20,20,20,20,20,20,20","10,10,10,10,10,10,10,10","20,20,20,20,20,20,20,20","20,20,20,20,20,20,20,20","20,20,20,20,20,20,20,20","1,1,1,0,1,0,0,0","2212,542,848,798,420,621,428,642","13.817217677835819,14.577756004186249,14.457432250802567,-10.157265173961932,35.73885249529482,-1.7288242803587175,-20.345819697264503,-16.960749730006228","14.395498511461861,21.116097554928096,34.179655000864464,-4.657755856197725,30.47311531564925,14.009256269960943,34.569736786517275,11.025956793871563","0","0"
"489","86","text","0","109","838150","0-0","","","","","","","","","","","","","","","","","","","","","","","","","","","","","","","","","","","","",""
"","","plant-game","0","110","853446","0-0","","200","180","8","WHEAT CROP","Left","200","190","4","THISTLE WEED","experimental","42","1,2,3,4,5,6,7,8","180,178.04760948359103,213.28517589229352,207.94560568724253,204.99190832871338,230.5787739391739,211.69193897793082,241.7056284920841","8,7,6,5,4,3,2,1","WHEAT CROP,WHEAT CROP,WHEAT CROP,WHEAT CROP,WHEAT CROP,WHEAT CROP,WHEAT CROP,WHEAT CROP","190,198.0007507863503,192.19840582163312,196.7838665162563,160,193.74146383443986,222.89350557321444,228.31816842611184","4,3,2,1,4,3,2,1","THISTLE WEED,THISTLE WEED,THISTLE WEED,THISTLE WEED,NETTLE WEED,NETTLE WEED,NETTLE WEED,NETTLE WEED","20,20,20,20,20,20,20,20","20,20,20,20,20,20,20,20","10,10,10,10,10,10,10,10","20,20,20,20,20,20,20,20","0,0,0,0,0,0,0,0","20,20,20,20,20,20,20,20","20,20,20,20,20,20,20,20","20,20,20,20,20,20,20,20","10,10,10,10,10,10,10,10","20,20,20,20,20,20,20,20","0,0,0,0,0,0,0,0","20,20,20,20,20,20,20,20","1,0,1,0,0,1,0,0","887,1076,2191,647,1892,2260,748,991","-1.9523905164089683,35.23756640870248,-5.339570205051003,-2.9536973585291477,25.586865610460542,-18.886834961243103,30.013689514153278,22.85739242572923","8.000750786350292,-5.802344964717175,4.585460694623188,55.493295584162865,33.74146383443986,29.15204173877457,5.4246628528973915,29.263987765052047","0","0"
"224","86","text","0","111","853730","0-0","","","","","","","","","","","","","","","","","","","","","","","","","","","","","","","","","","","","",""
"","","plant-game","0","112","865166","0-0","","200","120","4","WHEAT CROP","Left","200","160","8","THISTLE WEED","experimental","43","1,2,3,4,5,6,7,8","120,139.69866003841486,165.99143676303694,193.14533509005065,160,215.13046902824294,243.70177825134527,256.32733048846404","4,3,2,1,4,3,2,1","WHEAT CROP,WHEAT CROP,WHEAT CROP,WHEAT CROP,CORN CROP,CORN CROP,CORN CROP,CORN CROP","160,150.07937680509266,165.95967102783544,206.03981313638542,240.36146293451333,244.46068229177146,220.04789509191468,212.16157353336206","8,7,6,5,4,3,2,1","THISTLE WEED,THISTLE WEED,THISTLE WEED,THISTLE WEED,THISTLE WEED,THISTLE WEED,THISTLE WEED,THISTLE WEED","20,20,20,20,20,20,20,20","20,20,20,20,20,20,20,20","10,10,10,10,10,10,10,10","20,20,20,20,20,20,20,20","0,0,0,0,0,0,0,0","20,20,20,20,20,20,20,20","20,20,20,20,20,20,20,20","20,20,20,20,20,20,20,20","10,10,10,10,10,10,10,10","20,20,20,20,20,20,20,20","0,0,0,0,0,0,0,0","20,20,20,20,20,20,20,20","1,0,0,0,0,1,1,1","2156,1061,10,1189,1013,935,575,496","19.69866003841485,26.292776724622076,27.15389832701372,27.618674050995544,55.130469028242935,28.57130922310232,12.625552237118784,-17.19031813093951","-9.92062319490734,15.88029422274277,40.08014210854998,34.32164979812789,4.099219357258136,-24.412787199856773,-7.886321558552617,-1.1475348575035131","0","0"
"479","86","text","0","113","865726","0-0","","","","","","","","","","","","","","","","","","","","","","","","","","","","","","","","","","","","",""
"","","plant-game","0","114","873030","0-0","","200","120","1","WHEAT CROP","Left","200","160","2","NETTLE WEED","experimental","44","1,2","120,190","1,1","WHEAT CROP,CORN CROP","160,171.28313069744527","2,1","NETTLE WEED,NETTLE WEED","20,20","20,20","10,10","20,20","0,0","20,20","20,20","20,20","10,10","20,20","0,0","20,20","1,0","2295,768","-12.19598345413913,30.70347310678074","11.283130697445273,44.83451197986822","0","0"
"448","86","text","0","115","873558","0-0","","","","","","","","","","","","","","","","","","","","","","","","","","","","","","","","","","","","",""
"","","plant-game","0","116","880683","0-0","","200","120","1","WHEAT CROP","Right","200","180","4","NETTLE WEED","experimental","45","1,2,3,4","180,179.2955099371506,176.06474251166148,219.89120206129888","4,3,2,1","NETTLE WEED,NETTLE WEED,NETTLE WEED,NETTLE WEED","120,170,187.96968313232406,201.08517027139646","1,3,2,1","WHEAT CROP,CORN CROP,CORN CROP,CORN CROP","0,0,0,0","20,20,20,20","10,10,10,10","20,20,20,20","20,20,20,20","20,20,20,20","0,0,0,0","20,20,20,20","10,10,10,10","20,20,20,20","20,20,20,20","20,20,20,20","1,0,1,0","712,731,381,731","-0.7044900628494162,-3.230767425489115,43.826459549637406,-17.059519552817136","20.288377681035023,17.96968313232407,13.115487139072409,8.381904282281274","0","0"
"388","86","text","0","117","881161","0-0","","","","","","","","","","","","","","","","","","","","","","","","","","","","","","","","","","","","",""
"","","plant-game","0","118","890110","0-0","","200","160","8","WHEAT CROP","Right","200","160","2","THISTLE WEED","experimental","46","1,2,3,4,5,6,7,8","160,165.69222208611305,140,162.6031300719474,169.20317889159216,213.75180282486352,243.34328909285352,283.4954309236032","2,1,6,5,4,3,2,1","THISTLE WEED,THISTLE WEED,NETTLE WEED,NETTLE WEED,NETTLE WEED,NETTLE WEED,NETTLE WEED,NETTLE WEED","160,157.10798035948582,185.3884929387348,176.15069824066592,139.2134596634204,143.94698596012606,178.343002819018,203.12371328540544","8,7,6,5,4,3,2,1","WHEAT CROP,WHEAT CROP,WHEAT CROP,WHEAT CROP,WHEAT CROP,WHEAT CROP,WHEAT CROP,WHEAT CROP","0,0,0,0,0,0,0,0","20,20,20,20,20,20,20,20","10,10,10,10,10,10,10,10","20,20,20,20,20,20,20,20","20,20,20,20,20,20,20,20","20,20,20,20,20,20,20,20","0,0,0,0,0,0,0,0","20,20,20,20,20,20,20,20","10,10,10,10,10,10,10,10","20,20,20,20,20,20,20,20","20,20,20,20,20,20,20,20","20,20,20,20,20,20,20,20","0,1,1,0,1,1,1,1","873,470,962,596,403,510,319,1144","5.692222086113055,25.69044237470674,22.603130071947387,6.600048819644768,44.54862393327136,29.59148626799,40.152141830749635,21.724797570751875","-2.8920196405141754,28.28051257924897,-9.237794698068868,-36.93723857724551,4.7335262967056515,34.39601685889195,24.780710466387436,11.755392375782359","0","0"
"117","86","text","0","119","890307","0-0","","","","","","","","","","","","","","","","","","","","","","","","","","","","","","","","","","","","",""
"","","plant-game","0","120","899963","0-0","","200","160","8","CORN CROP","Left","200","190","4","NETTLE WEED","experimental","47","1,2,3,4,5,6,7,8","160,139.6642160724622,180.05086920068854,175.4569688449225,184.9352359488726,193.17846884838298,225.13422840629352,203.94778874572478","8,7,6,5,4,3,2,1","CORN CROP,CORN CROP,CORN CROP,CORN CROP,CORN CROP,CORN CROP,CORN CROP,CORN CROP","190,188.93468266613854,202.38586070687174,253.5762977018513,160,138.7965692377901,150.2666948192585,168.27467195858483","4,3,2,1,4,3,2,1","NETTLE WEED,NETTLE WEED,NETTLE WEED,NETTLE WEED,THISTLE WEED,THISTLE WEED,THISTLE WEED,THISTLE WEED","20,20,20,20,20,20,20,20","20,20,20,20,20,20,20,20","10,10,10,10,10,10,10,10","20,20,20,20,20,20,20,20","0,0,0,0,0,0,0,0","20,20,20,20,20,20,20,20","20,20,20,20,20,20,20,20","20,20,20,20,20,20,20,20","10,10,10,10,10,10,10,10","20,20,20,20,20,20,20,20","0,0,0,0,0,0,0,0","20,20,20,20,20,20,20,20","1,0,1,1,1,0,1,0","647,850,495,572,699,584,512,340","-20.3357839275378,40.38665312822632,-4.5939003557660305,9.478267103950088,8.243232899510403,31.95575955791054,-21.186439660568723,43.738331549489885","-1.0653173338614623,13.451178040733184,51.190436994979564,0.9657696127249605,-21.2034307622099,11.470125581468405,18.007977139326336,30.593207615760132","0","0"
"211","86","text","0","121","900294","0-0","","","","","","","","","","","","","","","","","","","","","","","","","","","","","","","","","","","","",""
"","","plant-game","0","122","907231","0-0","","200","160","2","CORN CROP","Right","200","120","4","NETTLE WEED","experimental","48","1,2,3,4","120,129.81953334077534,154.89504415512246,219.6764156336626","4,3,2,1","NETTLE WEED,NETTLE WEED,NETTLE WEED,NETTLE WEED","160,178.54333180801723,180,176.84154761910386","2,1,2,1","CORN CROP,CORN CROP,WHEAT CROP,WHEAT CROP","0,0,0,0","20,20,20,20","10,10,10,10","20,20,20,20","20,20,20,20","20,20,20,20","0,0,0,0","20,20,20,20","10,10,10,10","20,20,20,20","20,20,20,20","20,20,20,20","1,1,1,0","645,392,605,629","9.819533340775333,25.075510814347133,64.78137147854014,22.199360468666626","18.543331808017214,19.324246811372266,-3.1584523808961436,-12.787479602553661","0","0"
"2998","86","text","0","123","910370","0-0","","","","","","","","","","","","","","","","","","","","","","","","","","","","","","","","","","","","",""
"","","plant-game","0","124","917326","0-0","","200","160","1","CORN CROP","Left","200","120","2","THISTLE WEED","experimental","49","1,2","160,190","1,1","CORN CROP,WHEAT CROP","120,122.4800266588385","2,1","THISTLE WEED,THISTLE WEED","20,20","20,20","10,10","20,20","0,0","20,20","20,20","20,20","10,10","20,20","0,0","20,20","1,1","469,584","-4.466216675175959,0.3954802257651141","2.4800266588385016,20.293008032659063","0","0"
"530","86","text","0","125","917956","0-0","","","","","","","","","","","","","","","","","","","","","","","","","","","","","","","","","","","","",""
"","","plant-game","0","126","924216","0-0","","200","160","1","CORN CROP","Right","200","180","2","THISTLE WEED","experimental","50","1,2","180,170.7126050446088","2,1","THISTLE WEED,THISTLE WEED","160,190","1,1","CORN CROP,WHEAT CROP","0,0","20,20","10,10","20,20","20,20","20,20","0,0","20,20","10,10","20,20","20,20","20,20","1,1","595,1119","-9.287394955391196,13.632744410934249","8.93731193646844,1.813596036861835","0","0"
"814","86","text","0","127","925139","0-0","","","","","","","","","","","","","","","","","","","","","","","","","","","","","","","","","","","","",""
"","","plant-game","0","128","934054","0-0","","200","190","1","WHEAT CROP","Left","200","160","8","THISTLE WEED","experimental","51","1,2,3,4,5,6,7,8","190,130,118.55042463954747,157.74451037393158,158.6300166378629,151.99399491278365,150.8107018576056,153.3942872041352","1,7,6,5,4,3,2,1","WHEAT CROP,CORN CROP,CORN CROP,CORN CROP,CORN CROP,CORN CROP,CORN CROP,CORN CROP","160,152.50986097092598,158.38014806721574,175.93553353427683,196.30860421182433,167.37496374248514,180.72113499167125,195.3185134752305","8,7,6,5,4,3,2,1","THISTLE WEED,THISTLE WEED,THISTLE WEED,THISTLE WEED,THISTLE WEED,THISTLE WEED,THISTLE WEED,THISTLE WEED","20,20,20,20,20,20,20,20","20,20,20,20,20,20,20,20","10,10,10,10,10,10,10,10","20,20,20,20,20,20,20,20","0,0,0,0,0,0,0,0","20,20,20,20,20,20,20,20","20,20,20,20,20,20,20,20","20,20,20,20,20,20,20,20","10,10,10,10,10,10,10,10","20,20,20,20,20,20,20,20","0,0,0,0,0,0,0,0","20,20,20,20,20,20,20,20","1,1,1,0,1,1,1,1","317,494,403,444,479,363,559,719","15.201524913071493,-11.449575360452528,39.19408573438411,0.8855062639313083,-6.636021725079236,-1.1832930551780476,2.5835853465295826,30.080712416840868","-7.490139029074002,5.870287096289769,17.55538546706108,20.3730706775475,-28.933640469339185,13.3461712491861,14.597378483559243,-1.531734204181158","0","0"
"88","86","text","0","129","934212","0-0","","","","","","","","","","","","","","","","","","","","","","","","","","","","","","","","","","","","",""
"","","plant-game","0","130","944641","0-0","","200","160","4","WHEAT CROP","Right","200","120","8","THISTLE WEED","experimental","52","1,2,3,4,5,6,7,8","120,126.17987792588323,115.44463657105518,100.54418674509841,129.2190116774167,152.11702557494885,153.1169738512306,139.8869292867745","8,7,6,5,4,3,2,1","THISTLE WEED,THISTLE WEED,THISTLE WEED,THISTLE WEED,THISTLE WEED,THISTLE WEED,THISTLE WEED,THISTLE WEED","160,197.84937271013584,210.91865976873038,233.1136985107302,160,199.5464483910977,166.32513279395178,206.30739362317107","4,3,2,1,4,3,2,1","WHEAT CROP,WHEAT CROP,WHEAT CROP,WHEAT CROP,CORN CROP,CORN CROP,CORN CROP,CORN CROP","0,0,0,0,0,0,0,0","20,20,20,20,20,20,20,20","10,10,10,10,10,10,10,10","20,20,20,20,20,20,20,20","20,20,20,20,20,20,20,20","20,20,20,20,20,20,20,20","0,0,0,0,0,0,0,0","20,20,20,20,20,20,20,20","10,10,10,10,10,10,10,10","20,20,20,20,20,20,20,20","20,20,20,20,20,20,20,20","20,20,20,20,20,20,20,20","1,1,0,1,1,0,1,1","345,627,685,501,499,1124,444,494","6.179877925883233,-10.735241354828041,-14.900449825956768,28.67482493231826,22.898013897532177,0.9999482762817397,-13.230044564456108,21.377851370519224","37.84937271013583,13.069287058594536,22.195038741999802,27.695366344371436,39.5464483910977,-33.221315597145924,39.98226082921929,14.24103661283853","0","0"
"68","86","text","0","131","944789","0-0","","","","","","","","","","","","","","","","","","","","","","","","","","","","","","","","","","","","",""
"","","plant-game","0","132","952178","0-0","","200","160","4","WHEAT CROP","Left","200","190","1","NETTLE WEED","experimental","53","1,2,3,4","160,171.06730910913654,187.8364339326019,187.01103926618313","4,3,2,1","WHEAT CROP,WHEAT CROP,WHEAT CROP,WHEAT CROP","190,170,168.6371987986811,150.11283608814534","1,3,2,1","NETTLE WEED,THISTLE WEED,THISTLE WEED,THISTLE WEED","20,20,20,20","20,20,20,20","10,10,10,10","20,20,20,20","0,0,0,0","20,20,20,20","20,20,20,20","20,20,20,20","10,10,10,10","20,20,20,20","0,0,0,0","20,20,20,20","1,1,1,1","315,1435,373,851","11.067309109136556,16.769124823465347,-0.8253946664187615,-7.837690471811881","22.855413611877076,-1.3628012013188773,-18.524362710535765,-19.187113493080524","1","0"
"83","86","text","0","133","952331","0-0","","","","","","","","","","","","","","","","","","","","","","","","","","","","","","","","","","","","",""
"","","plant-game","0","134","961973","0-0","","200","190","8","CORN CROP","Right","200","120","1","NETTLE WEED","experimental","54","1,2,3,4,5,6,7,8","120,130,85.11209776908638,150.8671700374151,125.78402137456878,135.90503159211167,161.47711341933035,213.93868033330818","1,7,6,5,4,3,2,1","NETTLE WEED,THISTLE WEED,THISTLE WEED,THISTLE WEED,THISTLE WEED,THISTLE WEED,THISTLE WEED,THISTLE WEED","190,234.76203454325992,266.29337047450093,294.8775200579907,301.7894355746874,334.3553369611457,331.3567114597081,319.10883040563306","8,7,6,5,4,3,2,1","CORN CROP,CORN CROP,CORN CROP,CORN CROP,CORN CROP,CORN CROP,CORN CROP,CORN CROP","0,0,0,0,0,0,0,0","20,20,20,20,20,20,20,20","10,10,10,10,10,10,10,10","20,20,20,20,20,20,20,20","20,20,20,20,20,20,20,20","20,20,20,20,20,20,20,20","0,0,0,0,0,0,0,0","20,20,20,20,20,20,20,20","10,10,10,10,10,10,10,10","20,20,20,20,20,20,20,20","20,20,20,20,20,20,20,20","20,20,20,20,20,20,20,20","1,0,1,0,1,0,1,0","341,748,589,676,509,360,517,1581","56.85737839489781,-44.88790223091363,65.75507226832872,-25.083148662846316,10.121010217542892,25.572081827218692,52.46156691397784,-32.266414169502475","44.76203454325993,31.531335931241,28.58414958348977,6.911915516696679,32.56590138645836,-2.9986255014376493,-12.24788105407503,-16.5231965395645","0","0"
"487","86","text","0","135","962520","0-0","","","","","","","","","","","","","","","","","","","","","","","","","","","","","","","","","","","","",""
"","","plant-game","0","136","973183","0-0","","200","190","4","CORN CROP","Left","200","120","8","NETTLE WEED","experimental","55","1,2,3,4,5,6,7,8","190,189.7231196712998,184.13202404233664,189.7532416324162,160,195.86621983918897,230.26748603852587,234.58219221691581","4,3,2,1,4,3,2,1","CORN CROP,CORN CROP,CORN CROP,CORN CROP,WHEAT CROP,WHEAT CROP,WHEAT CROP,WHEAT CROP","120,116.86746317712347,120.39191563397094,118.3907375809995,125.59694456682725,134.69760449958255,151.62504985862637,149.7561539187796","8,7,6,5,4,3,2,1","NETTLE WEED,NETTLE WEED,NETTLE WEED,NETTLE WEED,NETTLE WEED,NETTLE WEED,NETTLE WEED,NETTLE WEED","20,20,20,20,20,20,20,20","20,20,20,20,20,20,20,20","10,10,10,10,10,10,10,10","20,20,20,20,20,20,20,20","0,0,0,0,0,0,0,0","20,20,20,20,20,20,20,20","20,20,20,20,20,20,20,20","20,20,20,20,20,20,20,20","10,10,10,10,10,10,10,10","20,20,20,20,20,20,20,20","0,0,0,0,0,0,0,0","20,20,20,20,20,20,20,20","1,0,1,0,0,0,1,1","626,916,567,517,1448,639,787,402","-0.27688032870021095,-5.591095628963156,5.621217590079563,4.825503040966499,35.866219839188965,34.40126619933689,4.314706178389931,-4.7447100992207405","-3.132536822876525,3.5244524568474773,-2.001178052971446,7.206206985827752,9.100659932755304,16.9274453590438,-1.8688959398467795,39.11693886338492","0","0"
"284","86","text","0","137","973569","0-0","","","","","","","","","","","","","","","","","","","","","","","","","","","","","","","","","","","","",""
"","","plant-game","0","138","982525","0-0","","200","190","4","CORN CROP","Left","200","180","4","NETTLE WEED","experimental","56","1,2,3,4","190,224.30311997749257,189.83463236858486,202.30047734057294","4,3,2,1","CORN CROP,CORN CROP,CORN CROP,CORN CROP","180,190.78748608158193,211.21821766739748,209.98252099943716","4,3,2,1","NETTLE WEED,NETTLE WEED,NETTLE WEED,NETTLE WEED","20,20,20,20","20,20,20,20","10,10,10,10","20,20,20,20","0,0,0,0","20,20,20,20","20,20,20,20","20,20,20,20","10,10,10,10","20,20,20,20","0,0,0,0","20,20,20,20","0,1,1,0","1082,1381,1636,1346","34.30311997749257,-34.468487608907715,12.465844971988068,34.52899183269842","10.787486081581928,20.43073158581555,-1.2356966679603327,1.8933336598315513","0","0"
"553","86","text","0","139","983161","0-0","","","","","","","","","","","","","","","","","","","","","","","","","","","","","","","","","","","","",""
"","","plant-game","0","140","989487","0-0","","200","120","4","CORN CROP","Right","200","190","4","NETTLE WEED","experimental","57","1,2,3,4","190,201.7606081998106,219.50004368984554,230.10243781108358","4,3,2,1","NETTLE WEED,NETTLE WEED,NETTLE WEED,NETTLE WEED","120,139.11705166199187,142.2583989706732,166.47456742109193","4,3,2,1","CORN CROP,CORN CROP,CORN CROP,CORN CROP","0,0,0,0","20,20,20,20","10,10,10,10","20,20,20,20","20,20,20,20","20,20,20,20","0,0,0,0","20,20,20,20","10,10,10,10","20,20,20,20","20,20,20,20","20,20,20,20","1,0,1,0","1084,810,741,677","11.760608199810616,17.73943549003494,10.60239412123802,-2.219455136687321","19.11705166199185,3.1413473086813197,24.216168450418735,21.679491436152283","0","0"
"80","86","text","0","141","989648","0-0","","","","","","","","","","","","","","","","","","","","","","","","","","","","","","","","","","","","",""
"","","plant-game","0","142","997894","0-0","","200","160","1","WHEAT CROP","Left","200","120","4","THISTLE WEED","experimental","58","1,2,3,4","160,170,213.8140835403704,201.37684959158057","1,3,2,1","WHEAT CROP,CORN CROP,CORN CROP,CORN CROP","120,133.46257327696947,145.33225864389527,162.68661169464178","4,3,2,1","THISTLE WEED,THISTLE WEED,THISTLE WEED,THISTLE WEED","20,20,20,20","20,20,20,20","10,10,10,10","20,20,20,20","0,0,0,0","20,20,20,20","20,20,20,20","20,20,20,20","10,10,10,10","20,20,20,20","0,0,0,0","20,20,20,20","0,0,1,0","1041,1355,878,537","46.962141141924924,43.81408354037042,-12.437233948789839,32.81783097449267","13.462573276969472,11.869685366925808,17.354353050746525,7.963439379427166","0","0"
"86","86","text","0","143","998047","0-0","","","","","","","","","","","","","","","","","","","","","","","","","","","","","","","","","","","","",""
"","","plant-game","0","144","1007568","0-0","","200","180","8","CORN CROP","Left","200","160","8","THISTLE WEED","experimental","59","1,2,3,4,5,6,7,8","180,199.9487600370372,222.5872833932157,177.24573837847845,181.50869218220595,177.51791368140272,160.52050784084054,180.06307477786766","8,7,6,5,4,3,2,1","CORN CROP,CORN CROP,CORN CROP,CORN CROP,CORN CROP,CORN CROP,CORN CROP,CORN CROP","160,172.48722632322696,195.57950381327757,242.422050980427,266.8963791471914,257.2885665016102,273.73270349881074,265.3268816786734","8,7,6,5,4,3,2,1","THISTLE WEED,THISTLE WEED,THISTLE WEED,THISTLE WEED,THISTLE WEED,THISTLE WEED,THISTLE WEED,THISTLE WEED","20,20,20,20,20,20,20,20","20,20,20,20,20,20,20,20","10,10,10,10,10,10,10,10","20,20,20,20,20,20,20,20","0,0,0,0,0,0,0,0","20,20,20,20,20,20,20,20","20,20,20,20,20,20,20,20","20,20,20,20,20,20,20,20","10,10,10,10,10,10,10,10","20,20,20,20,20,20,20,20","0,0,0,0,0,0,0,0","20,20,20,20,20,20,20,20","0,0,1,0,1,1,1,1","757,791,1410,1421,740,331,461,354","19.94876003703721,22.638523356178496,-45.34154501473725,4.262953803727491,-3.99077850080324,-16.997405840562166,19.542566937027107,-28.441367240843654","12.487226323226958,23.092277490050613,46.84254716714945,24.474328166764373,-9.607812645581205,16.444136997200513,-8.405821820137385,5.39367509517774","0","0"
"101","86","text","0","145","1007719","0-0","","","","","","","","","","","","","","","","","","","","","","","","","","","","","","","","","","","","",""
"","","plant-game","0","146","1013883","0-0","","200","190","1","WHEAT CROP","Left","200","120","2","THISTLE WEED","experimental","60","1,2","190,190","1,1","WHEAT CROP,CORN CROP","120,150.27676606960443","2,1","THISTLE WEED,THISTLE WEED","20,20","20,20","10,10","20,20","0,0","20,20","20,20","20,20","10,10","20,20","0,0","20,20","0,0","1106,1252","38.09184476147654,82.4195886155093","30.276766069604435,19.64060849214842","0","0"
"67","86","text","0","147","1014040","0-0","","","","","","","","","","","","","","","","","","","","","","","","","","","","","","","","","","","","",""
"","","plant-game","0","148","1025943","0-0","","200","180","8","WHEAT CROP","Left","200","160","2","THISTLE WEED","experimental","61","1,2,3,4,5,6,7,8","180,222.37193332660357,234.25367733895735,287.47566889096134,325.9452643707631,329.47816810004906,337.9215488366647,331.15710734839286","8,7,6,5,4,3,2,1","WHEAT CROP,WHEAT CROP,WHEAT CROP,WHEAT CROP,WHEAT CROP,WHEAT CROP,WHEAT CROP,WHEAT CROP","160,167.69623013003283,140,145.5540442324719,186.03761408942466,193.1746945019378,246.18570849751367,264.9532585293473","2,1,6,5,4,3,2,1","THISTLE WEED,THISTLE WEED,NETTLE WEED,NETTLE WEED,NETTLE WEED,NETTLE WEED,NETTLE WEED,NETTLE WEED","20,20,20,20,20,20,20,20","20,20,20,20,20,20,20,20","10,10,10,10,10,10,10,10","20,20,20,20,20,20,20,20","0,0,0,0,0,0,0,0","20,20,20,20,20,20,20,20","20,20,20,20,20,20,20,20","20,20,20,20,20,20,20,20","10,10,10,10,10,10,10,10","20,20,20,20,20,20,20,20","0,0,0,0,0,0,0,0","20,20,20,20,20,20,20,20","0,0,0,0,1,0,1,0","847,1788,1361,504,507,837,660,451","42.371933326603575,11.881744012353783,53.221991552004,38.46959547980174,3.5329037292859717,8.44338073661569,-6.7644414882718715,28.76917309122564","7.6962301300328395,36.69475231563372,5.554044232471913,40.48356985695276,7.137080412513144,53.01101399557587,18.767550031833608,22.119719130892786","0","0"
"913","86","text","0","149","1026988","0-0","","","","","","","","","","","","","","","","","","","","","","","","","","","","","","","","","","","","",""
"","","plant-game","0","150","1035594","0-0","","200","180","4","CORN CROP","Right","200","180","2","THISTLE WEED","experimental","62","1,2,3,4","180,203.10587323987252,180,179.02592141918063","2,1,2,1","THISTLE WEED,THISTLE WEED,NETTLE WEED,NETTLE WEED","180,210.08773366246203,209.0428780064043,212.5486317688836","4,3,2,1","CORN CROP,CORN CROP,CORN CROP,CORN CROP","0,0,0,0","20,20,20,20","10,10,10,10","20,20,20,20","20,20,20,20","20,20,20,20","0,0,0,0","20,20,20,20","10,10,10,10","20,20,20,20","20,20,20,20","20,20,20,20","1,0,1,1","1268,1480,709,407","23.10587323987252,11.55312732172466,-0.9740785808193664,-38.68254676204011","30.087733662462025,-1.0448556560577404,3.505753762479305,-0.1419292133543415","0","0"
"880","86","text","0","151","1036574","0-0","","","","","","","","","","","","","","","","","","","","","","","","","","","","","","","","","","","","",""
"","","plant-game","0","152","1041228","0-0","","200","160","2","CORN CROP","Right","200","120","2","NETTLE WEED","experimental","63","1,2","120,135.6684274875562","2,1","NETTLE WEED,NETTLE WEED","160,175.9904463153692","2,1","CORN CROP,CORN CROP","0,0","20,20","10,10","20,20","20,20","20,20","0,0","20,20","10,10","20,20","20,20","20,20","1,1","1997,463","15.668427487556189,11.44830961079805","15.990446315369212,9.799894776620393","0","0"
"493","86","text","0","153","1041801","0-0","","","","","","","","","","","","","","","","","","","","","","","","","","","","","","","","","","","","",""
"","","plant-game","0","154","1053828","0-0","","200","120","4","WHEAT CROP","Right","200","180","8","THISTLE WEED","experimental","64","1,2,3,4,5,6,7,8","180,169.60502220008098,177.78982983684938,153.28332723155665,180.04224110884718,151.1075965340222,144.63323622569888,122.2378593815757","8,7,6,5,4,3,2,1","THISTLE WEED,THISTLE WEED,THISTLE WEED,THISTLE WEED,THISTLE WEED,THISTLE WEED,THISTLE WEED,THISTLE WEED","120,96.17991664501572,103.34248870351465,112.14765432840404,160,197.5841019436645,247.92978375815176,232.17041764947723","4,3,2,1,4,3,2,1","WHEAT CROP,WHEAT CROP,WHEAT CROP,WHEAT CROP,CORN CROP,CORN CROP,CORN CROP,CORN CROP","0,0,0,0,0,0,0,0","20,20,20,20,20,20,20,20","10,10,10,10,10,10,10,10","20,20,20,20,20,20,20,20","20,20,20,20,20,20,20,20","20,20,20,20,20,20,20,20","0,0,0,0,0,0,0,0","20,20,20,20,20,20,20,20","10,10,10,10,10,10,10,10","20,20,20,20,20,20,20,20","20,20,20,20,20,20,20,20","20,20,20,20,20,20,20,20","0,1,0,1,0,1,0,1","1723,891,570,898,1603,734,785,482","-10.394977799919026,8.18480763676841,-24.50650260529271,26.75891387729052,-28.934644574824983,-6.47436030832332,-22.39537684412317,2.883827483665897","-23.82008335498428,7.16257205849892,8.805165624889398,33.083897701270104,37.5841019436645,50.34568181448725,-15.75936610867453,12.813721106084655","0","0"
"237","86","text","0","155","1054167","0-0","","","","","","","","","","","","","","","","","","","","","","","","","","","","","","","","","","","","",""
"","","plant-game","0","156","1067208","0-0","","200","180","8","CORN CROP","Right","200","180","2","NETTLE WEED","experimental","65","1,2,3,4,5,6,7,8","180,173.78350310077354,140,175.28898132822872,165.693556973343,178.1162963291332,173.8927629548425,140.85323023305338","2,1,6,5,4,3,2,1","NETTLE WEED,NETTLE WEED,THISTLE WEED,THISTLE WEED,THISTLE WEED,THISTLE WEED,THISTLE WEED,THISTLE WEED","180,220.6360908762377,260.6985834734841,257.81221763456625,275.42078716825216,278.03558002731455,302.5769752112789,301.68589774415506","8,7,6,5,4,3,2,1","CORN CROP,CORN CROP,CORN CROP,CORN CROP,CORN CROP,CORN CROP,CORN CROP,CORN CROP","0,0,0,0,0,0,0,0","20,20,20,20,20,20,20,20","10,10,10,10,10,10,10,10","20,20,20,20,20,20,20,20","20,20,20,20,20,20,20,20","20,20,20,20,20,20,20,20","0,0,0,0,0,0,0,0","20,20,20,20,20,20,20,20","10,10,10,10,10,10,10,10","20,20,20,20,20,20,20,20","20,20,20,20,20,20,20,20","20,20,20,20,20,20,20,20","0,1,1,0,1,0,0,1","1927,1588,1375,568,490,372,557,771","-6.216496899226462,12.069623293169986,35.28898132822873,-9.59542435488573,12.422739355790215,-4.223533374290698,-33.03953272178912,52.86649350757973","40.63609087623769,40.06249259724644,-2.886365838917847,17.608569533685884,2.6147928590623657,24.541395183964344,-0.8910774671238748,-9.212280423062545","0","0"
"475","86","text","0","157","1067763","0-0","","","","","","","","","","","","","","","","","","","","","","","","","","","","","","","","","","","","",""
"","","plant-game","0","158","1073665","0-0","","200","190","2","WHEAT CROP","Left","200","160","1","THISTLE WEED","experimental","66","1,2","190,198.31447276407863","2,1","WHEAT CROP,WHEAT CROP","160,190","1,1","THISTLE WEED,NETTLE WEED","20,20","20,20","10,10","20,20","0,0","20,20","20,20","20,20","10,10","20,20","0,0","20,20","0,1","1118,894","8.314472764078616,-4.037885931124031","27.723173468142154,5.085807423779903","0","0"
"440","86","text","0","159","1074205","0-0","","","","","","","","","","","","","","","","","","","","","","","","","","","","","","","","","","","","",""
"","","plant-game","0","160","1087483","0-0","","200","160","8","WHEAT CROP","Left","200","180","2","THISTLE WEED","experimental","67","1,2,3,4,5,6,7,8","160,171.16507136444346,199.7218625607714,236.1331312361642,218.69684452719503,228.1407924308535,232.77428801587735,223.32287279836993","8,7,6,5,4,3,2,1","WHEAT CROP,WHEAT CROP,WHEAT CROP,WHEAT CROP,WHEAT CROP,WHEAT CROP,WHEAT CROP,WHEAT CROP","180,196.18406784222162,140,174.00876483814972,185.41131306913556,195.62503907164222,223.26801384322906,218.05324167344097","2,1,6,5,4,3,2,1","THISTLE WEED,THISTLE WEED,NETTLE WEED,NETTLE WEED,NETTLE WEED,NETTLE WEED,NETTLE WEED,NETTLE WEED","20,20,20,20,20,20,20,20","20,20,20,20,20,20,20,20","10,10,10,10,10,10,10,10","20,20,20,20,20,20,20,20","0,0,0,0,0,0,0,0","20,20,20,20,20,20,20,20","20,20,20,20,20,20,20,20","20,20,20,20,20,20,20,20","10,10,10,10,10,10,10,10","20,20,20,20,20,20,20,20","0,0,0,0,0,0,0,0","20,20,20,20,20,20,20,20","1,1,0,1,0,0,1,0","1571,2655,1324,541,583,907,538,494","11.165071364443468,28.556791196327925,36.41126867539278,-17.43628670896916,9.44394790365848,4.633495585023837,-9.451415217507428,-32.15381571326077","16.18406784222161,20.498677372769567,34.008764838149716,11.402548230985852,10.21372600250666,27.64297477158683,-5.2147721697880876,14.151100489943943","0","0"
"386","86","text","0","161","1087959","0-0","","","","","","","","","","","","","","","","","","","","","","","","","","","","","","","","","","","","",""
"","","plant-game","0","162","1097588","0-0","","200","190","8","WHEAT CROP","Right","200","120","8","NETTLE WEED","experimental","68","1,2,3,4,5,6,7,8","120,166.1595627019894,183.08490072834283,214.04504776199852,226.2811372513699,255.25288216372203,291.1436794513889,290.3040367117291","8,7,6,5,4,3,2,1","NETTLE WEED,NETTLE WEED,NETTLE WEED,NETTLE WEED,NETTLE WEED,NETTLE WEED,NETTLE WEED,NETTLE WEED","190,243.2750495588787,242.95884649461783,236.65281539823044,229.4330131580257,263.3150078067592,302.71121556142896,319.9253910662963","8,7,6,5,4,3,2,1","WHEAT CROP,WHEAT CROP,WHEAT CROP,WHEAT CROP,WHEAT CROP,WHEAT CROP,WHEAT CROP,WHEAT CROP","0,0,0,0,0,0,0,0","20,20,20,20,20,20,20,20","10,10,10,10,10,10,10,10","20,20,20,20,20,20,20,20","20,20,20,20,20,20,20,20","20,20,20,20,20,20,20,20","0,0,0,0,0,0,0,0","20,20,20,20,20,20,20,20","10,10,10,10,10,10,10,10","20,20,20,20,20,20,20,20","20,20,20,20,20,20,20,20","20,20,20,20,20,20,20,20","1,0,1,0,1,1,1,1","1329,847,695,1741,528,566,447,401","46.15956270198937,16.925338026353444,30.96014703365568,12.236089489371395,28.971744912352147,35.89079728766688,-0.8396427396597588,18.5151320064954","53.275049558878685,-0.31620306426084926,-6.306031096387386,-7.219802240204768,33.88199464873348,39.39620775466978,17.21417550486734,54.16747670936911","0","0"
"360","86","text","0","163","1098058","0-0","","","","","","","","","","","","","","","","","","","","","","","","","","","","","","","","","","","","",""
"","","plant-game","0","164","1108932","0-0","","200","160","4","WHEAT CROP","Right","200","160","2","NETTLE WEED","experimental","69","1,2,3,4","160,228.96688936824754,180,216.9296662591617","2,1,2,1","NETTLE WEED,NETTLE WEED,THISTLE WEED,THISTLE WEED","160,177.6479333561566,198.32233089070257,236.5177011761306","4,3,2,1","WHEAT CROP,WHEAT CROP,WHEAT CROP,WHEAT CROP","0,0,0,0","20,20,20,20","10,10,10,10","20,20,20,20","20,20,20,20","20,20,20,20","0,0,0,0","20,20,20,20","10,10,10,10","20,20,20,20","20,20,20,20","20,20,20,20","1,0,1,0","1446,1640,2086,1244","68.96688936824754,-15.0579462264376,36.92966625916172,17.926879693428713","17.647933356156607,20.67439753454597,38.19537028542802,2.3959385372411535","0","0"
"719","86","text","0","165","1109739","0-0","","","","","","","","","","","","","","","","","","","","","","","","","","","","","","","","","","","","",""
"","","plant-game","0","166","1119684","0-0","","200","160","1","WHEAT CROP","Left","200","120","8","THISTLE WEED","experimental","70","1,2,3,4,5,6,7,8","160,130,158.92172786697387,169.18186574751812,151.28452828653678,167.42287109744967,186.04193078050596,179.45480843822554","1,7,6,5,4,3,2,1","WHEAT CROP,CORN CROP,CORN CROP,CORN CROP,CORN CROP,CORN CROP,CORN CROP,CORN CROP","120,146.65562288269933,154.10927622720754,193.51251795665036,241.16088355599268,270.92991604743315,316.10440180968,350.49126443093814","8,7,6,5,4,3,2,1","THISTLE WEED,THISTLE WEED,THISTLE WEED,THISTLE WEED,THISTLE WEED,THISTLE WEED,THISTLE WEED,THISTLE WEED","20,20,20,20,20,20,20,20","20,20,20,20,20,20,20,20","10,10,10,10,10,10,10,10","20,20,20,20,20,20,20,20","0,0,0,0,0,0,0,0","20,20,20,20,20,20,20,20","20,20,20,20,20,20,20,20","20,20,20,20,20,20,20,20","10,10,10,10,10,10,10,10","20,20,20,20,20,20,20,20","0,0,0,0,0,0,0,0","20,20,20,20,20,20,20,20","0,0,0,1,0,0,1,0","1720,1185,892,767,560,452,145,191","-4.372110083691993,28.92172786697386,10.260137880544258,-17.89733746098133,16.138342810912874,18.619059683056303,-6.58712234228042,63.77695389448293","26.655622882699323,7.453653344508208,39.40324172944281,47.64836559934233,29.769032491440477,45.17448576224685,34.386862621258146,-25.778379794494725","0","0"
"257","86","text","0","167","1120011","0-0","","","","","","","","","","","","","","","","","","","","","","","","","","","","","","","","","","","","",""
"","","plant-game","0","168","1125945","0-0","","200","190","2","CORN CROP","Right","200","190","1","NETTLE WEED","experimental","71","1,2","190,190","1,1","NETTLE WEED,THISTLE WEED","190,227.49411426711347","2,1","CORN CROP,CORN CROP","0,0","20,20","10,10","20,20","20,20","20,20","0,0","20,20","10,10","20,20","20,20","20,20","1,0","1312,1301","41.182393415205254,14.736737912187374","37.494114267113474,-1.8403051694623664","0","0"
"348","86","text","0","169","1126393","0-0","","","","","","","","","","","","","","","","","","","","","","","","","","","","","","","","","","","","",""
"","","plant-game","0","170","1133722","0-0","","200","190","4","CORN CROP","Left","200","180","1","NETTLE WEED","experimental","72","1,2,3,4","190,192.79952772926666,180.7540354920557,147.5581930480858","4,3,2,1","CORN CROP,CORN CROP,CORN CROP,CORN CROP","180,170,209.3381362356479,201.9796869422241","1,3,2,1","NETTLE WEED,THISTLE WEED,THISTLE WEED,THISTLE WEED","20,20,20,20","20,20,20,20","10,10,10,10","20,20,20,20","0,0,0,0","20,20,20,20","20,20,20,20","20,20,20,20","10,10,10,10","20,20,20,20","0,0,0,0","20,20,20,20","1,0,1,1","825,933,1048,265","2.7995277292666603,-12.045492237210958,-33.19584244396991,29.107035497955216","6.005139678030959,39.338136235647916,-7.358449293423796,14.23433943407289","0","0"
"74","86","text","0","171","1133866","0-0","","","","","","","","","","","","","","","","","","","","","","","","","","","","","","","","","","","","",""
"","","plant-game","0","172","1137816","0-0","","200","160","8","WHEAT CROP","Left","200","180","8","THISTLE WEED","experimental","73","1,2,3,4,5,6,7,8","160,169.10530050706646,177.2118559624773,203.81612495355895,208.39130942944746,171.09220234829758,156.81674157414437,170.4163271757747","8,7,6,5,4,3,2,1","WHEAT CROP,WHEAT CROP,WHEAT CROP,WHEAT CROP,WHEAT CROP,WHEAT CROP,WHEAT CROP,WHEAT CROP","180,215.19516040587243,215.96358709120207,189.20454174860222,164.71699648016286,172.4712892987398,179.25480059498616,156.15872341877574","8,7,6,5,4,3,2,1","THISTLE WEED,THISTLE WEED,THISTLE WEED,THISTLE WEED,THISTLE WEED,THISTLE WEED,THISTLE WEED,THISTLE WEED","20,20,20,20,20,20,20,20","20,20,20,20,20,20,20,20","10,10,10,10,10,10,10,10","20,20,20,20,20,20,20,20","0,0,0,0,0,0,0,0","20,20,20,20,20,20,20,20","20,20,20,20,20,20,20,20","20,20,20,20,20,20,20,20","10,10,10,10,10,10,10,10","20,20,20,20,20,20,20,20","0,0,0,0,0,0,0,0","20,20,20,20,20,20,20,20","1,1,1,1,1,1,1,1","490,88,276,53,70,73,70,107","9.105300507066472,8.106555455410847,26.60426899108165,4.575184475888511,-37.2991070811499,-14.275460774153188,13.59958560163034,17.196943976517606","35.19516040587243,0.768426685329653,-26.75904534259984,-24.487545268439355,7.754292818576932,6.783511296246346,-23.09607717621043,3.890723637520897","0","0"
"2382","86","text","0","173","1140288","0-0","","","","","","","","","","","","","","","","","","","","","","","","","","","","","","","","","","","","",""
"","","plant-game","0","174","1147320","0-0","","200","160","1","WHEAT CROP","Right","200","190","2","THISTLE WEED","experimental","74","1,2","190,229.20546084739522","2,1","THISTLE WEED,THISTLE WEED","160,190","1,1","WHEAT CROP,CORN CROP","0,0","20,20","10,10","20,20","20,20","20,20","0,0","20,20","10,10","20,20","20,20","20,20","1,0","1736,791","39.20546084739523,11.117193592311388","16.109602220628545,-2.0470017861817897","0","0"
"387","86","text","0","175","1147847","0-0","","","","","","","","","","","","","","","","","","","","","","","","","","","","","","","","","","","","",""
"","","plant-game","0","176","1154095","0-0","","200","160","2","CORN CROP","Left","200","160","2","THISTLE WEED","experimental","75","1,2","160,198.21501884401994","2,1","CORN CROP,CORN CROP","160,201.84777509762876","2,1","THISTLE WEED,THISTLE WEED","20,20","20,20","10,10","20,20","0,0","20,20","20,20","20,20","10,10","20,20","0,0","20,20","0,1","1202,1292","38.215018844019944,23.07793168960773","41.84777509762876,-45.735335916569476","0","0"
"2348","86","text","0","177","1156563","0-0","","","","","","","","","","","","","","","","","","","","","","","","","","","","","","","","","","","","",""
"","","plant-game","0","178","1165115","0-0","","200","120","2","WHEAT CROP","Left","200","160","1","NETTLE WEED","experimental","76","1,2","120,110.80894587603046","2,1","WHEAT CROP,WHEAT CROP","160,190","1,1","NETTLE WEED,THISTLE WEED","20,20","20,20","10,10","20,20","0,0","20,20","20,20","20,20","10,10","20,20","0,0","20,20","1,1","1609,740","-9.191054123969543,13.888173362672905","8.275953828283631,-22.343815085279264","0","0"
"333","86","text","0","179","1165538","0-0","","","","","","","","","","","","","","","","","","","","","","","","","","","","","","","","","","","","",""
"","","plant-game","0","180","1177708","0-0","","200","190","8","WHEAT CROP","Left","200","180","4","THISTLE WEED","experimental","77","1,2,3,4,5,6,7,8","190,170.88075242072046,206.383225383126,211.99179578059952,252.7177412720987,283.8252534577132,300.2048448156088,321.29862183171053","8,7,6,5,4,3,2,1","WHEAT CROP,WHEAT CROP,WHEAT CROP,WHEAT CROP,WHEAT CROP,WHEAT CROP,WHEAT CROP,WHEAT CROP","180,171.44620143200038,189.41332220855233,209.96124923392165,160,192.5188173997966,198.5651712252366,203.88581420091668","4,3,2,1,4,3,2,1","THISTLE WEED,THISTLE WEED,THISTLE WEED,THISTLE WEED,NETTLE WEED,NETTLE WEED,NETTLE WEED,NETTLE WEED","20,20,20,20,20,20,20,20","20,20,20,20,20,20,20,20","10,10,10,10,10,10,10,10","20,20,20,20,20,20,20,20","0,0,0,0,0,0,0,0","20,20,20,20,20,20,20,20","20,20,20,20,20,20,20,20","20,20,20,20,20,20,20,20","10,10,10,10,10,10,10,10","20,20,20,20,20,20,20,20","0,0,0,0,0,0,0,0","20,20,20,20,20,20,20,20","1,0,1,0,0,1,0,1","1577,929,1324,855,755,428,912,427","-19.119247579279538,35.50247296240554,5.608570397473537,40.72594549149919,31.10751218561451,16.37959135789558,21.093777016101736,-16.05931513609361","-8.55379856799962,17.967120776551944,20.547927025369322,4.283277363879305,32.5188173997966,6.046353825440013,5.320642975680061,-7.779962528501622","0","0"
"464","86","text","0","181","1178282","0-0","","","","","","","","","","","","","","","","","","","","","","","","","","","","","","","","","","","","",""
"","","plant-game","0","182","1187448","0-0","","200","190","4","CORN CROP","Right","200","160","2","THISTLE WEED","experimental","78","1,2,3,4","160,214.39986235437496,180,200.34291998021703","2,1,2,1","THISTLE WEED,THISTLE WEED,NETTLE WEED,NETTLE WEED","190,224.1917116872841,196.44571668562662,194.3467214970251","4,3,2,1","CORN CROP,CORN CROP,CORN CROP,CORN CROP","0,0,0,0","20,20,20,20","10,10,10,10","20,20,20,20","20,20,20,20","20,20,20,20","0,0,0,0","20,20,20,20","10,10,10,10","20,20,20,20","20,20,20,20","20,20,20,20","1,0,1,0","2301,645,1004,704","54.39986235437496,15.507847228775587,20.342919980217022,26.144572466365673","34.191711687284126,-27.745995001657477,-2.098995188601535,-4.418750590256486","0","0"
"58","86","text","0","183","1187616","0-0","","","","","","","","","","","","","","","","","","","","","","","","","","","","","","","","","","","","",""
"","","plant-game","0","184","1194609","0-0","","200","180","2","WHEAT CROP","Right","200","190","4","THISTLE WEED","experimental","79","1,2,3,4","190,217.00958729245562,227.78550561005574,266.9355812250588","4,3,2,1","THISTLE WEED,THISTLE WEED,THISTLE WEED,THISTLE WEED","180,207.49820130667536,180,219.87002632126269","2,1,2,1","WHEAT CROP,WHEAT CROP,CORN CROP,CORN CROP","0,0,0,0","20,20,20,20","10,10,10,10","20,20,20,20","20,20,20,20","20,20,20,20","0,0,0,0","20,20,20,20","10,10,10,10","20,20,20,20","20,20,20,20","20,20,20,20","1,0,1,1","520,894,1075,891","27.00958729245562,10.775918317600109,39.150075615003054,29.787943225483048","27.49820130667536,-31.799430912166947,39.870026321262685,20.62888782719154","0","0"
"520","86","text","0","185","1195259","0-0","","","","","","","","","","","","","","","","","","","","","","","","","","","","","","","","","","","","",""
