"rt","key_press","trial_type","trial_index","trial_index_global","time_elapsed","internal_chunk_id","responses","experimental_goal_height","experimental_start_height","experimental_weeks_total","experimental_crop_type","experimental_crop_side","fixed_goal_height","fixed_start_height","fixed_weeks_total","fixed_crop_type","trial_kind","trial_number","stage","left_current_height","left_weeks_remaining","left_crop_type","right_current_height","right_weeks_remaining","right_crop_type","mean_left_growth_given_left","sd_left_growth_given_left","mean_left_growth_given_middle","sd_left_growth_given_middle","mean_left_growth_given_right","sd_left_growth_given_right","mean_right_growth_given_left","sd_right_growth_given_left","mean_right_growth_given_middle","sd_right_growth_given_middle","mean_right_growth_given_right","sd_right_growth_given_right","response","response_time","left_growth","right_growth","other_key_pressed","mouse_clicked"
"3491554","77","text","0","0","3491634","0-0","","","","","","","","","","","","","","","","","","","","","","","","","","","","","","","","","","","","",""
"4725","","survey-text","0","1","3497370","0-0","{""Q0"":""19""}","","","","","","","","","","","","","","","","","","","","","","","","","","","","","","","","","","","",""
"3191","86","text","0","2","3285","0-0","","","","","","","","","","","","","","","","","","","","","","","","","","","","","","","","","","","","",""
"","","plant-game","0","3","60107","0-0","","200","120","8","WHEAT CROP","Right","200","120","8","THISTLE WEED","practice","1","1,2,3,4,5,6,7,8","120,121.91312875203207,141.04269414961902,155.4088827280141,195.18945423619323,225.84149973546897,238.6313605091734,263.866057626733","8,7,6,5,4,3,2,1","THISTLE WEED,THISTLE WEED,THISTLE WEED,THISTLE WEED,THISTLE WEED,THISTLE WEED,THISTLE WEED,THISTLE WEED","120,159.2910694515233,167.54424694664723,153.56264581339295,175.95708214306248,157.71643843953365,184.6261953577416,205.63871420226158","8,7,6,5,4,3,2,1","WHEAT CROP,WHEAT CROP,WHEAT CROP,WHEAT CROP,WHEAT CROP,WHEAT CROP,WHEAT CROP,WHEAT CROP","0,0,0,0,0,0,0,0","20,20,20,20,20,20,20,20","10,10,10,10,10,10,10,10","20,20,20,20,20,20,20,20","20,20,20,20,20,20,20,20","20,20,20,20,20,20,20,20","0,0,0,0,0,0,0,0","20,20,20,20,20,20,20,20","10,10,10,10,10,10,10,10","20,20,20,20,20,20,20,20","20,20,20,20,20,20,20,20","20,20,20,20,20,20,20,20","1,0,0,1,0,1,1,0","8955,3440,1993,1355,1390,3621,1467,1529","1.913128752032069,19.129565397586966,14.366188578395073,39.780571508179136,30.652045499275744,12.789860773704428,25.234697117559577,-25.04759690402798","39.29106945152329,8.253177495123934,-13.981601133254284,22.394436329669524,-18.240643703528818,26.909756918207965,21.012518844519985,2.825444689921915","0","2"
"825","86","text","0","4","61012","0-0","","","","","","","","","","","","","","","","","","","","","","","","","","","","","","","","","","","","",""
"","","plant-game","0","5","93731","0-0","","200","160","4","WHEAT CROP","Left","200","160","4","NETTLE WEED","practice","2","1,2,3,4","160,185.0495541189056,197.4866504173366,247.22754829184606","4,3,2,1","WHEAT CROP,WHEAT CROP,WHEAT CROP,WHEAT CROP","160,230.70241704364872,255.93886564023748,298.14708304436607","4,3,2,1","NETTLE WEED,NETTLE WEED,NETTLE WEED,NETTLE WEED","20,20,20,20","20,20,20,20","10,10,10,10","20,20,20,20","0,0,0,0","20,20,20,20","20,20,20,20","20,20,20,20","10,10,10,10","20,20,20,20","0,0,0,0","20,20,20,20","0,0,0,1","1025,5155,393,8693","25.049554118905597,12.437096298430998,49.740897874509486,6.64970602076678","70.70241704364872,25.236448596588765,42.2082174041286,7.283725605874097","0","0"
"722","86","text","0","6","94573","0-0","","","","","","","","","","","","","","","","","","","","","","","","","","","","","","","","","","","","",""
"","","plant-game","0","7","115035","0-0","","200","180","2","WHEAT CROP","Left","200","180","2","THISTLE WEED","practice","3","1,2","180,167.76818274265085","2,1","WHEAT CROP,WHEAT CROP","180,175.77412367061189","2,1","THISTLE WEED,THISTLE WEED","20,20","20,20","10,10","20,20","0,0","20,20","20,20","20,20","10,10","20,20","0,0","20,20","1,0","852,3603","-12.231817257349162,58.03090426440951","-4.22587632938811,4.937584856818386","0","0"
"2111","86","text","0","8","117236","0-0","","","","","","","","","","","","","","","","","","","","","","","","","","","","","","","","","","","","",""
"","","plant-game","0","9","150399","0-0","","200","190","1","CORN CROP","Right","200","190","1","THISTLE WEED","practice","4","1","190","1","THISTLE WEED","190","1","CORN CROP","0","20","10","20","20","20","0","20","10","20","20","20","1","16583","-29.53637023811506","35.46416028085085","0","0"
"1569","86","text","0","10","152088","0-0","","","","","","","","","","","","","","","","","","","","","","","","","","","","","","","","","","","","",""
"","","plant-game","0","11","185731","0-0","","200","120","8","CORN CROP","Left","200","160","8","THISTLE WEED","practice","5","1,2,3,4,5,6,7,8","120,147.31429951780976,154.000295793842,217.74847273321882,238.70192235706662,248.0454641846814,251.8669674074805,290.23625089925633","8,7,6,5,4,3,2,1","CORN CROP,CORN CROP,CORN CROP,CORN CROP,CORN CROP,CORN CROP,CORN CROP,CORN CROP","160,132.22594770259724,142.16994450591602,193.73326403206806,227.46539769339986,251.71431342574667,278.0308801085997,274.6975670279374","8,7,6,5,4,3,2,1","THISTLE WEED,THISTLE WEED,THISTLE WEED,THISTLE WEED,THISTLE WEED,THISTLE WEED,THISTLE WEED,THISTLE WEED","20,20,20,20,20,20,20,20","20,20,20,20,20,20,20,20","10,10,10,10,10,10,10,10","20,20,20,20,20,20,20,20","0,0,0,0,0,0,0,0","20,20,20,20,20,20,20,20","20,20,20,20,20,20,20,20","20,20,20,20,20,20,20,20","10,10,10,10,10,10,10,10","20,20,20,20,20,20,20,20","0,0,0,0,0,0,0,0","20,20,20,20,20,20,20,20","1,0,0,1,1,1,0,0","527,2522,1419,4200,1754,823,1293,1497","27.314299517809758,6.6859962760322595,63.7481769393768,20.953449623847792,9.343541827614784,3.82150322279909,38.36928349177584,-6.3215524163689025","-27.77405229740275,9.943996803318791,51.56331952615204,33.732133661331794,24.2489157323468,26.316566682853065,-3.333313080662343,17.17557770237423","0","1"
"648","86","text","0","12","186479","0-0","","","","","","","","","","","","","","","","","","","","","","","","","","","","","","","","","","","","",""
"","","plant-game","0","13","206220","0-0","","200","180","4","CORN CROP","Left","200","160","4","NETTLE WEED","practice","6","1,2,3,4","180,219.29492976865856,214.5804733964734,217.87767136882462","4,3,2,1","CORN CROP,CORN CROP,CORN CROP,CORN CROP","160,158.9313273377099,167.92780185178896,191.63801953023048","4,3,2,1","NETTLE WEED,NETTLE WEED,NETTLE WEED,NETTLE WEED","20,20,20,20","20,20,20,20","10,10,10,10","20,20,20,20","0,0,0,0","20,20,20,20","20,20,20,20","20,20,20,20","10,10,10,10","20,20,20,20","0,0,0,0","20,20,20,20","0,1,1,1","476,2656,885,1727","39.29492976865857,-4.714456372185164,3.2971979723512392,-29.94783205628319","-1.0686726622901261,8.996474514079063,23.71021767844152,4.366769576644877","0","0"
"1404","86","text","0","14","207704","0-0","","","","","","","","","","","","","","","","","","","","","","","","","","","","","","","","","","","","",""
"","","plant-game","0","15","221036","0-0","","200","180","2","CORN CROP","Left","200","190","2","THISTLE WEED","practice","7","1,2","180,129.0356435038191","2,1","CORN CROP,CORN CROP","190,206.80826661636362","2,1","THISTLE WEED,THISTLE WEED","20,20","20,20","10,10","20,20","0,0","20,20","20,20","20,20","10,10","20,20","0,0","20,20","1,0","658,3063","-50.9643564961809,38.74448876220008","16.808266616363614,60.59174131283899","0","0"
"558","86","text","0","16","221674","0-0","","","","","","","","","","","","","","","","","","","","","","","","","","","","","","","","","","","","",""
"","","plant-game","0","17","276780","0-0","","200","120","4","CORN CROP","Right","200","120","8","THISTLE WEED","practice","8","1,2,3,4,5,6,7,8","120,82.43656826339759,147.82200938896943,202.33288550416893,219.56462478467515,270.7671684715494,262.81793868531815,246.15465334648042","8,7,6,5,4,3,2,1","THISTLE WEED,THISTLE WEED,THISTLE WEED,THISTLE WEED,THISTLE WEED,THISTLE WEED,THISTLE WEED,THISTLE WEED","120,113.18885692575894,117.0741717091256,141.8398282386867,160,163.77218997843295,164.00058443981914,129.4705973137279","4,3,2,1,4,3,2,1","CORN CROP,CORN CROP,CORN CROP,CORN CROP,WHEAT CROP,WHEAT CROP,WHEAT CROP,WHEAT CROP","0,0,0,0,0,0,0,0","20,20,20,20,20,20,20,20","10,10,10,10,10,10,10,10","20,20,20,20,20,20,20,20","20,20,20,20,20,20,20,20","20,20,20,20,20,20,20,20","0,0,0,0,0,0,0,0","20,20,20,20,20,20,20,20","10,10,10,10,10,10,10,10","20,20,20,20,20,20,20,20","20,20,20,20,20,20,20,20","20,20,20,20,20,20,20,20","0,1,1,1,0,0,0,0","3498,3059,8765,1326,5610,675,354,10006","-37.5634317366024,65.38544112557184,54.51087611519951,17.23173928050622,51.20254368687426,-7.949229786231204,-16.663285338837728,-7.379805939179808","-6.811143074241057,3.885314783366649,24.765656529561095,-22.405204968134107,3.772189978432948,0.2283944613861759,-34.52998712609125,-11.394399530445263","0","0"
"483","86","text","0","18","277341","0-0","","","","","","","","","","","","","","","","","","","","","","","","","","","","","","","","","","","","",""
"","","plant-game","0","19","307010","0-0","","200","160","4","WHEAT CROP","Right","200","160","2","THISTLE WEED","practice","9","1,2,3,4","160,164.30524808897374,180,176.58124417156856","2,1,2,1","THISTLE WEED,THISTLE WEED,NETTLE WEED,NETTLE WEED","160,170.25420527054945,177.50708593995395,229.0204176825224","4,3,2,1","WHEAT CROP,WHEAT CROP,WHEAT CROP,WHEAT CROP","0,0,0,0","20,20,20,20","10,10,10,10","20,20,20,20","20,20,20,20","20,20,20,20","0,0,0,0","20,20,20,20","10,10,10,10","20,20,20,20","20,20,20,20","20,20,20,20","0,0,1,1","400,816,3219,3652","4.305248088973738,23.905946858168367,-3.418755828431447,11.309118315391917","10.254205270549441,7.2528806694045045,51.51333174256844,21.569863431779563","0","0"
"497","86","text","0","20","307607","0-0","","","","","","","","","","","","","","","","","","","","","","","","","","","","","","","","","","","","",""
"","","plant-game","0","21","334124","0-0","","200","180","2","WHEAT CROP","Left","200","180","1","NETTLE WEED","practice","10","1,2","180,213.89926111156709","2,1","WHEAT CROP,WHEAT CROP","180,190","1,1","NETTLE WEED,THISTLE WEED","20,20","20,20","10,10","20,20","0,0","20,20","20,20","20,20","10,10","20,20","0,0","20,20","1,1","10745,2797","33.89926111156709,-26.479125249827305","0.4056450807733766,-12.872892659808361","0","0"
"641","86","text","0","22","334865","0-0","","","","","","","","","","","","","","","","","","","","","","","","","","","","","","","","","","","","",""
"","","plant-game","0","23","369933","0-0","","200","120","8","WHEAT CROP","Right","200","160","4","THISTLE WEED","practice","11","1,2,3,4,5,6,7,8","160,141.0978602605392,179.56932859617402,184.10646142514264,160,176.73904316206733,214.18037849298005,230.27220481026507","4,3,2,1,4,3,2,1","THISTLE WEED,THISTLE WEED,THISTLE WEED,THISTLE WEED,NETTLE WEED,NETTLE WEED,NETTLE WEED,NETTLE WEED","120,125.71822871533034,95.16629657608662,125.74437346065268,130.17105869116338,143.39236485982144,161.9393347944063,159.21473029356343","8,7,6,5,4,3,2,1","WHEAT CROP,WHEAT CROP,WHEAT CROP,WHEAT CROP,WHEAT CROP,WHEAT CROP,WHEAT CROP,WHEAT CROP","0,0,0,0,0,0,0,0","20,20,20,20,20,20,20,20","10,10,10,10,10,10,10,10","20,20,20,20,20,20,20,20","20,20,20,20,20,20,20,20","20,20,20,20,20,20,20,20","0,0,0,0,0,0,0,0","20,20,20,20,20,20,20,20","10,10,10,10,10,10,10,10","20,20,20,20,20,20,20,20","20,20,20,20,20,20,20,20","20,20,20,20,20,20,20,20","0,0,1,0,0,1,0,1","4148,1294,1982,2945,2480,1995,2248,3129","-18.902139739460818,38.471468335634825,4.5371328289686375,12.435863974397503,16.739043162067347,37.44133533091273,16.09182631728502,50.81449641686288","5.718228715330337,-30.551932139243718,30.578076884566062,4.42668523051069,13.221306168658064,18.546969934584872,-2.7246045008428803,19.61749066736865","0","0"
"504","86","text","0","24","370507","0-0","","","","","","","","","","","","","","","","","","","","","","","","","","","","","","","","","","","","",""
"","","plant-game","0","25","412692","0-0","","200","180","2","CORN CROP","Left","200","160","4","THISTLE WEED","practice","12","1,2,3,4","180,201.80350565558106,180,196.70848800506167","2,1,2,1","CORN CROP,CORN CROP,WHEAT CROP,WHEAT CROP","160,172.7886563569699,180.28911837895953,195.98600409884187","4,3,2,1","THISTLE WEED,THISTLE WEED,THISTLE WEED,THISTLE WEED","20,20,20,20","20,20,20,20","10,10,10,10","20,20,20,20","0,0,0,0","20,20,20,20","20,20,20,20","20,20,20,20","10,10,10,10","20,20,20,20","0,0,0,0","20,20,20,20","0,0,0,1","6252,1788,8612,1990","21.803505655581056,11.049377243660935,16.708488005061675,-1.598297261784454","12.788656356969907,7.500462021989618,15.696885719882342,-26.928013599961393","0","0"
"1040","86","text","0","26","413856","0-0","","","","","","","","","","","","","","","","","","","","","","","","","","","","","","","","","","","","",""
"5496","86","text","0","27","420494","0-0","","","","","","","","","","","","","","","","","","","","","","","","","","","","","","","","","","","","",""
"","","plant-game","0","28","443183","0-0","","200","160","2","CORN CROP","Right","200","180","1","THISTLE WEED","experimental","1","1,2","180,190","1,1","THISTLE WEED,NETTLE WEED","160,179.65668892145504","2,1","CORN CROP,CORN CROP","0,0","20,20","10,10","20,20","20,20","20,20","0,0","20,20","10,10","20,20","20,20","20,20","0,1","8083,5200","-41.27242114785662,5.158667491966732","19.656688921455036,1.8675097265778042","0","0"
"515","86","text","0","29","443807","0-0","","","","","","","","","","","","","","","","","","","","","","","","","","","","","","","","","","","","",""
"","","plant-game","0","30","464759","0-0","","200","160","2","WHEAT CROP","Left","200","160","1","THISTLE WEED","experimental","2","1,2","160,157.19333073383618","2,1","WHEAT CROP,WHEAT CROP","160,190","1,1","THISTLE WEED,NETTLE WEED","20,20","20,20","10,10","20,20","0,0","20,20","20,20","20,20","10,10","20,20","0,0","20,20","1,0","7055,3461","-2.8066692661638144,13.402636742427985","9.874670526214906,51.204437345592254","0","0"
"608","86","text","0","31","465446","0-0","","","","","","","","","","","","","","","","","","","","","","","","","","","","","","","","","","","","",""
"","","plant-game","0","32","496325","0-0","","200","160","8","CORN CROP","Left","200","180","4","THISTLE WEED","experimental","3","1,2,3,4,5,6,7,8","160,156.63978037878817,185.28638727929513,169.55988712240958,129.9327941069237,163.6888406523799,194.09100378684684,211.85582992984132","8,7,6,5,4,3,2,1","CORN CROP,CORN CROP,CORN CROP,CORN CROP,CORN CROP,CORN CROP,CORN CROP,CORN CROP","180,157.1846957699243,143.67598167584651,124.60064166777497,160,189.18052629535651,193.40476255197078,175.9627122586926","4,3,2,1,4,3,2,1","THISTLE WEED,THISTLE WEED,THISTLE WEED,THISTLE WEED,NETTLE WEED,NETTLE WEED,NETTLE WEED,NETTLE WEED","20,20,20,20,20,20,20,20","20,20,20,20,20,20,20,20","10,10,10,10,10,10,10,10","20,20,20,20,20,20,20,20","0,0,0,0,0,0,0,0","20,20,20,20,20,20,20,20","20,20,20,20,20,20,20,20","20,20,20,20,20,20,20,20","10,10,10,10,10,10,10,10","20,20,20,20,20,20,20,20","0,0,0,0,0,0,0,0","20,20,20,20,20,20,20,20","1,1,1,1,0,1,1,1","7693,974,1119,1352,1815,1324,5476,2262","-3.3602196212118325,28.64660690050696,-15.726500156885546,-39.62709301548589,33.75604654545621,30.402163134466946,17.764826142994494,-20.382275004505914","-22.8153042300757,-13.508714094077776,-19.075340008071553,6.863336507388307,29.18052629535652,4.224236256614264,-17.44205029327819,-13.35444744550561","0","0"
"603","86","text","0","33","497038","0-0","","","","","","","","","","","","","","","","","","","","","","","","","","","","","","","","","","","","",""
"","","plant-game","0","34","527623","0-0","","200","160","4","CORN CROP","Left","200","180","8","THISTLE WEED","experimental","4","1,2,3,4,5,6,7,8","160,144.70796184055524,144.169104281227,141.47147026898102,160,174.73720363624693,175.88226038344004,219.47704058779095","4,3,2,1,4,3,2,1","CORN CROP,CORN CROP,CORN CROP,CORN CROP,WHEAT CROP,WHEAT CROP,WHEAT CROP,WHEAT CROP","180,183.67976463556982,188.0850445479696,220.96596055604306,246.51043505232582,285.21600591708307,263.7671661430759,273.58912433643167","8,7,6,5,4,3,2,1","THISTLE WEED,THISTLE WEED,THISTLE WEED,THISTLE WEED,THISTLE WEED,THISTLE WEED,THISTLE WEED,THISTLE WEED","20,20,20,20,20,20,20,20","20,20,20,20,20,20,20,20","10,10,10,10,10,10,10,10","20,20,20,20,20,20,20,20","0,0,0,0,0,0,0,0","20,20,20,20,20,20,20,20","20,20,20,20,20,20,20,20","20,20,20,20,20,20,20,20","10,10,10,10,10,10,10,10","20,20,20,20,20,20,20,20","0,0,0,0,0,0,0,0","20,20,20,20,20,20,20,20","1,1,0,0,0,0,0,1","6106,60,3430,81,4773,1152,1398,1406","-15.292038159444758,-0.5388575593282477,-2.697634012245956,-6.240505622934023,14.737203636246928,1.1450567471931166,43.5947802043509,-8.011924617881181","3.679764635569816,4.405279912399777,32.88091600807344,25.544474496282746,38.70557086475724,-21.448839774007183,9.821958193355766,11.466904583327919","0","0"
"533","86","text","0","35","528276","0-0","","","","","","","","","","","","","","","","","","","","","","","","","","","","","","","","","","","","",""
"","","plant-game","0","36","553595","0-0","","200","160","8","WHEAT CROP","Right","200","180","8","THISTLE WEED","experimental","5","1,2,3,4,5,6,7,8","180,199.91704742825675,222.05492378478428,194.56660170057899,183.41808013653602,159.28392493563447,130.75441532420285,172.49887912961952","8,7,6,5,4,3,2,1","THISTLE WEED,THISTLE WEED,THISTLE WEED,THISTLE WEED,THISTLE WEED,THISTLE WEED,THISTLE WEED,THISTLE WEED","160,196.28062842680907,215.13871441766025,234.97564865382594,237.26192241142957,238.49435315415857,218.72950565326676,202.88493816961872","8,7,6,5,4,3,2,1","WHEAT CROP,WHEAT CROP,WHEAT CROP,WHEAT CROP,WHEAT CROP,WHEAT CROP,WHEAT CROP,WHEAT CROP","0,0,0,0,0,0,0,0","20,20,20,20,20,20,20,20","10,10,10,10,10,10,10,10","20,20,20,20,20,20,20,20","20,20,20,20,20,20,20,20","20,20,20,20,20,20,20,20","0,0,0,0,0,0,0,0","20,20,20,20,20,20,20,20","10,10,10,10,10,10,10,10","20,20,20,20,20,20,20,20","20,20,20,20,20,20,20,20","20,20,20,20,20,20,20,20","0,1,0,0,0,0,1,1","2825,4189,1797,3407,1542,960,2528,2537","19.917047428256737,22.137876356527535,-27.488322084205286,-11.148521564042968,-24.134155200901546,-28.529509611431607,41.74446380541667,22.580706677628104","36.28062842680906,18.858085990851194,19.836934236165703,2.286273757603618,1.2324307427290002,-19.76484750089181,-15.844567483648035,17.710864029738214","0","0"
"616","86","text","0","37","554305","0-0","","","","","","","","","","","","","","","","","","","","","","","","","","","","","","","","","","","","",""
"","","plant-game","0","38","575007","0-0","","200","120","8","WHEAT CROP","Right","200","160","8","THISTLE WEED","experimental","6","1,2,3,4,5,6,7,8","160,133.99689197996503,156.2137336705263,168.57073397416508,164.12404230291042,171.66152831331308,163.36265451111282,161.71528635457142","8,7,6,5,4,3,2,1","THISTLE WEED,THISTLE WEED,THISTLE WEED,THISTLE WEED,THISTLE WEED,THISTLE WEED,THISTLE WEED,THISTLE WEED","120,182.00141210453046,190.05241469319157,224.03155821937605,195.8850549222871,239.90327580685738,235.30909901293353,233.6675542982624","8,7,6,5,4,3,2,1","WHEAT CROP,WHEAT CROP,WHEAT CROP,WHEAT CROP,WHEAT CROP,WHEAT CROP,WHEAT CROP,WHEAT CROP","0,0,0,0,0,0,0,0","20,20,20,20,20,20,20,20","10,10,10,10,10,10,10,10","20,20,20,20,20,20,20,20","20,20,20,20,20,20,20,20","20,20,20,20,20,20,20,20","0,0,0,0,0,0,0,0","20,20,20,20,20,20,20,20","10,10,10,10,10,10,10,10","20,20,20,20,20,20,20,20","20,20,20,20,20,20,20,20","20,20,20,20,20,20,20,20","1,1,1,0,1,0,0,0","5652,75,3008,748,748,1030,808,451","-26.003108020034958,22.216841690561264,12.357000303638781,-4.446691671254646,7.5374860104026595,-8.298873802200259,-1.647368156541402,-40.673091841274626","62.001412104530445,8.051002588661099,33.97914352618449,-28.146503297088948,44.01822088457028,-4.59417679392386,-1.6415447146711535,4.06148197209594","0","0"
"832","86","text","0","39","575899","0-0","","","","","","","","","","","","","","","","","","","","","","","","","","","","","","","","","","","","",""
"","","plant-game","0","40","591035","0-0","","200","180","4","WHEAT CROP","Left","200","120","4","THISTLE WEED","experimental","7","1,2,3,4","180,197.06759621410762,210.35352425441093,235.70216992131716","4,3,2,1","WHEAT CROP,WHEAT CROP,WHEAT CROP,WHEAT CROP","120,134.44527780040806,174.91613303590205,186.0346767278459","4,3,2,1","THISTLE WEED,THISTLE WEED,THISTLE WEED,THISTLE WEED","20,20,20,20","20,20,20,20","10,10,10,10","20,20,20,20","0,0,0,0","20,20,20,20","20,20,20,20","20,20,20,20","10,10,10,10","20,20,20,20","0,0,0,0","20,20,20,20","0,0,0,1","6372,780,1454,1311","17.067596214107635,13.285928040303292,25.34864566690624,7.3008951002231655","14.445277800408066,40.47085523549399,11.11854369194383,41.20014865620432","0","0"
"539","86","text","0","41","591643","0-0","","","","","","","","","","","","","","","","","","","","","","","","","","","","","","","","","","","","",""
"","","plant-game","0","42","625155","0-0","","200","180","8","WHEAT CROP","Right","200","190","2","NETTLE WEED","experimental","8","1,2,3,4,5,6,7,8","190,193.74762443772946,140,136.67098768749509,164.9925869117019,184.20418512625045,211.61049039843445,229.7057926315087","2,1,6,5,4,3,2,1","NETTLE WEED,NETTLE WEED,THISTLE WEED,THISTLE WEED,THISTLE WEED,THISTLE WEED,THISTLE WEED,THISTLE WEED","180,191.14855528822912,216.00104005868772,231.35972862268835,229.43597776750664,196.67540547669142,230.68679920068342,227.6426022188614","8,7,6,5,4,3,2,1","WHEAT CROP,WHEAT CROP,WHEAT CROP,WHEAT CROP,WHEAT CROP,WHEAT CROP,WHEAT CROP,WHEAT CROP","0,0,0,0,0,0,0,0","20,20,20,20,20,20,20,20","10,10,10,10,10,10,10,10","20,20,20,20,20,20,20,20","20,20,20,20,20,20,20,20","20,20,20,20,20,20,20,20","0,0,0,0,0,0,0,0","20,20,20,20,20,20,20,20","10,10,10,10,10,10,10,10","20,20,20,20,20,20,20,20","20,20,20,20,20,20,20,20","20,20,20,20,20,20,20,20","0,1,1,1,0,1,0,0","5158,1581,8167,1337,1331,1180,3130,753","3.747624437729443,10.172758298486361,-3.329012312504922,28.321599224206814,19.211598214548555,27.406305272184,18.095302233074253,-28.56080415148221","11.14855528822911,24.8524847704586,15.358688564000637,-1.9237508551817157,-32.76057229081523,34.011393723992,-3.044196981822001,-15.180213831261835","0","0"
"555","86","text","0","43","625790","0-0","","","","","","","","","","","","","","","","","","","","","","","","","","","","","","","","","","","","",""
"","","plant-game","0","44","638795","0-0","","200","190","1","CORN CROP","Right","200","160","1","THISTLE WEED","experimental","9","1","160","1","THISTLE WEED","190","1","CORN CROP","0","20","10","20","20","20","0","20","10","20","20","20","1","3182","-21.725406144033464","5.175849877576418","0","0"
"685","86","text","0","45","639573","0-0","","","","","","","","","","","","","","","","","","","","","","","","","","","","","","","","","","","","",""
"","","plant-game","0","46","654753","0-0","","200","120","8","WHEAT CROP","Left","200","120","8","THISTLE WEED","experimental","10","1,2,3,4,5,6,7,8","120,146.63847283040124,138.29448782299056,117.86494439186953,144.66017958395338,147.50311069051804,194.26105699684592,203.68742559281898","8,7,6,5,4,3,2,1","WHEAT CROP,WHEAT CROP,WHEAT CROP,WHEAT CROP,WHEAT CROP,WHEAT CROP,WHEAT CROP,WHEAT CROP","120,114.14241343993731,116.5085819697534,110.89572828832439,135.99025240654802,149.99323219906643,166.98444476163962,167.9972711062062","8,7,6,5,4,3,2,1","THISTLE WEED,THISTLE WEED,THISTLE WEED,THISTLE WEED,THISTLE WEED,THISTLE WEED,THISTLE WEED,THISTLE WEED","20,20,20,20,20,20,20,20","20,20,20,20,20,20,20,20","10,10,10,10,10,10,10,10","20,20,20,20,20,20,20,20","0,0,0,0,0,0,0,0","20,20,20,20,20,20,20,20","20,20,20,20,20,20,20,20","20,20,20,20,20,20,20,20","10,10,10,10,10,10,10,10","20,20,20,20,20,20,20,20","0,0,0,0,0,0,0,0","20,20,20,20,20,20,20,20","0,0,0,0,0,0,0,0","2440,1659,647,474,629,487,1504,1524","26.638472830401234,-8.343985007410694,-20.42954343112104,26.79523519208386,2.8429311065646665,46.75794630632787,9.426368595973065,31.589913650941416","-5.8575865600626855,2.366168529816079,-5.612853681428994,25.09452411822364,14.002979792518396,16.99121256257321,1.0128263445665695,19.67554201901384","0","0"
"559","86","text","0","47","655382","0-0","","","","","","","","","","","","","","","","","","","","","","","","","","","","","","","","","","","","",""
"","","plant-game","0","48","667102","0-0","","200","160","2","WHEAT CROP","Right","200","180","2","NETTLE WEED","experimental","11","1,2","180,235.38677218196867","2,1","NETTLE WEED,NETTLE WEED","160,193.50454657566246","2,1","WHEAT CROP,WHEAT CROP","0,0","20,20","10,10","20,20","20,20","20,20","0,0","20,20","10,10","20,20","20,20","20,20","1,0","3534,3736","55.38677218196866,13.71127141675042","33.50454657566246,2.241685645458415","0","0"
"533","86","text","0","49","667705","0-0","","","","","","","","","","","","","","","","","","","","","","","","","","","","","","","","","","","","",""
"","","plant-game","0","50","701243","0-0","","200","180","8","CORN CROP","Right","200","160","1","NETTLE WEED","experimental","12","1,2,3,4,5,6,7,8","160,130,146.23151469025703,172.18628779689453,169.7560916794259,208.03666022550416,200.093137959541,183.67919889068514","1,7,6,5,4,3,2,1","NETTLE WEED,THISTLE WEED,THISTLE WEED,THISTLE WEED,THISTLE WEED,THISTLE WEED,THISTLE WEED,THISTLE WEED","180,193.6199139256345,188.01405132150938,168.4659406335303,175.27365604470572,212.45748359068105,222.43841104011133,222.08956610265514","8,7,6,5,4,3,2,1","CORN CROP,CORN CROP,CORN CROP,CORN CROP,CORN CROP,CORN CROP,CORN CROP,CORN CROP","0,0,0,0,0,0,0,0","20,20,20,20,20,20,20,20","10,10,10,10,10,10,10,10","20,20,20,20,20,20,20,20","20,20,20,20,20,20,20,20","20,20,20,20,20,20,20,20","0,0,0,0,0,0,0,0","20,20,20,20,20,20,20,20","10,10,10,10,10,10,10,10","20,20,20,20,20,20,20,20","20,20,20,20,20,20,20,20","20,20,20,20,20,20,20,20","1,1,1,1,1,0,0,0","6610,2953,3101,1065,547,3992,1738,1359","61.22729144035407,16.23151469025704,25.95477310663749,-2.430196117468636,38.28056854607826,-7.943522265963168,-16.413939068855846,-15.875440659068744","13.619913925634515,-5.605862604125136,-19.548110687979083,6.80771541117543,37.18382754597534,9.980927449430277,-0.3488449374561816,-35.814151948297216","0","0"
"489","86","text","0","51","701832","0-0","","","","","","","","","","","","","","","","","","","","","","","","","","","","","","","","","","","","",""
"","","plant-game","0","52","726693","0-0","","200","160","8","CORN CROP","Left","200","160","1","THISTLE WEED","experimental","13","1,2,3,4,5,6,7,8","160,188.1893666114455,214.44956102312145,210.88513248922112,225.66776492247465,203.41801490332932,203.62945822949126,228.06507906949446","8,7,6,5,4,3,2,1","CORN CROP,CORN CROP,CORN CROP,CORN CROP,CORN CROP,CORN CROP,CORN CROP,CORN CROP","160,130,167.97163329307713,172.65775350841878,219.69897750656972,278.5699621118983,277.0494483932012,271.13885645774366","1,7,6,5,4,3,2,1","THISTLE WEED,NETTLE WEED,NETTLE WEED,NETTLE WEED,NETTLE WEED,NETTLE WEED,NETTLE WEED,NETTLE WEED","20,20,20,20,20,20,20,20","20,20,20,20,20,20,20,20","10,10,10,10,10,10,10,10","20,20,20,20,20,20,20,20","0,0,0,0,0,0,0,0","20,20,20,20,20,20,20,20","20,20,20,20,20,20,20,20","20,20,20,20,20,20,20,20","10,10,10,10,10,10,10,10","20,20,20,20,20,20,20,20","0,0,0,0,0,0,0,0","20,20,20,20,20,20,20,20","0,0,0,0,1,1,1,1","2097,1652,1937,1785,1511,2050,1031,767","28.189366611445507,26.26019441167595,-3.5644285339003368,14.782632433253513,-22.249750019145313,0.21144332616194808,24.435620840003182,2.8556248338644874","-14.238247102085097,37.971633293077126,4.686120215341633,47.04122399815094,58.87098460532859,-1.5205137186970765,-5.910591935457549,35.105702546906436","0","0"
"454","86","text","0","53","727257","0-0","","","","","","","","","","","","","","","","","","","","","","","","","","","","","","","","","","","","",""
"","","plant-game","0","54","749331","0-0","","200","120","1","CORN CROP","Left","200","180","4","NETTLE WEED","experimental","14","1,2,3,4","120,170,203.79660758900044,203.6082583050453","1,3,2,1","CORN CROP,WHEAT CROP,WHEAT CROP,WHEAT CROP","180,131.56613352099043,169.3876113485054,190.22224051134685","4,3,2,1","NETTLE WEED,NETTLE WEED,NETTLE WEED,NETTLE WEED","20,20,20,20","20,20,20,20","10,10,10,10","20,20,20,20","0,0,0,0","20,20,20,20","20,20,20,20","20,20,20,20","10,10,10,10","20,20,20,20","0,0,0,0","20,20,20,20","1,0,0,0","7856,2194,1741,721","-2.271403418952125,33.796607589000445,-0.18834928395516215,22.637807712759898","-48.43386647900955,37.82147782751497,20.83462916284146,33.02488591712147","0","0"
"462","86","text","0","55","749943","0-0","","","","","","","","","","","","","","","","","","","","","","","","","","","","","","","","","","","","",""
"","","plant-game","0","56","770983","0-0","","200","180","4","WHEAT CROP","Left","200","160","1","NETTLE WEED","experimental","15","1,2,3,4","180,201.13782038378832,254.65614341324903,239.09597398822427","4,3,2,1","WHEAT CROP,WHEAT CROP,WHEAT CROP,WHEAT CROP","160,170,190.91951630094425,172.28673608839782","1,3,2,1","NETTLE WEED,THISTLE WEED,THISTLE WEED,THISTLE WEED","20,20,20,20","20,20,20,20","10,10,10,10","20,20,20,20","0,0,0,0","20,20,20,20","20,20,20,20","20,20,20,20","10,10,10,10","20,20,20,20","0,0,0,0","20,20,20,20","0,0,1,1","4130,2258,2767,2033","21.137820383788334,53.5183230294607,-15.560169425024766,10.482069738228665","46.63108689951463,20.919516300944256,-18.632780212546432,21.56642260519833","0","0"
"491","86","text","0","57","771584","0-0","","","","","","","","","","","","","","","","","","","","","","","","","","","","","","","","","","","","",""
"","","plant-game","0","58","806600","0-0","","200","180","4","CORN CROP","Left","200","190","2","THISTLE WEED","experimental","16","1,2,3,4","180,163.64189377585788,166.24037989403274,210.28099856034495","4,3,2,1","CORN CROP,CORN CROP,CORN CROP,CORN CROP","190,210.028770502961,180,223.8369736972437","2,1,2,1","THISTLE WEED,THISTLE WEED,NETTLE WEED,NETTLE WEED","20,20,20,20","20,20,20,20","10,10,10,10","20,20,20,20","0,0,0,0","20,20,20,20","20,20,20,20","20,20,20,20","10,10,10,10","20,20,20,20","0,0,0,0","20,20,20,20","1,1,0,0","13715,6994,5851,1669","-16.358106224142123,2.598486118174868,44.04061866631222,35.97008943301679","20.028770502961002,18.739193871142927,43.83697369724371,14.905185366866101","0","0"
"10550","86","text","0","59","817250","0-0","","","","","","","","","","","","","","","","","","","","","","","","","","","","","","","","","","","","",""
"","","plant-game","0","60","841520","0-0","","200","160","8","WHEAT CROP","Left","200","160","4","NETTLE WEED","experimental","17","1,2,3,4,5,6,7,8","160,116.72348345611083,110.78561372539882,92.09032069605573,78.58910849488726,98.13588094782772,135.28923664295672,149.7641463734901","8,7,6,5,4,3,2,1","WHEAT CROP,WHEAT CROP,WHEAT CROP,WHEAT CROP,WHEAT CROP,WHEAT CROP,WHEAT CROP,WHEAT CROP","160,157.04625553583176,146.27750195983492,149.5906271261477,160,176.22706517087124,188.50089481413093,187.82586216643952","4,3,2,1,4,3,2,1","NETTLE WEED,NETTLE WEED,NETTLE WEED,NETTLE WEED,THISTLE WEED,THISTLE WEED,THISTLE WEED,THISTLE WEED","20,20,20,20,20,20,20,20","20,20,20,20,20,20,20,20","10,10,10,10,10,10,10,10","20,20,20,20,20,20,20,20","0,0,0,0,0,0,0,0","20,20,20,20,20,20,20,20","20,20,20,20,20,20,20,20","20,20,20,20,20,20,20,20","10,10,10,10,10,10,10,10","20,20,20,20,20,20,20,20","0,0,0,0,0,0,0,0","20,20,20,20,20,20,20,20","1,1,1,1,0,0,0,0","5060,436,615,328,2187,447,771,1021","-43.27651654388917,-5.9378697307120145,-18.695293029343098,-13.501212201168478,19.54677245294046,37.153355695128994,14.474909730533358,31.31613833441967","-2.9537444641682473,-10.768753575996854,3.313125166312771,20.133710824381996,16.227065170871256,12.273829643259678,-0.6750326476914097,38.92564512294489","1","0"
"736","86","text","0","61","842386","0-0","","","","","","","","","","","","","","","","","","","","","","","","","","","","","","","","","","","","",""
"","","plant-game","0","62","860938","0-0","","200","160","8","WHEAT CROP","Right","200","190","8","NETTLE WEED","experimental","18","1,2,3,4,5,6,7,8","190,240.04139381757824,249.87243517504214,277.11950706754106,270.5448592491279,283.14311127525735,271.920941711881,299.9266443796328","8,7,6,5,4,3,2,1","NETTLE WEED,NETTLE WEED,NETTLE WEED,NETTLE WEED,NETTLE WEED,NETTLE WEED,NETTLE WEED,NETTLE WEED","160,155.7151326912421,172.1200235790941,211.208598093801,198.31697442794595,244.00883412889408,253.5812206434773,247.79223265035162","8,7,6,5,4,3,2,1","WHEAT CROP,WHEAT CROP,WHEAT CROP,WHEAT CROP,WHEAT CROP,WHEAT CROP,WHEAT CROP,WHEAT CROP","0,0,0,0,0,0,0,0","20,20,20,20,20,20,20,20","10,10,10,10,10,10,10,10","20,20,20,20,20,20,20,20","20,20,20,20,20,20,20,20","20,20,20,20,20,20,20,20","0,0,0,0,0,0,0,0","20,20,20,20,20,20,20,20","10,10,10,10,10,10,10,10","20,20,20,20,20,20,20,20","20,20,20,20,20,20,20,20","20,20,20,20,20,20,20,20","1,1,1,0,1,0,0,0","4161,1337,1552,2040,539,1335,1096,792","50.04139381757824,9.83104135746389,27.247071892498926,-6.574647818413178,12.598252026129469,-11.222169563376328,28.005702667751798,-32.27149338322768","-4.284867308757896,16.404890887852005,39.088574514706885,-12.891623665855025,45.69185970094814,9.572386514583236,-5.788987993125694,-29.971948033844235","0","0"
"504","86","text","0","63","861532","0-0","","","","","","","","","","","","","","","","","","","","","","","","","","","","","","","","","","","","",""
"","","plant-game","0","64","887567","0-0","","200","120","2","CORN CROP","Right","200","160","1","THISTLE WEED","experimental","19","1,2","160,190","1,1","THISTLE WEED,NETTLE WEED","120,99.85586010546614","2,1","CORN CROP,CORN CROP","0,0","20,20","10,10","20,20","20,20","20,20","0,0","20,20","10,10","20,20","20,20","20,20","0,1","10569,4410","24.85470843136229,36.345582248906865","-20.144139894533865,24.921246043326086","0","0"
"458","86","text","0","65","888125","0-0","","","","","","","","","","","","","","","","","","","","","","","","","","","","","","","","","","","","",""
"","","plant-game","0","66","895374","0-0","","200","160","2","WHEAT CROP","Right","200","120","2","NETTLE WEED","experimental","20","1,2","120,127.5156479170293","2,1","NETTLE WEED,NETTLE WEED","160,188.14175343903244","2,1","WHEAT CROP,WHEAT CROP","0,0","20,20","10,10","20,20","20,20","20,20","0,0","20,20","10,10","20,20","20,20","20,20","1,1","2185,868","7.5156479170293,42.85649863079682","28.14175343903245,32.85317783044347","0","0"
"470","86","text","0","67","895967","0-0","","","","","","","","","","","","","","","","","","","","","","","","","","","","","","","","","","","","",""
"","","plant-game","0","68","919203","0-0","","200","180","1","CORN CROP","Left","200","190","8","NETTLE WEED","experimental","21","1,2,3,4,5,6,7,8","180,130,165.49557651491028,149.25503707869146,147.5650766342283,184.6646721552956,203.58101655977703,197.33316052235926","1,7,6,5,4,3,2,1","CORN CROP,WHEAT CROP,WHEAT CROP,WHEAT CROP,WHEAT CROP,WHEAT CROP,WHEAT CROP,WHEAT CROP","190,232.20748093533024,237.70396638313272,226.40042776825925,255.46770827545063,276.73835540684337,283.06505730946475,282.19572933940793","8,7,6,5,4,3,2,1","NETTLE WEED,NETTLE WEED,NETTLE WEED,NETTLE WEED,NETTLE WEED,NETTLE WEED,NETTLE WEED,NETTLE WEED","20,20,20,20,20,20,20,20","20,20,20,20,20,20,20,20","10,10,10,10,10,10,10,10","20,20,20,20,20,20,20,20","0,0,0,0,0,0,0,0","20,20,20,20,20,20,20,20","20,20,20,20,20,20,20,20","20,20,20,20,20,20,20,20","10,10,10,10,10,10,10,10","20,20,20,20,20,20,20,20","0,0,0,0,0,0,0,0","20,20,20,20,20,20,20,20","0,1,1,1,0,1,1,0","2315,2480,763,621,1141,757,4065,1174","37.408858406270234,35.4955765149103,-16.240539436218832,-1.6899604444631704,37.099595521067286,18.916344404481425,-6.247856037417764,64.0570010621751","42.20748093533025,5.496485447802483,-11.303538614873485,29.067280507191377,21.270647131392725,6.326701902621371,-0.8693279700568028,30.481799943547138","0","0"
"614","86","text","0","69","919918","0-0","","","","","","","","","","","","","","","","","","","","","","","","","","","","","","","","","","","","",""
"","","plant-game","0","70","940274","0-0","","200","180","4","CORN CROP","Right","200","180","2","NETTLE WEED","experimental","22","1,2,3,4","180,189.57509431906308,180,215.4407997858628","2,1,2,1","NETTLE WEED,NETTLE WEED,THISTLE WEED,THISTLE WEED","180,185.62357831575852,189.51157392133842,257.6545498162345","4,3,2,1","CORN CROP,CORN CROP,CORN CROP,CORN CROP","0,0,0,0","20,20,20,20","10,10,10,10","20,20,20,20","20,20,20,20","20,20,20,20","0,0,0,0","20,20,20,20","10,10,10,10","20,20,20,20","20,20,20,20","20,20,20,20","1,0,1,0","2929,4168,1545,3645","9.575094319063078,17.210185727637317,35.4407997858628,-25.953824413133812","5.623578315758522,3.887995605579892,68.14297589489607,-19.267552861097343","0","0"
"553","86","text","0","71","940937","0-0","","","","","","","","","","","","","","","","","","","","","","","","","","","","","","","","","","","","",""
"","","plant-game","0","72","960233","0-0","","200","180","2","CORN CROP","Left","200","120","4","THISTLE WEED","experimental","23","1,2,3,4","180,194.14030267226033,180,223.29866864186494","2,1,2,1","CORN CROP,CORN CROP,WHEAT CROP,WHEAT CROP","120,104.0750404638254,113.08595864046619,127.10217167486695","4,3,2,1","THISTLE WEED,THISTLE WEED,THISTLE WEED,THISTLE WEED","20,20,20,20","20,20,20,20","10,10,10,10","20,20,20,20","0,0,0,0","20,20,20,20","20,20,20,20","20,20,20,20","10,10,10,10","20,20,20,20","0,0,0,0","20,20,20,20","0,0,0,0","3616,423,3334,3784","14.14030267226034,17.762035534401704,43.29866864186495,-25.33301893285178","-15.924959536174597,9.01091817664079,14.01621303440077,40.3433735200323","0","0"
"473","86","text","0","73","960826","0-0","","","","","","","","","","","","","","","","","","","","","","","","","","","","","","","","","","","","",""
"","","plant-game","0","74","982751","0-0","","200","120","1","WHEAT CROP","Right","200","160","4","NETTLE WEED","experimental","24","1,2,3,4","160,174.87108086690557,194.95319427808084,193.08388317383918","4,3,2,1","NETTLE WEED,NETTLE WEED,NETTLE WEED,NETTLE WEED","120,170,212.53126696409885,209.30743540116302","1,3,2,1","WHEAT CROP,CORN CROP,CORN CROP,CORN CROP","0,0,0,0","20,20,20,20","10,10,10,10","20,20,20,20","20,20,20,20","20,20,20,20","0,0,0,0","20,20,20,20","10,10,10,10","20,20,20,20","20,20,20,20","20,20,20,20","1,1,0,0","2198,1963,2109,6885","14.87108086690558,20.08211341117527,-1.8693111042416464,29.58130490176938","33.87124573173551,42.53126696409884,-3.2238315629358345,37.092836062559144","0","0"
"433","86","text","0","75","983284","0-0","","","","","","","","","","","","","","","","","","","","","","","","","","","","","","","","","","","","",""
"","","plant-game","0","76","996307","0-0","","200","180","1","WHEAT CROP","Right","200","120","2","NETTLE WEED","experimental","25","1,2","120,164.37558418794137","2,1","NETTLE WEED,NETTLE WEED","180,190","1,1","WHEAT CROP,CORN CROP","0,0","20,20","10,10","20,20","20,20","20,20","0,0","20,20","10,10","20,20","20,20","20,20","1,1","3205,2426","44.37558418794137,-20.93199539957734","27.843092259925207,-9.62868738059948","0","0"
"529","86","text","0","77","996966","0-0","","","","","","","","","","","","","","","","","","","","","","","","","","","","","","","","","","","","",""
"","","plant-game","0","78","1018481","0-0","","200","160","2","CORN CROP","Right","200","160","8","NETTLE WEED","experimental","26","1,2,3,4,5,6,7,8","160,162.65505251591406,176.1208286875155,180.32504580552802,228.1054790653456,230.35216735960603,233.33676017136702,243.9283555386017","8,7,6,5,4,3,2,1","NETTLE WEED,NETTLE WEED,NETTLE WEED,NETTLE WEED,NETTLE WEED,NETTLE WEED,NETTLE WEED,NETTLE WEED","160,145.92940914464413,140,171.63461816854107,166.98496742969587,157.0945203594254,182.62285960283515,180.40289833944527","2,1,6,5,4,3,2,1","CORN CROP,CORN CROP,WHEAT CROP,WHEAT CROP,WHEAT CROP,WHEAT CROP,WHEAT CROP,WHEAT CROP","0,0,0,0,0,0,0,0","20,20,20,20,20,20,20,20","10,10,10,10,10,10,10,10","20,20,20,20,20,20,20,20","20,20,20,20,20,20,20,20","20,20,20,20,20,20,20,20","0,0,0,0,0,0,0,0","20,20,20,20,20,20,20,20","10,10,10,10,10,10,10,10","20,20,20,20,20,20,20,20","20,20,20,20,20,20,20,20","20,20,20,20,20,20,20,20","0,0,1,1,0,1,0,1","5285,1524,2132,1070,832,883,421,184","2.6550525159140648,13.465776171601455,4.204217118012515,47.78043325981757,2.246688294260415,2.9845928117610008,10.591595367234683,38.188938224875145","-14.070590855355862,-8.639814893633279,31.634618168541053,-4.649650738845192,-9.89044707027048,25.52833924340975,-2.2199612633898806,20.690617800524343","0","0"
"471","86","text","0","79","1019072","0-0","","","","","","","","","","","","","","","","","","","","","","","","","","","","","","","","","","","","",""
"","","plant-game","0","80","1048542","0-0","","200","120","1","CORN CROP","Left","200","190","4","NETTLE WEED","experimental","27","1,2,3,4","120,170,162.56732273927804,182.5621590569411","1,3,2,1","CORN CROP,WHEAT CROP,WHEAT CROP,WHEAT CROP","190,181.85933900225334,210.2783715955582,259.99005420513174","4,3,2,1","NETTLE WEED,NETTLE WEED,NETTLE WEED,NETTLE WEED","20,20,20,20","20,20,20,20","10,10,10,10","20,20,20,20","0,0,0,0","20,20,20,20","20,20,20,20","20,20,20,20","10,10,10,10","20,20,20,20","0,0,0,0","20,20,20,20","1,1,0,0","4533,9319,3688,1871","-1.433963343356576,-7.432677260721972,19.99483631766308,3.032889397312175","-8.140660997746672,28.419032593304866,49.711682609573515,19.586197642016597","1","0"
"467","86","text","0","81","1049079","0-0","","","","","","","","","","","","","","","","","","","","","","","","","","","","","","","","","","","","",""
"","","plant-game","0","82","1066222","0-0","","200","180","2","WHEAT CROP","Right","200","190","1","NETTLE WEED","experimental","28","1,2","190,190","1,1","NETTLE WEED,THISTLE WEED","180,200.7814034668428","2,1","WHEAT CROP,WHEAT CROP","0,0","20,20","10,10","20,20","20,20","20,20","0,0","20,20","10,10","20,20","20,20","20,20","1,1","1767,5320","-16.757829840019028,25.65142866901841","20.781403466842786,2.269734651735135","0","0"
"401","86","text","0","83","1066721","0-0","","","","","","","","","","","","","","","","","","","","","","","","","","","","","","","","","","","","",""
"","","plant-game","0","84","1082072","0-0","","200","120","4","WHEAT CROP","Right","200","190","1","NETTLE WEED","experimental","29","1,2,3,4","190,170,191.25722161126262,163.16647860931894","1,3,2,1","NETTLE WEED,THISTLE WEED,THISTLE WEED,THISTLE WEED","120,178.93872965327355,176.73312818265404,168.03562554685763","4,3,2,1","WHEAT CROP,WHEAT CROP,WHEAT CROP,WHEAT CROP","0,0,0,0","20,20,20,20","10,10,10,10","20,20,20,20","20,20,20,20","20,20,20,20","0,0,0,0","20,20,20,20","10,10,10,10","20,20,20,20","20,20,20,20","20,20,20,20","1,1,0,1","2392,2163,2208,1970","45.76395827920173,21.257221611262626,-28.090743001943682,20.25260758051718","58.93872965327356,-2.2056014706195093,-8.697502635796422,52.590256227764144","0","0"
"434","86","text","0","85","1082616","0-0","","","","","","","","","","","","","","","","","","","","","","","","","","","","","","","","","","","","",""
"","","plant-game","0","86","1098683","0-0","","200","180","8","CORN CROP","Left","200","160","8","NETTLE WEED","experimental","30","1,2,3,4,5,6,7,8","180,195.59471802521685,245.42355863291058,232.15233337046607,222.62850470201843,251.06592170132237,256.42551230748757,280.9352284778106","8,7,6,5,4,3,2,1","CORN CROP,CORN CROP,CORN CROP,CORN CROP,CORN CROP,CORN CROP,CORN CROP,CORN CROP","160,189.13116409666947,239.1045254741369,229.0360097203693,184.72504030065278,247.31735807937199,263.37090947299464,238.1895333405515","8,7,6,5,4,3,2,1","NETTLE WEED,NETTLE WEED,NETTLE WEED,NETTLE WEED,NETTLE WEED,NETTLE WEED,NETTLE WEED,NETTLE WEED","20,20,20,20,20,20,20,20","20,20,20,20,20,20,20,20","10,10,10,10,10,10,10,10","20,20,20,20,20,20,20,20","0,0,0,0,0,0,0,0","20,20,20,20,20,20,20,20","20,20,20,20,20,20,20,20","20,20,20,20,20,20,20,20","10,10,10,10,10,10,10,10","20,20,20,20,20,20,20,20","0,0,0,0,0,0,0,0","20,20,20,20,20,20,20,20","0,0,1,1,0,1,1,1","2522,822,1414,683,3206,1029,663,415","15.594718025216839,49.82884060769374,-13.271225262444519,-9.52382866844763,28.437416999303927,5.359590606165216,24.509716170323056,-15.38054878102399","29.131164096669472,49.97336137746744,-10.068515753767585,-44.3109694197165,62.592317778719206,16.053551393622637,-25.181376132443148,15.532325565648708","0","0"
"650","86","text","0","87","1099443","0-0","","","","","","","","","","","","","","","","","","","","","","","","","","","","","","","","","","","","",""
"","","plant-game","0","88","1112834","0-0","","200","190","2","WHEAT CROP","Left","200","190","2","THISTLE WEED","experimental","31","1,2","190,199.0130149839048","2,1","WHEAT CROP,WHEAT CROP","190,225.1408522667518","2,1","THISTLE WEED,THISTLE WEED","20,20","20,20","10,10","20,20","0,0","20,20","20,20","20,20","10,10","20,20","0,0","20,20","0,0","7531,1808","9.013014983904817,15.659048600727077","35.140852266751814,40.99598753682343","0","0"
"486","86","text","0","89","1113416","0-0","","","","","","","","","","","","","","","","","","","","","","","","","","","","","","","","","","","","",""
"","","plant-game","0","90","1130422","0-0","","200","160","4","WHEAT CROP","Right","200","160","4","NETTLE WEED","experimental","32","1,2,3,4","160,160.4353849629903,154.9191763781506,171.92821483463925","4,3,2,1","NETTLE WEED,NETTLE WEED,NETTLE WEED,NETTLE WEED","160,202.6998485449966,216.3777269222403,250.31097277808402","4,3,2,1","WHEAT CROP,WHEAT CROP,WHEAT CROP,WHEAT CROP","0,0,0,0","20,20,20,20","10,10,10,10","20,20,20,20","20,20,20,20","20,20,20,20","0,0,0,0","20,20,20,20","10,10,10,10","20,20,20,20","20,20,20,20","20,20,20,20","1,0,1,1","1756,1035,4411,2703","0.4353849629902875,-5.516208584839682,17.00903845648863,-10.84450640541041","42.699848544996584,13.677878377243694,33.93324585584374,31.655827412512174","0","0"
"13686","86","text","0","91","1144186","0-0","","","","","","","","","","","","","","","","","","","","","","","","","","","","","","","","","","","","",""
"","","plant-game","0","92","1156373","0-0","","200","180","4","CORN CROP","Left","200","120","2","NETTLE WEED","experimental","33","1,2,3,4","180,193.68412001324992,209.2807257253282,223.54893677360096","4,3,2,1","CORN CROP,CORN CROP,CORN CROP,CORN CROP","120,111.23975099536635,180,220.1527054854346","2,1,2,1","NETTLE WEED,NETTLE WEED,THISTLE WEED,THISTLE WEED","20,20,20,20","20,20,20,20","10,10,10,10","20,20,20,20","0,0,0,0","20,20,20,20","20,20,20,20","20,20,20,20","10,10,10,10","20,20,20,20","0,0,0,0","20,20,20,20","1,1,0,1","1833,48,4004,69","13.684120013249936,15.596605712078286,14.268211048272741,20.719339403746964","-8.760249004633646,19.034280611303174,40.15270548543461,-1.7956513897067192","0","0"
"371","86","text","0","93","1156804","0-0","","","","","","","","","","","","","","","","","","","","","","","","","","","","","","","","","","","","",""
"","","plant-game","0","94","1164436","0-0","","200","180","1","WHEAT CROP","Left","200","190","2","NETTLE WEED","experimental","34","1,2","180,190","1,1","WHEAT CROP,CORN CROP","190,174.87581273763644","2,1","NETTLE WEED,NETTLE WEED","20,20","20,20","10,10","20,20","0,0","20,20","20,20","20,20","10,10","20,20","0,0","20,20","1,0","637,1512","-16.010933369521247,42.40896259999042","-15.12418726236355,20.854533232596236","0","0"
"511","86","text","0","95","1165064","0-0","","","","","","","","","","","","","","","","","","","","","","","","","","","","","","","","","","","","",""
"","","plant-game","0","96","1169800","0-0","","200","190","4","WHEAT CROP","Right","200","180","4","THISTLE WEED","experimental","35","1,2,3,4","180,180.98706404851745,151.08611777800593,151.75415080217692","4,3,2,1","THISTLE WEED,THISTLE WEED,THISTLE WEED,THISTLE WEED","190,173.38716298861067,165.85858381665065,179.6190021636299","4,3,2,1","WHEAT CROP,WHEAT CROP,WHEAT CROP,WHEAT CROP","0,0,0,0","20,20,20,20","10,10,10,10","20,20,20,20","20,20,20,20","20,20,20,20","0,0,0,0","20,20,20,20","10,10,10,10","20,20,20,20","20,20,20,20","20,20,20,20","1,0,0,1","398,1,58,26","0.987064048517464,-29.900946270511525,0.6680330241710055,-13.890959203844822","-16.612837011389317,-7.528579171960023,13.760418346979225,30.697154242391036","0","0"
"577","86","text","0","97","1170475","0-0","","","","","","","","","","","","","","","","","","","","","","","","","","","","","","","","","","","","",""
"","","plant-game","0","98","1187905","0-0","","200","120","8","CORN CROP","Right","200","180","1","NETTLE WEED","experimental","36","1,2,3,4,5,6,7,8","180,130,121.51480438580636,156.7938380618234,165.9035923568146,158.8665364843738,212.26648527323195,228.66500774689882","1,7,6,5,4,3,2,1","NETTLE WEED,THISTLE WEED,THISTLE WEED,THISTLE WEED,THISTLE WEED,THISTLE WEED,THISTLE WEED,THISTLE WEED","120,141.31628874306156,152.86981279957504,152.23749115588697,164.77458413408584,179.9894640954941,199.162277836263,255.5582520037434","8,7,6,5,4,3,2,1","CORN CROP,CORN CROP,CORN CROP,CORN CROP,CORN CROP,CORN CROP,CORN CROP,CORN CROP","0,0,0,0,0,0,0,0","20,20,20,20,20,20,20,20","10,10,10,10,10,10,10,10","20,20,20,20,20,20,20,20","20,20,20,20,20,20,20,20","20,20,20,20,20,20,20,20","0,0,0,0,0,0,0,0","20,20,20,20,20,20,20,20","10,10,10,10,10,10,10,10","20,20,20,20,20,20,20,20","20,20,20,20,20,20,20,20","20,20,20,20,20,20,20,20","1,0,1,1,0,1,1,0","804,1604,276,330,287,1014,2893,1803","13.51635307732057,-8.485195614193639,35.279033676017036,9.109754294991196,-7.037055872440815,53.39994878885815,16.39852247366687,23.870112314643013","21.316288743061556,11.55352405651348,-0.6323216436880763,12.537092978198874,15.214879961408268,19.172813740768905,56.39597416748041,5.693898716331506","0","0"
"495","86","text","0","99","1188500","0-0","","","","","","","","","","","","","","","","","","","","","","","","","","","","","","","","","","","","",""
"","","plant-game","0","100","1209108","0-0","","200","190","8","WHEAT CROP","Left","200","120","1","NETTLE WEED","experimental","37","1,2,3,4,5,6,7,8","190,176.25708812796833,190.80084986214808,204.75681245840357,269.64172537167457,275.86738029475305,249.65024279819116,217.61013186634588","8,7,6,5,4,3,2,1","WHEAT CROP,WHEAT CROP,WHEAT CROP,WHEAT CROP,WHEAT CROP,WHEAT CROP,WHEAT CROP,WHEAT CROP","120,130,114.52563567693157,125.86244074731943,144.62270968204624,143.4702106892713,136.56734845167577,134.46482154415122","1,7,6,5,4,3,2,1","NETTLE WEED,THISTLE WEED,THISTLE WEED,THISTLE WEED,THISTLE WEED,THISTLE WEED,THISTLE WEED,THISTLE WEED","20,20,20,20,20,20,20,20","20,20,20,20,20,20,20,20","10,10,10,10,10,10,10,10","20,20,20,20,20,20,20,20","0,0,0,0,0,0,0,0","20,20,20,20,20,20,20,20","20,20,20,20,20,20,20,20","20,20,20,20,20,20,20,20","10,10,10,10,10,10,10,10","20,20,20,20,20,20,20,20","0,0,0,0,0,0,0,0","20,20,20,20,20,20,20,20","1,1,0,0,1,1,1,0","3027,2250,1683,1531,1461,475,550,1328","-13.742911872031682,14.543761734179764,13.955962596255498,64.884912913271,6.225654923078475,-26.217137496561897,-32.04011093184528,13.655529333619043","27.442410530072422,-15.474364323068423,11.33680507038785,18.760268934726813,-1.1524989927749283,-6.902862237595546,-2.1025269075245503,8.559816842617254","0","0"
"483","86","text","0","101","1209691","0-0","","","","","","","","","","","","","","","","","","","","","","","","","","","","","","","","","","","","",""
"","","plant-game","0","102","1224180","0-0","","200","120","4","CORN CROP","Right","200","120","2","NETTLE WEED","experimental","38","1,2,3,4","120,141.78365736281904,180,161.05074069142387","2,1,2,1","NETTLE WEED,NETTLE WEED,THISTLE WEED,THISTLE WEED","120,155.44833160480093,171.73131241416945,181.51002240355754","4,3,2,1","CORN CROP,CORN CROP,CORN CROP,CORN CROP","0,0,0,0","20,20,20,20","10,10,10,10","20,20,20,20","20,20,20,20","20,20,20,20","0,0,0,0","20,20,20,20","10,10,10,10","20,20,20,20","20,20,20,20","20,20,20,20","1,1,0,0","2400,73,3205,1266","21.783657362819028,14.183397320604936,-18.94925930857612,-22.01802371216889","35.448331604800934,16.282980809368535,9.778709989388084,10.620676893191769","0","0"
"437","86","text","0","103","1224726","0-0","","","","","","","","","","","","","","","","","","","","","","","","","","","","","","","","","","","","",""
"","","plant-game","0","104","1241085","0-0","","200","160","8","CORN CROP","Right","200","160","2","THISTLE WEED","experimental","39","1,2,3,4,5,6,7,8","160,208.56187701796443,140,164.92644559246168,156.67045805641771,177.91674198530012,197.65004779370958,186.23095354817744","2,1,6,5,4,3,2,1","THISTLE WEED,THISTLE WEED,NETTLE WEED,NETTLE WEED,NETTLE WEED,NETTLE WEED,NETTLE WEED,NETTLE WEED","160,181.61203857441393,219.6785872336401,258.88557224547225,240.1549905670147,226.7140986244538,209.36708630567114,223.14435576395218","8,7,6,5,4,3,2,1","CORN CROP,CORN CROP,CORN CROP,CORN CROP,CORN CROP,CORN CROP,CORN CROP,CORN CROP","0,0,0,0,0,0,0,0","20,20,20,20,20,20,20,20","10,10,10,10,10,10,10,10","20,20,20,20,20,20,20,20","20,20,20,20,20,20,20,20","20,20,20,20,20,20,20,20","0,0,0,0,0,0,0,0","20,20,20,20,20,20,20,20","10,10,10,10,10,10,10,10","20,20,20,20,20,20,20,20","20,20,20,20,20,20,20,20","20,20,20,20,20,20,20,20","1,1,1,0,0,0,1,0","2139,66,1433,1311,624,494,2492,644","48.56187701796444,40.23849870990144,24.92644559246166,-8.255987536043946,21.246283928882406,19.73330580840944,-11.41909424553213,-24.15324102868915","21.612038574413944,38.066548659226164,39.206985011832145,-18.73058167845757,-13.440891942560873,-17.347012318782674,13.77726945828103,11.267930997559883","0","0"
"503","86","text","0","105","1241718","0-0","","","","","","","","","","","","","","","","","","","","","","","","","","","","","","","","","","","","",""
"","","plant-game","0","106","1263062","0-0","","200","190","8","CORN CROP","Right","200","120","4","NETTLE WEED","experimental","40","1,2,3,4,5,6,7,8","120,145.0248843684921,185.55987408937636,173.9467516980118,160,164.68553031518707,170.6063338685309,175.07758587238783","4,3,2,1,4,3,2,1","NETTLE WEED,NETTLE WEED,NETTLE WEED,NETTLE WEED,THISTLE WEED,THISTLE WEED,THISTLE WEED,THISTLE WEED","190,200.09188602626526,209.94017966703794,198.1257822458215,185.03385908000928,189.9690990833412,225.712718415677,233.2031091509802","8,7,6,5,4,3,2,1","CORN CROP,CORN CROP,CORN CROP,CORN CROP,CORN CROP,CORN CROP,CORN CROP,CORN CROP","0,0,0,0,0,0,0,0","20,20,20,20,20,20,20,20","10,10,10,10,10,10,10,10","20,20,20,20,20,20,20,20","20,20,20,20,20,20,20,20","20,20,20,20,20,20,20,20","0,0,0,0,0,0,0,0","20,20,20,20,20,20,20,20","10,10,10,10,10,10,10,10","20,20,20,20,20,20,20,20","20,20,20,20,20,20,20,20","20,20,20,20,20,20,20,20","1,1,0,0,0,0,0,0","1968,1150,3404,1608,1133,881,2848,1405","25.024884368492103,40.534989720884255,-11.613122391364543,-4.465254515592802,4.685530315187057,5.9208035533438235,4.471252003856924,-12.064382601252069","10.09188602626526,9.848293640772674,-11.81439742121643,-13.091923165812222,4.935240003331922,35.74361933233578,7.4903907353031975,-12.005287507601562","1","0"
"24073","86","text","0","107","1287213","0-0","","","","","","","","","","","","","","","","","","","","","","","","","","","","","","","","","","","","",""
"","","plant-game","0","108","1295646","0-0","","200","190","1","WHEAT CROP","Right","200","190","1","THISTLE WEED","experimental","41","1","190","1","THISTLE WEED","190","1","WHEAT CROP","0","20","10","20","20","20","0","20","10","20","20","20","1","2979","30.11304020577657","-12.12570201245542","0","0"
"869","86","text","0","109","1296615","0-0","","","","","","","","","","","","","","","","","","","","","","","","","","","","","","","","","","","","",""
"","","plant-game","0","110","1305784","0-0","","200","120","2","CORN CROP","Right","200","190","2","NETTLE WEED","experimental","42","1,2","190,212.74962728735812","2,1","NETTLE WEED,NETTLE WEED","120,132.2981464039692","2,1","CORN CROP,CORN CROP","0,0","20,20","10,10","20,20","20,20","20,20","0,0","20,20","10,10","20,20","20,20","20,20","1,1","2359,1793","22.749627287358127,-2.6531978416696447","12.298146403969213,22.772747291453936","0","0"
"625","86","text","0","111","1306519","0-0","","","","","","","","","","","","","","","","","","","","","","","","","","","","","","","","","","","","",""
"","","plant-game","0","112","1322668","0-0","","200","190","4","CORN CROP","Left","200","160","4","THISTLE WEED","experimental","43","1,2,3,4","190,184.6718222547797,179.51130017153275,200.94130539249966","4,3,2,1","CORN CROP,CORN CROP,CORN CROP,CORN CROP","160,159.34635930510896,183.09801336350745,161.128826132242","4,3,2,1","THISTLE WEED,THISTLE WEED,THISTLE WEED,THISTLE WEED","20,20,20,20","20,20,20,20","10,10,10,10","20,20,20,20","0,0,0,0","20,20,20,20","20,20,20,20","20,20,20,20","10,10,10,10","20,20,20,20","0,0,0,0","20,20,20,20","1,1,1,1","3474,1997,4306,2179","-5.3281777452202945,-5.16052208324695,21.43000522096692,17.00159726261582","-0.6536406948910395,23.751654058398476,-21.969187231265444,-3.1256248495322723","0","0"
"5139","86","text","0","113","1327927","0-0","","","","","","","","","","","","","","","","","","","","","","","","","","","","","","","","","","","","",""
"","","plant-game","0","114","1339457","0-0","","200","160","4","WHEAT CROP","Left","200","120","8","THISTLE WEED","experimental","44","1,2,3,4,5,6,7,8","160,158.65294166998254,178.45074841305814,163.69009108416213,160,135.01528341648765,123.77176925451036,92.70869786508689","4,3,2,1,4,3,2,1","WHEAT CROP,WHEAT CROP,WHEAT CROP,WHEAT CROP,CORN CROP,CORN CROP,CORN CROP,CORN CROP","120,114.65645619284837,134.53774885493323,100.09746118206914,74.90817295876307,79.8818805151039,86.7970503882538,100.45338790429162","8,7,6,5,4,3,2,1","THISTLE WEED,THISTLE WEED,THISTLE WEED,THISTLE WEED,THISTLE WEED,THISTLE WEED,THISTLE WEED,THISTLE WEED","20,20,20,20,20,20,20,20","20,20,20,20,20,20,20,20","10,10,10,10,10,10,10,10","20,20,20,20,20,20,20,20","0,0,0,0,0,0,0,0","20,20,20,20,20,20,20,20","20,20,20,20,20,20,20,20","20,20,20,20,20,20,20,20","10,10,10,10,10,10,10,10","20,20,20,20,20,20,20,20","0,0,0,0,0,0,0,0","20,20,20,20,20,20,20,20","1,1,1,1,1,0,1,0","1122,210,278,393,1924,334,579,481","-1.347058330017457,19.79780674307559,-14.760657328895991,-16.899243059405695,-24.984716583512345,-11.243514161977288,-31.063071389423463,22.495855639639924","-5.343543807151635,19.88129266208485,-34.440287672864095,-25.189288223306065,4.973707556340826,6.915169873149896,13.65633751603782,30.402806858598268","0","0"
"661","86","text","0","115","1340242","0-0","","","","","","","","","","","","","","","","","","","","","","","","","","","","","","","","","","","","",""
"","","plant-game","0","116","1353665","0-0","","200","160","2","CORN CROP","Right","200","190","4","THISTLE WEED","experimental","45","1,2,3,4","190,173.6805990240805,166.25634006931443,190.29319938642737","4,3,2,1","THISTLE WEED,THISTLE WEED,THISTLE WEED,THISTLE WEED","160,167.53140080215434,180,210.83185579204618","2,1,2,1","CORN CROP,CORN CROP,WHEAT CROP,WHEAT CROP","0,0,0,0","20,20,20,20","10,10,10,10","20,20,20,20","20,20,20,20","20,20,20,20","0,0,0,0","20,20,20,20","10,10,10,10","20,20,20,20","20,20,20,20","20,20,20,20","0,0,1,0","751,375,1743,1048","-16.319400975919514,-7.42425895476607,24.036859317112945,-8.96965291473949","7.531400802154349,-9.164113263445074,30.831855792046195,-6.63841031545506","0","0"
"2069","86","text","0","117","1355814","0-0","","","","","","","","","","","","","","","","","","","","","","","","","","","","","","","","","","","","",""
"","","plant-game","0","118","1370478","0-0","","200","160","2","CORN CROP","Left","200","160","4","THISTLE WEED","experimental","46","1,2,3,4","160,174.48029104123643,180,150.65475913070557","2,1,2,1","CORN CROP,CORN CROP,WHEAT CROP,WHEAT CROP","160,150.35009276754442,139.65511873495066,126.23342933312644","4,3,2,1","THISTLE WEED,THISTLE WEED,THISTLE WEED,THISTLE WEED","20,20,20,20","20,20,20,20","10,10,10,10","20,20,20,20","0,0,0,0","20,20,20,20","20,20,20,20","20,20,20,20","10,10,10,10","20,20,20,20","0,0,0,0","20,20,20,20","1,1,1,0","1549,927,2944,988","14.480291041236438,-9.862441488997698,-29.345240869294436,-16.2608665941968","-9.649907232455584,-10.694974032593763,-13.421689401824219,43.31344714405358","0","0"
"394","86","text","0","119","1371013","0-0","","","","","","","","","","","","","","","","","","","","","","","","","","","","","","","","","","","","",""
"","","plant-game","0","120","1395193","0-0","","200","190","4","CORN CROP","Right","200","160","8","NETTLE WEED","experimental","47","1,2,3,4,5,6,7,8","160,199.75499470728494,196.61639709033938,213.69898105040244,227.9884149179677,261.7283040603763,302.86341215398227,286.4567118464181","8,7,6,5,4,3,2,1","NETTLE WEED,NETTLE WEED,NETTLE WEED,NETTLE WEED,NETTLE WEED,NETTLE WEED,NETTLE WEED,NETTLE WEED","190,203.59383142912213,213.46128661650968,204.76557541652082,160,201.13968388136996,255.74454929023767,287.60909001610986","4,3,2,1,4,3,2,1","CORN CROP,CORN CROP,CORN CROP,CORN CROP,WHEAT CROP,WHEAT CROP,WHEAT CROP,WHEAT CROP","0,0,0,0,0,0,0,0","20,20,20,20,20,20,20,20","10,10,10,10,10,10,10,10","20,20,20,20,20,20,20,20","20,20,20,20,20,20,20,20","20,20,20,20,20,20,20,20","0,0,0,0,0,0,0,0","20,20,20,20,20,20,20,20","10,10,10,10,10,10,10,10","20,20,20,20,20,20,20,20","20,20,20,20,20,20,20,20","20,20,20,20,20,20,20,20","1,0,0,1,1,1,0,0","1836,1510,1549,1351,1805,2919,1967,385","39.75499470728495,-3.1385976169455567,17.08258396006306,14.289433867565254,33.73988914240858,41.13510809360601,-16.40670030756419,24.09743029321333","13.593831429122144,9.867455187387558,-8.695711199988866,32.14377326326091,41.13968388136996,54.60486540886771,31.86454072587218,-1.0488739195631567","0","0"
"525","86","text","0","121","1395818","0-0","","","","","","","","","","","","","","","","","","","","","","","","","","","","","","","","","","","","",""
"","","plant-game","0","122","1406450","0-0","","200","120","4","CORN CROP","Left","200","160","4","THISTLE WEED","experimental","48","1,2,3,4","120,134.8510687918063,144.28510309194075,143.9284497306489","4,3,2,1","CORN CROP,CORN CROP,CORN CROP,CORN CROP","160,171.86769833180762,206.02914741860144,203.3119142211367","4,3,2,1","THISTLE WEED,THISTLE WEED,THISTLE WEED,THISTLE WEED","20,20,20,20","20,20,20,20","10,10,10,10","20,20,20,20","0,0,0,0","20,20,20,20","20,20,20,20","20,20,20,20","10,10,10,10","20,20,20,20","0,0,0,0","20,20,20,20","1,0,1,1","2619,936,2179,1161","14.851068791806304,9.434034300134446,-0.35665336129183767,36.12313802558398","11.867698331807627,34.161449086793816,-2.717233197464725,-15.489450982050656","0","0"
"4048","86","text","0","123","1410598","0-0","","","","","","","","","","","","","","","","","","","","","","","","","","","","","","","","","","","","",""
"","","plant-game","0","124","1442434","0-0","","200","190","4","CORN CROP","Right","200","120","8","NETTLE WEED","experimental","49","1,2,3,4,5,6,7,8","120,154.58054179304435,162.66398402940166,155.75263381242453,158.99743960105172,156.52838115804315,173.14168003362835,221.88544589347288","8,7,6,5,4,3,2,1","NETTLE WEED,NETTLE WEED,NETTLE WEED,NETTLE WEED,NETTLE WEED,NETTLE WEED,NETTLE WEED,NETTLE WEED","190,245.68734937397778,277.20814401885593,297.357355745661,160,149.8874844138162,211.96027870268534,222.21788931792943","4,3,2,1,4,3,2,1","CORN CROP,CORN CROP,CORN CROP,CORN CROP,WHEAT CROP,WHEAT CROP,WHEAT CROP,WHEAT CROP","0,0,0,0,0,0,0,0","20,20,20,20,20,20,20,20","10,10,10,10,10,10,10,10","20,20,20,20,20,20,20,20","20,20,20,20,20,20,20,20","20,20,20,20,20,20,20,20","0,0,0,0,0,0,0,0","20,20,20,20,20,20,20,20","10,10,10,10,10,10,10,10","20,20,20,20,20,20,20,20","20,20,20,20,20,20,20,20","20,20,20,20,20,20,20,20","1,0,0,0,1,1,1,0","11631,5355,1082,475,2505,485,1304,729","34.58054179304436,8.083442236357309,-6.911350216977116,3.244805788627178,-2.469058443008578,16.613298875585194,48.74376585984452,-5.140712736052743","55.68734937397779,31.520794644878137,20.14921172680504,-35.695732890997284,-10.1125155861838,62.07279428886913,10.257610615244083,-12.14998322691187","0","0"
"601","86","text","0","125","1443135","0-0","","","","","","","","","","","","","","","","","","","","","","","","","","","","","","","","","","","","",""
"","","plant-game","0","126","1462860","0-0","","200","120","8","WHEAT CROP","Left","200","180","4","NETTLE WEED","experimental","50","1,2,3,4,5,6,7,8","120,131.77860182833786,165.7341027179038,186.4105421480544,241.18950624509552,259.2057513585583,271.0254444915446,317.07118868544694","8,7,6,5,4,3,2,1","WHEAT CROP,WHEAT CROP,WHEAT CROP,WHEAT CROP,WHEAT CROP,WHEAT CROP,WHEAT CROP,WHEAT CROP","180,187.665747560413,215.937112934454,238.48473335586115,160,171.16814581498994,175.9762704249274,188.725723947323","4,3,2,1,4,3,2,1","NETTLE WEED,NETTLE WEED,NETTLE WEED,NETTLE WEED,THISTLE WEED,THISTLE WEED,THISTLE WEED,THISTLE WEED","20,20,20,20,20,20,20,20","20,20,20,20,20,20,20,20","10,10,10,10,10,10,10,10","20,20,20,20,20,20,20,20","0,0,0,0,0,0,0,0","20,20,20,20,20,20,20,20","20,20,20,20,20,20,20,20","20,20,20,20,20,20,20,20","10,10,10,10,10,10,10,10","20,20,20,20,20,20,20,20","0,0,0,0,0,0,0,0","20,20,20,20,20,20,20,20","0,0,0,0,0,0,0,0","3218,1699,1660,882,3882,924,160,676","11.778601828337852,33.955500889565954,20.676439430150587,54.778964097041126,18.016245113462766,11.81969313298628,46.045744193902365,43.886592390938404","7.665747560412992,28.27136537404101,22.547620421407153,20.212976396318133,11.168145814989956,4.808124609937458,12.749453522395598,28.19158707181517","0","0"
"4055","86","text","0","127","1467015","0-0","","","","","","","","","","","","","","","","","","","","","","","","","","","","","","","","","","","","",""
"","","plant-game","0","128","1481043","0-0","","200","190","4","CORN CROP","Left","200","180","2","THISTLE WEED","experimental","51","1,2,3,4","190,207.96873893692697,242.77154818629802,269.7737326412402","4,3,2,1","CORN CROP,CORN CROP,CORN CROP,CORN CROP","180,183.8068540653383,180,156.61738764829627","2,1,2,1","THISTLE WEED,THISTLE WEED,NETTLE WEED,NETTLE WEED","20,20,20,20","20,20,20,20","10,10,10,10","20,20,20,20","0,0,0,0","20,20,20,20","20,20,20,20","20,20,20,20","10,10,10,10","20,20,20,20","0,0,0,0","20,20,20,20","1,1,1,1","3155,2508,2661,859","17.968738936926957,34.802809249371045,27.00218445494219,24.153377743966196","3.806854065338313,24.999443844380885,-23.38261235170372,-19.218733151289186","0","0"
"677","86","text","0","129","1481810","0-0","","","","","","","","","","","","","","","","","","","","","","","","","","","","","","","","","","","","",""
"","","plant-game","0","130","1492496","0-0","","200","180","2","CORN CROP","Right","200","190","2","NETTLE WEED","experimental","52","1,2","190,211.5372901139745","2,1","NETTLE WEED,NETTLE WEED","180,162.43181408027988","2,1","CORN CROP,CORN CROP","0,0","20,20","10,10","20,20","20,20","20,20","0,0","20,20","10,10","20,20","20,20","20,20","1,0","4281,865","21.5372901139745,-16.251742964929996","-17.568185919720122,30.84316195450255","0","0"
"593","86","text","0","131","1493179","0-0","","","","","","","","","","","","","","","","","","","","","","","","","","","","","","","","","","","","",""
"","","plant-game","0","132","1515212","0-0","","200","120","8","CORN CROP","Left","200","190","1","NETTLE WEED","experimental","53","1,2,3,4,5,6,7,8","120,137.1274707809804,161.43730230951365,229.12083739146826,260.2749609313609,264.5807683094305,306.90367063577696,347.15616260309156","8,7,6,5,4,3,2,1","CORN CROP,CORN CROP,CORN CROP,CORN CROP,CORN CROP,CORN CROP,CORN CROP,CORN CROP","190,130,134.38959591052526,150.70213301283985,131.2075017099676,144.1021228786982,153.29661198645215,118.61628268927821","1,7,6,5,4,3,2,1","NETTLE WEED,THISTLE WEED,THISTLE WEED,THISTLE WEED,THISTLE WEED,THISTLE WEED,THISTLE WEED,THISTLE WEED","20,20,20,20,20,20,20,20","20,20,20,20,20,20,20,20","10,10,10,10,10,10,10,10","20,20,20,20,20,20,20,20","0,0,0,0,0,0,0,0","20,20,20,20,20,20,20,20","20,20,20,20,20,20,20,20","20,20,20,20,20,20,20,20","10,10,10,10,10,10,10,10","20,20,20,20,20,20,20,20","0,0,0,0,0,0,0,0","20,20,20,20,20,20,20,20","0,0,0,0,0,0,1,1","2552,1860,1865,2434,1378,1254,1516,470","17.127470780980378,24.309831528533262,67.6835350819546,31.15412353989263,4.3058073780695665,42.32290232634648,40.25249196731459,0.37312508844300607","2.0199091145035624,4.389595910525246,16.312537102314593,-19.49463130287225,12.894621168730598,9.194489107753952,-34.68032929717394,-3.212491788094629","0","0"
"534","86","text","0","133","1515866","0-0","","","","","","","","","","","","","","","","","","","","","","","","","","","","","","","","","","","","",""
"","","plant-game","0","134","1534382","0-0","","200","180","8","WHEAT CROP","Left","200","190","4","THISTLE WEED","experimental","54","1,2,3,4,5,6,7,8","180,224.8604870602915,222.35613283557413,246.93794041279818,248.1150313703596,275.44868504889655,265.5250621288499,259.16678937759826","8,7,6,5,4,3,2,1","WHEAT CROP,WHEAT CROP,WHEAT CROP,WHEAT CROP,WHEAT CROP,WHEAT CROP,WHEAT CROP,WHEAT CROP","190,153.94996605397534,171.18757805479055,181.45424710129726,160,118.37105453888634,130.60029229847035,118.1099082535975","4,3,2,1,4,3,2,1","THISTLE WEED,THISTLE WEED,THISTLE WEED,THISTLE WEED,NETTLE WEED,NETTLE WEED,NETTLE WEED,NETTLE WEED","20,20,20,20,20,20,20,20","20,20,20,20,20,20,20,20","10,10,10,10,10,10,10,10","20,20,20,20,20,20,20,20","0,0,0,0,0,0,0,0","20,20,20,20,20,20,20,20","20,20,20,20,20,20,20,20","20,20,20,20,20,20,20,20","10,10,10,10,10,10,10,10","20,20,20,20,20,20,20,20","0,0,0,0,0,0,0,0","20,20,20,20,20,20,20,20","1,1,1,1,1,1,1,1","6139,440,540,461,3117,348,415,317","44.86048706029148,-2.504354224717371,24.58180757722407,1.1770909575613926,27.33365367853699,-9.923622920046618,-6.358272751251667,10.149764949758449","-36.05003394602466,17.23761200081522,10.26666904650671,-11.096358388203525,-41.62894546111366,12.229237759584015,-12.490384044872854,42.13968358793102","0","0"
"510","86","text","0","135","1534982","0-0","","","","","","","","","","","","","","","","","","","","","","","","","","","","","","","","","","","","",""
"","","plant-game","0","136","1550050","0-0","","200","180","2","WHEAT CROP","Left","200","180","4","NETTLE WEED","experimental","55","1,2,3,4","180,201.24277204488283,180,180.36535519407008","2,1,2,1","WHEAT CROP,WHEAT CROP,CORN CROP,CORN CROP","180,137.34631856478012,115.83513481585958,170.37027040991504","4,3,2,1","NETTLE WEED,NETTLE WEED,NETTLE WEED,NETTLE WEED","20,20,20,20","20,20,20,20","10,10,10,10","20,20,20,20","0,0,0,0","20,20,20,20","20,20,20,20","20,20,20,20","10,10,10,10","20,20,20,20","0,0,0,0","20,20,20,20","1,1,0,0","2127,371,1947,515","21.242772044882837,-11.474937102047182,0.3653551940700801,20.09611578059479","-42.65368143521988,-21.511183748920544,54.53513559405547,-16.45339349928244","0","0"
"433","86","text","0","137","1550571","0-0","","","","","","","","","","","","","","","","","","","","","","","","","","","","","","","","","","","","",""
"","","plant-game","0","138","1625032","0-0","","200","120","8","CORN CROP","Right","200","160","4","NETTLE WEED","experimental","56","1,2,3,4,5,6,7,8","160,183.35797890719815,204.2212155075111,243.89526350165642,160,161.52186436851994,204.18013096268817,207.24152950670748","4,3,2,1,4,3,2,1","NETTLE WEED,NETTLE WEED,NETTLE WEED,NETTLE WEED,THISTLE WEED,THISTLE WEED,THISTLE WEED,THISTLE WEED","120,128.76634931773447,157.49911022627703,162.3759531429694,216.9726558326732,236.95556094530215,269.92395798867665,273.7668661596974","8,7,6,5,4,3,2,1","CORN CROP,CORN CROP,CORN CROP,CORN CROP,CORN CROP,CORN CROP,CORN CROP,CORN CROP","0,0,0,0,0,0,0,0","20,20,20,20,20,20,20,20","10,10,10,10,10,10,10,10","20,20,20,20,20,20,20,20","20,20,20,20,20,20,20,20","20,20,20,20,20,20,20,20","0,0,0,0,0,0,0,0","20,20,20,20,20,20,20,20","10,10,10,10,10,10,10,10","20,20,20,20,20,20,20,20","20,20,20,20,20,20,20,20","20,20,20,20,20,20,20,20","1,1,1,1,1,1,0,0","2078,951,1622,701,58014,859,2925,491","23.357978907198152,20.86323660031296,39.67404799414531,23.365138587556007,1.521864368519946,42.65826659416824,3.0613985440193083,-21.88678187999759","8.766349317734454,28.73276090854256,4.876842916692372,54.59670268970381,19.982905112628938,32.968397043374516,3.84290817102072,-60.923457543191084","0","0"
"517","86","text","0","139","1625639","0-0","","","","","","","","","","","","","","","","","","","","","","","","","","","","","","","","","","","","",""
"","","plant-game","0","140","1648748","0-0","","200","120","2","WHEAT CROP","Left","200","180","1","THISTLE WEED","experimental","57","1,2","120,133.9735874983387","2,1","WHEAT CROP,WHEAT CROP","180,190","1,1","THISTLE WEED,NETTLE WEED","20,20","20,20","10,10","20,20","0,0","20,20","20,20","20,20","10,10","20,20","0,0","20,20","0,0","4428,3675","13.973587498338702,-20.30194837354105","9.020173688357042,41.75102572675081","1","0"
"667","86","text","0","141","1649475","0-0","","","","","","","","","","","","","","","","","","","","","","","","","","","","","","","","","","","","",""
"","","plant-game","0","142","1663075","0-0","","200","160","4","CORN CROP","Left","200","190","1","THISTLE WEED","experimental","58","1,2,3,4","160,200.04371358938397,210.22969434386755,212.01958372067207","4,3,2,1","CORN CROP,CORN CROP,CORN CROP,CORN CROP","190,170,157.2249614642596,157.93872603246828","1,3,2,1","THISTLE WEED,NETTLE WEED,NETTLE WEED,NETTLE WEED","20,20,20,20","20,20,20,20","10,10,10,10","20,20,20,20","0,0,0,0","20,20,20,20","20,20,20,20","20,20,20,20","10,10,10,10","20,20,20,20","0,0,0,0","20,20,20,20","0,1,1,1","2976,2570,527,607","40.04371358938398,10.185980754483586,1.7898893768045254,-12.45610940870792","19.634005141740744,-12.775038535740418,0.7137645682086808,13.093433258732565","0","0"
"571","86","text","0","143","1663706","0-0","","","","","","","","","","","","","","","","","","","","","","","","","","","","","","","","","","","","",""
"","","plant-game","0","144","1704704","0-0","","200","120","2","WHEAT CROP","Right","200","190","1","NETTLE WEED","experimental","59","1,2","190,190","1,1","NETTLE WEED,THISTLE WEED","120,132.84161205682312","2,1","WHEAT CROP,WHEAT CROP","0,0","20,20","10,10","20,20","20,20","20,20","0,0","20,20","10,10","20,20","20,20","20,20","1,1","31561,1360","34.29809195231459,47.920985075540806","12.841612056823113,20.00165814699668","0","0"
"857","86","text","0","145","1705651","0-0","","","","","","","","","","","","","","","","","","","","","","","","","","","","","","","","","","","","",""
"","","plant-game","0","146","1811538","0-0","","200","180","2","CORN CROP","Left","200","180","1","THISTLE WEED","experimental","60","1,2","180,192.08272119845603","2,1","CORN CROP,CORN CROP","180,190","1,1","THISTLE WEED,NETTLE WEED","20,20","20,20","10,10","20,20","0,0","20,20","20,20","20,20","10,10","20,20","0,0","20,20","1,0","97528,1277","12.082721198456028,26.610172854553596","26.50571322648281,18.477422073645656","0","0"
"239","86","text","0","147","1811879","0-0","","","","","","","","","","","","","","","","","","","","","","","","","","","","","","","","","","","","",""
"","","plant-game","0","148","1822066","0-0","","200","120","4","CORN CROP","Left","200","180","4","THISTLE WEED","experimental","61","1,2,3,4","120,153.06028653278605,161.78900645306823,184.28733435286276","4,3,2,1","CORN CROP,CORN CROP,CORN CROP,CORN CROP","180,205.75748517968333,234.3878669585346,273.32325946008723","4,3,2,1","THISTLE WEED,THISTLE WEED,THISTLE WEED,THISTLE WEED","20,20,20,20","20,20,20,20","10,10,10,10","20,20,20,20","0,0,0,0","20,20,20,20","20,20,20,20","20,20,20,20","10,10,10,10","20,20,20,20","0,0,0,0","20,20,20,20","0,0,0,0","3842,1062,469,349","33.06028653278605,8.728719920282169,22.498327899794525,29.816915185124657","25.757485179683336,28.630381778851262,38.93539250155262,22.61033893421911","0","0"
"511","86","text","0","149","1822681","0-0","","","","","","","","","","","","","","","","","","","","","","","","","","","","","","","","","","","","",""
"","","plant-game","0","150","1833264","0-0","","200","160","2","WHEAT CROP","Right","200","180","4","THISTLE WEED","experimental","62","1,2,3,4","180,197.53795614475257,233.08827609229948,251.74079277012353","4,3,2,1","THISTLE WEED,THISTLE WEED,THISTLE WEED,THISTLE WEED","160,190.33119005970033,180,220.67921275788862","2,1,2,1","WHEAT CROP,WHEAT CROP,CORN CROP,CORN CROP","0,0,0,0","20,20,20,20","10,10,10,10","20,20,20,20","20,20,20,20","20,20,20,20","0,0,0,0","20,20,20,20","10,10,10,10","20,20,20,20","20,20,20,20","20,20,20,20","1,1,1,1","3041,588,1869,244","17.53795614475258,35.55031994754692,18.652516677824053,79.74556222156988","30.33119005970033,15.759860924814205,40.67921275788862,41.42904927160634","0","0"
"143","86","text","0","151","1833447","0-0","","","","","","","","","","","","","","","","","","","","","","","","","","","","","","","","","","","","",""
"","","plant-game","0","152","1851128","0-0","","200","160","2","WHEAT CROP","Right","200","190","8","THISTLE WEED","experimental","63","1,2,3,4,5,6,7,8","190,158.76454772066992,199.08317667639778,236.64071753009205,250.95941489357566,233.7101130806654,208.0930727846788,243.7010044919836","8,7,6,5,4,3,2,1","THISTLE WEED,THISTLE WEED,THISTLE WEED,THISTLE WEED,THISTLE WEED,THISTLE WEED,THISTLE WEED,THISTLE WEED","160,207.482937472451,140,167.30506885407857,156.63415182601514,144.99925225335465,169.74128259818838,183.98677650147485","2,1,6,5,4,3,2,1","WHEAT CROP,WHEAT CROP,CORN CROP,CORN CROP,CORN CROP,CORN CROP,CORN CROP,CORN CROP","0,0,0,0,0,0,0,0","20,20,20,20,20,20,20,20","10,10,10,10,10,10,10,10","20,20,20,20,20,20,20,20","20,20,20,20,20,20,20,20","20,20,20,20,20,20,20,20","0,0,0,0,0,0,0,0","20,20,20,20,20,20,20,20","10,10,10,10,10,10,10,10","20,20,20,20,20,20,20,20","20,20,20,20,20,20,20,20","20,20,20,20,20,20,20,20","0,1,0,0,0,0,0,0","3293,1956,1635,763,368,87,558,405","-31.235452279330083,40.31862895572787,37.557540853694256,14.318697363483606,-17.24930181291025,-25.61704029598658,35.607931707304814,7.616937825971119","47.482937472450985,18.31308560250076,27.305068854078574,-10.670917028063423,-11.634899572660478,24.742030344833708,14.245493903286466,-23.875505354102494","0","0"
"1759","86","text","0","153","1853017","0-0","","","","","","","","","","","","","","","","","","","","","","","","","","","","","","","","","","","","",""
"","","plant-game","0","154","1886245","0-0","","200","160","4","WHEAT CROP","Right","200","160","8","THISTLE WEED","experimental","64","1,2,3,4,5,6,7,8","160,200.7332745238764,202.0663188222478,238.7155161325532,275.4261880561866,283.4467658254861,288.20477580947676,329.05645172191726","8,7,6,5,4,3,2,1","THISTLE WEED,THISTLE WEED,THISTLE WEED,THISTLE WEED,THISTLE WEED,THISTLE WEED,THISTLE WEED,THISTLE WEED","160,167.7671489626297,178.87073842658995,217.75648973573004,160,153.18245348577796,182.68138964229962,186.7558316048052","4,3,2,1,4,3,2,1","WHEAT CROP,WHEAT CROP,WHEAT CROP,WHEAT CROP,CORN CROP,CORN CROP,CORN CROP,CORN CROP","0,0,0,0,0,0,0,0","20,20,20,20,20,20,20,20","10,10,10,10,10,10,10,10","20,20,20,20,20,20,20,20","20,20,20,20,20,20,20,20","20,20,20,20,20,20,20,20","0,0,0,0,0,0,0,0","20,20,20,20,20,20,20,20","10,10,10,10,10,10,10,10","20,20,20,20,20,20,20,20","20,20,20,20,20,20,20,20","20,20,20,20,20,20,20,20","1,1,1,1,1,1,1,1","1742,2276,290,108,4538,341,75,109","40.7332745238764,1.33304429837143,36.6491973103054,36.71067192363343,8.02057776929951,4.75800998399065,40.85167591244053,17.11296512334091","7.767148962629705,11.103589463960253,38.88575130914009,29.527701760330082,-6.817546514222059,29.49893615652165,4.074441962505572,30.07407233694515","0","0"
"944","86","text","0","155","1887283","0-0","","","","","","","","","","","","","","","","","","","","","","","","","","","","","","","","","","","","",""
"","","plant-game","0","156","1909658","0-0","","200","190","1","CORN CROP","Left","200","180","8","NETTLE WEED","experimental","65","1,2,3,4,5,6,7,8","190,130,123.55695551466594,129.31191797324988,124.98940727002488,116.0535049280002,104.77299527426558,65.33031922951119","1,7,6,5,4,3,2,1","CORN CROP,WHEAT CROP,WHEAT CROP,WHEAT CROP,WHEAT CROP,WHEAT CROP,WHEAT CROP,WHEAT CROP","180,196.16386229982123,162.3407096533381,176.91962177880242,177.29065563126176,177.89778201829193,158.44208654237397,197.53748380841614","8,7,6,5,4,3,2,1","NETTLE WEED,NETTLE WEED,NETTLE WEED,NETTLE WEED,NETTLE WEED,NETTLE WEED,NETTLE WEED,NETTLE WEED","20,20,20,20,20,20,20,20","20,20,20,20,20,20,20,20","10,10,10,10,10,10,10,10","20,20,20,20,20,20,20,20","0,0,0,0,0,0,0,0","20,20,20,20,20,20,20,20","20,20,20,20,20,20,20,20","20,20,20,20,20,20,20,20","10,10,10,10,10,10,10,10","20,20,20,20,20,20,20,20","0,0,0,0,0,0,0,0","20,20,20,20,20,20,20,20","1,1,1,1,1,1,1,1","14136,64,102,65,54,64,67,57","-13.13742611355604,-6.443044485334052,5.754962458583936,-4.322510703224988,-8.935902342024683,-11.280509653734605,-39.44267604475439,35.68175089898483","16.163862299821236,-33.82315264648313,14.578912125464306,0.371033852459347,0.6071263870301734,-19.45569547591797,39.09539726604216,-19.424177101759426","0","0"
"569","86","text","0","157","1910305","0-0","","","","","","","","","","","","","","","","","","","","","","","","","","","","","","","","","","","","",""
"","","plant-game","0","158","1926381","0-0","","200","120","4","WHEAT CROP","Left","200","160","1","NETTLE WEED","experimental","66","1,2,3,4","120,155.88034405908832,160.73192556618113,176.7017965255176","4,3,2,1","WHEAT CROP,WHEAT CROP,WHEAT CROP,WHEAT CROP","160,170,162.493587899364,161.60487876815645","1,3,2,1","NETTLE WEED,THISTLE WEED,THISTLE WEED,THISTLE WEED","20,20,20,20","20,20,20,20","10,10,10,10","20,20,20,20","0,0,0,0","20,20,20,20","20,20,20,20","20,20,20,20","10,10,10,10","20,20,20,20","0,0,0,0","20,20,20,20","0,0,0,1","4439,1593,1440,2114","35.88034405908832,4.851581507092815,15.969870959336482,-19.290081426743363","8.026237731989474,-7.506412100635998,-0.888709131207559,22.485746585891274","1","0"
"526","86","text","0","159","1927001","0-0","","","","","","","","","","","","","","","","","","","","","","","","","","","","","","","","","","","","",""
"","","plant-game","0","160","1945000","0-0","","200","160","8","WHEAT CROP","Right","200","190","1","THISTLE WEED","experimental","67","1,2,3,4,5,6,7,8","190,130,114.56738043321084,126.47523184877937,153.29706368518544,149.12133576337925,188.5832590102189,180.2586344473135","1,7,6,5,4,3,2,1","THISTLE WEED,NETTLE WEED,NETTLE WEED,NETTLE WEED,NETTLE WEED,NETTLE WEED,NETTLE WEED,NETTLE WEED","160,141.20365892127887,170.6059344901746,186.0315530416887,207.067148983232,200.680574385052,249.16276925243085,268.83099413093777","8,7,6,5,4,3,2,1","WHEAT CROP,WHEAT CROP,WHEAT CROP,WHEAT CROP,WHEAT CROP,WHEAT CROP,WHEAT CROP,WHEAT CROP","0,0,0,0,0,0,0,0","20,20,20,20,20,20,20,20","10,10,10,10,10,10,10,10","20,20,20,20,20,20,20,20","20,20,20,20,20,20,20,20","20,20,20,20,20,20,20,20","0,0,0,0,0,0,0,0","20,20,20,20,20,20,20,20","10,10,10,10,10,10,10,10","20,20,20,20,20,20,20,20","20,20,20,20,20,20,20,20","20,20,20,20,20,20,20,20","0,1,1,1,1,1,0,0","3360,2929,228,83,2589,379,1547,570","15.68916634316109,-15.43261956678915,11.907851415568535,26.821831836406076,-4.1757279218061925,39.46192324683965,-8.324624562905411,24.0494891636787","-18.796341078721127,29.402275568895746,15.425618551514118,21.035595941543267,-6.386574598179973,48.48219486737884,19.668224878506905,42.78373303997644","0","0"
"664","86","text","0","161","1945754","0-0","","","","","","","","","","","","","","","","","","","","","","","","","","","","","","","","","","","","",""
"","","plant-game","0","162","1957646","0-0","","200","180","4","CORN CROP","Left","200","160","2","THISTLE WEED","experimental","68","1,2,3,4","180,169.66824720180992,177.93152049042376,177.0692332099978","4,3,2,1","CORN CROP,CORN CROP,CORN CROP,CORN CROP","160,132.64478284951358,180,187.55227958987882","2,1,2,1","THISTLE WEED,THISTLE WEED,NETTLE WEED,NETTLE WEED","20,20,20,20","20,20,20,20","10,10,10,10","20,20,20,20","0,0,0,0","20,20,20,20","20,20,20,20","20,20,20,20","10,10,10,10","20,20,20,20","0,0,0,0","20,20,20,20","1,1,0,1","4348,175,670,109","-10.331752798190072,8.263273288613858,-0.8622872804259565,6.881745664134467","-27.35521715048643,18.305873389426477,7.552279589878811,-15.140469176413422","0","0"
"1362","86","text","0","163","1959128","0-0","","","","","","","","","","","","","","","","","","","","","","","","","","","","","","","","","","","","",""
"","","plant-game","0","164","1966039","0-0","","200","180","4","CORN CROP","Left","200","180","4","NETTLE WEED","experimental","69","1,2,3,4","180,206.0029922828819,181.87648768080675,200.81771875342335","4,3,2,1","CORN CROP,CORN CROP,CORN CROP,CORN CROP","180,223.31949248619637,217.31792377055794,274.07864988316373","4,3,2,1","NETTLE WEED,NETTLE WEED,NETTLE WEED,NETTLE WEED","20,20,20,20","20,20,20,20","10,10,10,10","20,20,20,20","0,0,0,0","20,20,20,20","20,20,20,20","20,20,20,20","10,10,10,10","20,20,20,20","0,0,0,0","20,20,20,20","0,1,0,0","1228,191,90,259","26.002992282881895,-24.126504602075155,18.941231072616606,-7.225640422052038","43.31949248619637,-6.001568715638439,56.76072611260577,45.32301390341391","0","0"
"2471","86","text","0","165","1968642","0-0","","","","","","","","","","","","","","","","","","","","","","","","","","","","","","","","","","","","",""
"","","plant-game","0","166","1982126","0-0","","200","160","1","CORN CROP","Left","200","190","4","NETTLE WEED","experimental","70","1,2,3,4","160,170,162.59804001555716,166.80738301912592","1,3,2,1","CORN CROP,WHEAT CROP,WHEAT CROP,WHEAT CROP","190,249.82588439123853,272.43880787291675,300.53812663501316","4,3,2,1","NETTLE WEED,NETTLE WEED,NETTLE WEED,NETTLE WEED","20,20,20,20","20,20,20,20","10,10,10,10","20,20,20,20","0,0,0,0","20,20,20,20","20,20,20,20","20,20,20,20","10,10,10,10","20,20,20,20","0,0,0,0","20,20,20,20","0,1,0,1","4340,1252,168,5","26.985407195820926,-7.401959984442846,4.209343003568751,18.04096690202624","59.825884391238525,22.61292348167825,28.099318762096377,-39.710126390755626","0","0"
"3419","86","text","0","167","1985645","0-0","","","","","","","","","","","","","","","","","","","","","","","","","","","","","","","","","","","","",""
"","","plant-game","0","168","2009986","0-0","","200","190","2","WHEAT CROP","Right","200","120","8","THISTLE WEED","experimental","71","1,2,3,4,5,6,7,8","120,144.32184940171652,144.73396202889637,153.020339526605,136.10097810398287,135.12556034251958,128.90720213223372,143.82490545883735","8,7,6,5,4,3,2,1","THISTLE WEED,THISTLE WEED,THISTLE WEED,THISTLE WEED,THISTLE WEED,THISTLE WEED,THISTLE WEED,THISTLE WEED","190,212.4839764077155,140,144.8549193818561,183.38036640606282,238.67244022848647,250.81327583002002,265.3331861323396","2,1,6,5,4,3,2,1","WHEAT CROP,WHEAT CROP,CORN CROP,CORN CROP,CORN CROP,CORN CROP,CORN CROP,CORN CROP","0,0,0,0,0,0,0,0","20,20,20,20,20,20,20,20","10,10,10,10,10,10,10,10","20,20,20,20,20,20,20,20","20,20,20,20,20,20,20,20","20,20,20,20,20,20,20,20","0,0,0,0,0,0,0,0","20,20,20,20,20,20,20,20","10,10,10,10,10,10,10,10","20,20,20,20,20,20,20,20","20,20,20,20,20,20,20,20","20,20,20,20,20,20,20,20","1,1,1,1,1,1,1,1","13420,101,1305,81,90,266,3450,91","24.32184940171653,0.4121126271798552,8.286377497708619,-16.919361422622117,-0.9754177614632837,-6.218358210285867,14.917703326603615,13.752593148556702","22.483976407715502,32.82215601538939,4.854919381856092,38.52544702420674,55.292073822423646,12.14083560153355,14.519910302319627,20.554233033550936","0","0"
"1545","86","text","0","169","2011631","0-0","","","","","","","","","","","","","","","","","","","","","","","","","","","","","","","","","","","","",""
"","","plant-game","0","170","2020073","0-0","","200","160","2","WHEAT CROP","Right","200","160","2","THISTLE WEED","experimental","72","1,2","160,187.52477895628485","2,1","THISTLE WEED,THISTLE WEED","160,180.91166440402333","2,1","WHEAT CROP,WHEAT CROP","0,0","20,20","10,10","20,20","20,20","20,20","0,0","20,20","10,10","20,20","20,20","20,20","1,1","1887,1387","27.52477895628484,31.237995518964723","20.911664404023334,27.37673133833343","0","0"
"2173","86","text","0","171","2022336","0-0","","","","","","","","","","","","","","","","","","","","","","","","","","","","","","","","","","","","",""
"","","plant-game","0","172","2064372","0-0","","200","190","1","WHEAT CROP","Left","200","160","8","THISTLE WEED","experimental","73","1,2,3,4,5,6,7,8","190,130,139.22926092653933,171.92174401275327,133.2587993984757,114.47766553033816,136.99096917587,145.7145423594138","1,7,6,5,4,3,2,1","WHEAT CROP,CORN CROP,CORN CROP,CORN CROP,CORN CROP,CORN CROP,CORN CROP,CORN CROP","160,157.3906080366835,196.53243292146402,195.6351247351515,212.71630821338212,241.56154451998253,219.31427531339727,226.00745862344294","8,7,6,5,4,3,2,1","THISTLE WEED,THISTLE WEED,THISTLE WEED,THISTLE WEED,THISTLE WEED,THISTLE WEED,THISTLE WEED,THISTLE WEED","20,20,20,20,20,20,20,20","20,20,20,20,20,20,20,20","10,10,10,10,10,10,10,10","20,20,20,20,20,20,20,20","0,0,0,0,0,0,0,0","20,20,20,20,20,20,20,20","20,20,20,20,20,20,20,20","20,20,20,20,20,20,20,20","10,10,10,10,10,10,10,10","20,20,20,20,20,20,20,20","0,0,0,0,0,0,0,0","20,20,20,20,20,20,20,20","1,0,1,1,1,1,1,1","2866,24009,1638,1410,728,99,110,77","15.142395596224167,9.229260926539329,32.69248308621394,-38.662944614277556,-18.78113386813754,22.51330364553184,8.723573183543795,2.6871053011486006","-2.6093919633165124,39.14182488478052,-0.8973081863125171,17.08118347823064,28.845236306600416,-22.24726920658526,6.693183310045658,-39.62148940841042","0","0"
"291","86","text","0","173","2064743","0-0","","","","","","","","","","","","","","","","","","","","","","","","","","","","","","","","","","","","",""
"","","plant-game","0","174","2070308","0-0","","200","180","2","CORN CROP","Left","200","160","1","THISTLE WEED","experimental","74","1,2","180,167.34848476609295","2,1","CORN CROP,CORN CROP","160,190","1,1","THISTLE WEED,NETTLE WEED","20,20","20,20","10,10","20,20","0,0","20,20","20,20","20,20","10,10","20,20","0,0","20,20","1,0","301,429","-12.651515233907038,21.991921380544298","8.341005179579867,16.22599357767832","0","0"
"252","86","text","0","175","2070680","0-0","","","","","","","","","","","","","","","","","","","","","","","","","","","","","","","","","","","","",""
"","","plant-game","0","176","2085884","0-0","","200","120","4","WHEAT CROP","Right","200","180","2","THISTLE WEED","experimental","75","1,2,3,4","180,206.71229505840765,180,191.80451119723807","2,1,2,1","THISTLE WEED,THISTLE WEED,NETTLE WEED,NETTLE WEED","120,167.17387110005478,187.3552657860573,199.9823840492755","4,3,2,1","WHEAT CROP,WHEAT CROP,WHEAT CROP,WHEAT CROP","0,0,0,0","20,20,20,20","10,10,10,10","20,20,20,20","20,20,20,20","20,20,20,20","0,0,0,0","20,20,20,20","10,10,10,10","20,20,20,20","20,20,20,20","20,20,20,20","1,1,1,0","2215,89,3810,2392","26.712295058407644,24.724966679813768,11.80451119723806,-10.487549546064196","47.17387110005478,20.181394686002502,12.62711826321822,-7.503155041053988","0","0"
"3055","86","text","0","177","2089039","0-0","","","","","","","","","","","","","","","","","","","","","","","","","","","","","","","","","","","","",""
"","","plant-game","0","178","2109000","0-0","","200","160","4","WHEAT CROP","Left","200","120","2","THISTLE WEED","experimental","76","1,2,3,4","160,181.89547609885602,201.5856706101549,263.2295181735759","4,3,2,1","WHEAT CROP,WHEAT CROP,WHEAT CROP,WHEAT CROP","120,170.32966715771263,180,207.0897183766361","2,1,2,1","THISTLE WEED,THISTLE WEED,NETTLE WEED,NETTLE WEED","20,20,20,20","20,20,20,20","10,10,10,10","20,20,20,20","0,0,0,0","20,20,20,20","20,20,20,20","20,20,20,20","10,10,10,10","20,20,20,20","0,0,0,0","20,20,20,20","0,0,0,1","2383,337,2239,4996","21.895476098856015,19.69019451129887,61.643847563421005,-15.574846637238824","50.32966715771263,23.3978014956909,27.08971837663612,-9.97876181896745","0","0"
"6518","86","text","0","179","2115628","0-0","","","","","","","","","","","","","","","","","","","","","","","","","","","","","","","","","","","","",""
"","","plant-game","0","180","2145266","0-0","","200","120","4","WHEAT CROP","Left","200","190","2","NETTLE WEED","experimental","77","1,2,3,4","120,152.84194740223185,161.2541289124316,181.12479618431416","4,3,2,1","WHEAT CROP,WHEAT CROP,WHEAT CROP,WHEAT CROP","190,189.3316812540187,180,183.78267108057003","2,1,2,1","NETTLE WEED,NETTLE WEED,THISTLE WEED,THISTLE WEED","20,20,20,20","20,20,20,20","10,10,10,10","20,20,20,20","0,0,0,0","20,20,20,20","20,20,20,20","20,20,20,20","10,10,10,10","20,20,20,20","0,0,0,0","20,20,20,20","0,0,0,0","17388,822,1326,335","32.841947402231845,8.412181510199769,19.870667271882567,30.036586659614812","-0.6683187459813169,11.595806982222994,3.7826710805700294,8.959996158092325","0","0"
"417","86","text","0","181","2145798","0-0","","","","","","","","","","","","","","","","","","","","","","","","","","","","","","","","","","","","",""
"","","plant-game","0","182","2166683","0-0","","200","180","4","CORN CROP","Right","200","190","1","NETTLE WEED","experimental","78","1,2,3,4","190,170,186.60168669093747,159.24687939882313","1,3,2,1","NETTLE WEED,THISTLE WEED,THISTLE WEED,THISTLE WEED","180,196.0389598497451,161.58693885475094,197.0303217176791","4,3,2,1","CORN CROP,CORN CROP,CORN CROP,CORN CROP","0,0,0,0","20,20,20,20","10,10,10,10","20,20,20,20","20,20,20,20","20,20,20,20","0,0,0,0","20,20,20,20","10,10,10,10","20,20,20,20","20,20,20,20","20,20,20,20","0,0,1,1","3087,4159,3585,1262","1.5234542080810725,16.601686690937484,-27.35480729211435,3.0443101693080123","16.03895984974511,-34.452020994994186,35.44338286292816,-52.40666256039658","1","0"
"2843","86","text","0","183","2169620","0-0","","","","","","","","","","","","","","","","","","","","","","","","","","","","","","","","","","","","",""
"","","plant-game","0","184","2202787","0-0","","200","180","8","CORN CROP","Left","200","190","1","NETTLE WEED","experimental","79","1,2,3,4,5,6,7,8","180,171.09529958103386,202.0471329385203,189.59518469586718,226.7221435547737,276.4055912695417,324.08129999496896,359.9707745252614","8,7,6,5,4,3,2,1","CORN CROP,CORN CROP,CORN CROP,CORN CROP,CORN CROP,CORN CROP,CORN CROP,CORN CROP","190,130,153.2279833217299,204.45320858539694,235.3040058361459,206.18728125607913,229.40474067860575,277.71491145400466","1,7,6,5,4,3,2,1","NETTLE WEED,THISTLE WEED,THISTLE WEED,THISTLE WEED,THISTLE WEED,THISTLE WEED,THISTLE WEED,THISTLE WEED","20,20,20,20,20,20,20,20","20,20,20,20,20,20,20,20","10,10,10,10,10,10,10,10","20,20,20,20,20,20,20,20","0,0,0,0,0,0,0,0","20,20,20,20,20,20,20,20","20,20,20,20,20,20,20,20","20,20,20,20,20,20,20,20","10,10,10,10,10,10,10,10","20,20,20,20,20,20,20,20","0,0,0,0,0,0,0,0","20,20,20,20,20,20,20,20","1,0,0,0,0,0,0,0","20575,2878,91,983,110,59,105,92","-8.904700418966133,30.95183335748643,-12.45194824265311,37.12695885890653,49.68344771476799,47.67570872542727,35.889474530292446,-12.158204335566928","4.902110212120961,23.227983321729905,51.22522526366702,30.85079725074897,-29.11672458006676,23.217459422526623,48.3101707753989,9.869097304538164","0","0"
"1226","86","text","0","185","2204113","0-0","","","","","","","","","","","","","","","","","","","","","","","","","","","","","","","","","","","","",""
"","","plant-game","0","186","2289200","0-0","","200","190","8","WHEAT CROP","Right","200","180","2","NETTLE WEED","experimental","80","1,2,3,4,5,6,7,8","180,191.81186757428273,140,86.4094625996444,131.23035201113723,189.73141359713657,177.5943995520657,191.1154861512128","2,1,6,5,4,3,2,1","NETTLE WEED,NETTLE WEED,THISTLE WEED,THISTLE WEED,THISTLE WEED,THISTLE WEED,THISTLE WEED,THISTLE WEED","190,152.11886891342428,145.4397438862752,166.83361900977124,216.0023120959769,258.1784119256816,274.4146707745837,315.067124001742","8,7,6,5,4,3,2,1","WHEAT CROP,WHEAT CROP,WHEAT CROP,WHEAT CROP,WHEAT CROP,WHEAT CROP,WHEAT CROP,WHEAT CROP","0,0,0,0,0,0,0,0","20,20,20,20,20,20,20,20","10,10,10,10,10,10,10,10","20,20,20,20,20,20,20,20","20,20,20,20,20,20,20,20","20,20,20,20,20,20,20,20","0,0,0,0,0,0,0,0","20,20,20,20,20,20,20,20","10,10,10,10,10,10,10,10","20,20,20,20,20,20,20,20","20,20,20,20,20,20,20,20","20,20,20,20,20,20,20,20","0,0,1,1,1,1,1,1","2738,75,73875,338,676,440,97,220","11.811867574282726,-3.1701738979390375,-53.5905374003556,44.82088941149282,58.50106158599935,-12.137014045070856,13.521086599147095,21.083681194604043","-37.88113108657573,-6.679125027149081,21.39387512349602,49.168693086205636,42.176099829704704,16.236258848902125,40.65245322715827,21.36367976808148","0","0"
"440","86","text","0","187","2289780","0-0","","","","","","","","","","","","","","","","","","","","","","","","","","","","","","","","","","","","",""
"","","plant-game","0","188","2302347","0-0","","200","190","4","WHEAT CROP","Right","200","190","8","THISTLE WEED","experimental","81","1,2,3,4,5,6,7,8","190,220.76320441147394,228.98211102133027,222.9719037053816,283.7353599135398,327.33121114424836,347.9499275168112,390.1331180138412","8,7,6,5,4,3,2,1","THISTLE WEED,THISTLE WEED,THISTLE WEED,THISTLE WEED,THISTLE WEED,THISTLE WEED,THISTLE WEED,THISTLE WEED","190,219.29865572874473,255.5850833333388,254.2405681418589,160,162.3820722339276,157.31324680745453,200.030884725963","4,3,2,1,4,3,2,1","WHEAT CROP,WHEAT CROP,WHEAT CROP,WHEAT CROP,CORN CROP,CORN CROP,CORN CROP,CORN CROP","0,0,0,0,0,0,0,0","20,20,20,20,20,20,20,20","10,10,10,10,10,10,10,10","20,20,20,20,20,20,20,20","20,20,20,20,20,20,20,20","20,20,20,20,20,20,20,20","0,0,0,0,0,0,0,0","20,20,20,20,20,20,20,20","10,10,10,10,10,10,10,10","20,20,20,20,20,20,20,20","20,20,20,20,20,20,20,20","20,20,20,20,20,20,20,20","1,1,1,1,1,1,1,0","1807,93,82,90,2084,789,511,595","30.763204411473936,8.218906609856344,-6.010207315948662,60.76345620815822,43.59585123070853,20.61871637256285,42.183190497030004,-2.362676253972956","29.29865572874472,36.28642760459406,-1.3445151914798998,-3.398064986942021,2.382072233927616,-5.068825426473072,42.71763791850846,43.51868937432728","0","0"
"824","86","text","0","189","2303251","0-0","","","","","","","","","","","","","","","","","","","","","","","","","","","","","","","","","","","","",""
"","","plant-game","0","190","2309267","0-0","","200","160","1","CORN CROP","Left","200","120","4","THISTLE WEED","experimental","82","1,2,3,4","160,170,173.46945708084203,168.65092365406773","1,3,2,1","CORN CROP,WHEAT CROP,WHEAT CROP,WHEAT CROP","120,142.87629136724556,171.7365305431546,190.89881232205687","4,3,2,1","THISTLE WEED,THISTLE WEED,THISTLE WEED,THISTLE WEED","20,20,20,20","20,20,20,20","10,10,10,10","20,20,20,20","0,0,0,0","20,20,20,20","20,20,20,20","20,20,20,20","10,10,10,10","20,20,20,20","0,0,0,0","20,20,20,20","1,0,0,1","606,801,115,73","-26.171933743235563,3.469457080842023,-4.818533426774302,-23.435028523651262","22.876291367245546,28.860239175909054,19.16228177890226,26.45080096514361","0","0"
"781","86","text","0","191","2310188","0-0","","","","","","","","","","","","","","","","","","","","","","","","","","","","","","","","","","","","",""
