"rt","key_press","trial_type","trial_index","trial_index_global","time_elapsed","internal_chunk_id","responses","experimental_goal_height","experimental_start_height","experimental_weeks_total","experimental_crop_type","experimental_crop_side","fixed_goal_height","fixed_start_height","fixed_weeks_total","fixed_crop_type","trial_kind","trial_number","stage","left_current_height","left_weeks_remaining","left_crop_type","right_current_height","right_weeks_remaining","right_crop_type","mean_left_growth_given_left","sd_left_growth_given_left","mean_left_growth_given_middle","sd_left_growth_given_middle","mean_left_growth_given_right","sd_left_growth_given_right","mean_right_growth_given_left","sd_right_growth_given_left","mean_right_growth_given_middle","sd_right_growth_given_middle","mean_right_growth_given_right","sd_right_growth_given_right","response","response_time","left_growth","right_growth","other_key_pressed","mouse_clicked"
"3568938","87","text","0","0","3569049","0-0","","","","","","","","","","","","","","","","","","","","","","","","","","","","","","","","","","","","",""
"6667","","survey-text","0","1","3576742","0-0","{""Q0"":""21""}","","","","","","","","","","","","","","","","","","","","","","","","","","","","","","","","","","","",""
"5500","86","text","0","2","5640","0-0","","","","","","","","","","","","","","","","","","","","","","","","","","","","","","","","","","","","",""
"","","plant-game","0","3","92366","0-0","","200","120","8","CORN CROP","Right","200","120","8","NETTLE WEED","practice","1","1,2,3,4,5,6,7,8","120,111.53242013193086,106.45838240281458,141.73699625769353,152.82941194576736,187.62164202478561,197.8419923331104,187.3075217334388","8,7,6,5,4,3,2,1","NETTLE WEED,NETTLE WEED,NETTLE WEED,NETTLE WEED,NETTLE WEED,NETTLE WEED,NETTLE WEED,NETTLE WEED","120,139.50306063747504,122.17700923503787,139.77346251002683,122.16648377143477,104.31754186313067,130.71436847631873,120.6424583339125","8,7,6,5,4,3,2,1","CORN CROP,CORN CROP,CORN CROP,CORN CROP,CORN CROP,CORN CROP,CORN CROP,CORN CROP","0,0,0,0,0,0,0,0","20,20,20,20,20,20,20,20","10,10,10,10,10,10,10,10","20,20,20,20,20,20,20,20","20,20,20,20,20,20,20,20","20,20,20,20,20,20,20,20","0,0,0,0,0,0,0,0","20,20,20,20,20,20,20,20","10,10,10,10,10,10,10,10","20,20,20,20,20,20,20,20","20,20,20,20,20,20,20,20","20,20,20,20,20,20,20,20","0,0,1,0,1,0,0,0","8572,2059,3144,9617,1351,2089,1754,1313","-8.467579868069137,-5.074037729116279,35.27861385487896,11.092415688073821,34.792230079018246,10.220350308324786,-10.534470599671597,1.4731515510916808","19.50306063747504,-17.32605140243717,17.596453274988967,-17.606978738592055,-17.8489419083041,26.396826613188068,-10.07191014240622,-14.527634761567217","0","0"
"1859","86","text","0","4","94365","0-0","","","","","","","","","","","","","","","","","","","","","","","","","","","","","","","","","","","","",""
"","","plant-game","0","5","132119","0-0","","200","160","4","CORN CROP","Right","200","160","4","NETTLE WEED","practice","2","1,2,3,4","160,188.01106953012305,195.66644972242253,193.39795064268867","4,3,2,1","NETTLE WEED,NETTLE WEED,NETTLE WEED,NETTLE WEED","160,174.80697174877932,164.30249133681724,186.24066332950184","4,3,2,1","CORN CROP,CORN CROP,CORN CROP,CORN CROP","0,0,0,0","20,20,20,20","10,10,10,10","20,20,20,20","20,20,20,20","20,20,20,20","0,0,0,0","20,20,20,20","10,10,10,10","20,20,20,20","20,20,20,20","20,20,20,20","1,1,1,1","1064,1746,1467,3207","28.01106953012305,7.655380192299486,-2.268499079733843,35.043506565904494","14.806971748779327,-10.504480411962064,21.9381719926846,11.173466596715938","0","0"
"2058","86","text","0","6","134297","0-0","","","","","","","","","","","","","","","","","","","","","","","","","","","","","","","","","","","","",""
"","","plant-game","0","7","165104","0-0","","200","180","2","WHEAT CROP","Left","200","180","2","NETTLE WEED","practice","3","1,2","180,172.42627360449427","2,1","WHEAT CROP,WHEAT CROP","180,216.23506732228958","2,1","NETTLE WEED,NETTLE WEED","20,20","20,20","10,10","20,20","0,0","20,20","20,20","20,20","10,10","20,20","0,0","20,20","0,1","735,5302","-7.573726395505737,-18.04165737339169","36.23506732228958,39.1126914692526","0","0"
"717","86","text","0","8","165991","0-0","","","","","","","","","","","","","","","","","","","","","","","","","","","","","","","","","","","","",""
"","","plant-game","0","9","190214","0-0","","200","190","1","CORN CROP","Right","200","190","1","NETTLE WEED","practice","4","1","190","1","NETTLE WEED","190","1","CORN CROP","0","20","10","20","20","20","0","20","10","20","20","20","1","451","-38.62549711422885","16.464096176753678","0","0"
"750","86","text","0","10","191074","0-0","","","","","","","","","","","","","","","","","","","","","","","","","","","","","","","","","","","","",""
"","","plant-game","0","11","228255","0-0","","200","120","8","WHEAT CROP","Left","200","160","8","NETTLE WEED","practice","5","1,2,3,4,5,6,7,8","120,132.17624890053514,187.37884738568,234.70124642364152,251.4945501719858,249.64565405934644,242.87033480487145,279.6992068408987","8,7,6,5,4,3,2,1","WHEAT CROP,WHEAT CROP,WHEAT CROP,WHEAT CROP,WHEAT CROP,WHEAT CROP,WHEAT CROP,WHEAT CROP","160,165.2234109535989,184.2015752845705,176.70912447458002,194.83388568394844,230.0849681043369,231.95750717764105,220.88513426518475","8,7,6,5,4,3,2,1","NETTLE WEED,NETTLE WEED,NETTLE WEED,NETTLE WEED,NETTLE WEED,NETTLE WEED,NETTLE WEED,NETTLE WEED","20,20,20,20,20,20,20,20","20,20,20,20,20,20,20,20","10,10,10,10,10,10,10,10","20,20,20,20,20,20,20,20","0,0,0,0,0,0,0,0","20,20,20,20,20,20,20,20","20,20,20,20,20,20,20,20","20,20,20,20,20,20,20,20","10,10,10,10,10,10,10,10","20,20,20,20,20,20,20,20","0,0,0,0,0,0,0,0","20,20,20,20,20,20,20,20","0,0,1,0,1,1,0,1","5008,2919,1628,3636,1467,4782,1081,592","12.176248900535146,55.20259848514483,47.322399037961546,16.79330374834427,-1.8488961126393586,-6.775319254474995,36.82887203602726,-8.78764708379417","5.22341095359889,18.978164330971627,-7.492450809990482,18.124761209368422,35.251082420388464,1.8725390733041472,-11.072372912456299,-2.6500743998276683","0","0"
"707","86","text","0","12","229062","0-0","","","","","","","","","","","","","","","","","","","","","","","","","","","","","","","","","","","","",""
"","","plant-game","0","13","250054","0-0","","200","180","4","CORN CROP","Left","200","160","4","THISTLE WEED","practice","6","1,2,3,4","180,229.4906372029817,214.86323021400702,258.75007234646876","4,3,2,1","CORN CROP,CORN CROP,CORN CROP,CORN CROP","160,205.074303368832,210.36122638690438,248.1286949215682","4,3,2,1","THISTLE WEED,THISTLE WEED,THISTLE WEED,THISTLE WEED","20,20,20,20","20,20,20,20","10,10,10,10","20,20,20,20","0,0,0,0","20,20,20,20","20,20,20,20","20,20,20,20","10,10,10,10","20,20,20,20","0,0,0,0","20,20,20,20","0,1,0,1","383,1894,1083,513","49.49063720298169,-14.627406988974682,43.886842132461716,26.050094030140556","45.074303368832005,5.28692301807237,37.767468534663834,33.37617672045788","0","0"
"783","86","text","0","14","250997","0-0","","","","","","","","","","","","","","","","","","","","","","","","","","","","","","","","","","","","",""
"","","plant-game","0","15","266812","0-0","","200","180","2","WHEAT CROP","Right","200","190","2","NETTLE WEED","practice","7","1,2","190,170.93703274558504","2,1","NETTLE WEED,NETTLE WEED","180,165.2271001308852","2,1","WHEAT CROP,WHEAT CROP","0,0","20,20","10,10","20,20","20,20","20,20","0,0","20,20","10,10","20,20","20,20","20,20","0,1","2101,1814","-19.06296725441495,85.91103640266645","-14.77289986911481,26.192333054345873","0","0"
"907","86","text","0","16","267870","0-0","","","","","","","","","","","","","","","","","","","","","","","","","","","","","","","","","","","","",""
"","","plant-game","0","17","321619","0-0","","200","120","4","CORN CROP","Left","200","120","8","THISTLE WEED","practice","8","1,2,3,4,5,6,7,8","120,132.0992918160324,147.00093870452608,140.37850986037196,160,175.8202400342634,185.2668094838109,207.05613624533345","4,3,2,1,4,3,2,1","CORN CROP,CORN CROP,CORN CROP,CORN CROP,WHEAT CROP,WHEAT CROP,WHEAT CROP,WHEAT CROP","120,173.0934277567015,172.5614759893886,173.1714613727895,152.9705665161598,196.07334189391418,215.00511678489013,238.0285001988193","8,7,6,5,4,3,2,1","THISTLE WEED,THISTLE WEED,THISTLE WEED,THISTLE WEED,THISTLE WEED,THISTLE WEED,THISTLE WEED,THISTLE WEED","20,20,20,20,20,20,20,20","20,20,20,20,20,20,20,20","10,10,10,10,10,10,10,10","20,20,20,20,20,20,20,20","0,0,0,0,0,0,0,0","20,20,20,20,20,20,20,20","20,20,20,20,20,20,20,20","20,20,20,20,20,20,20,20","10,10,10,10,10,10,10,10","20,20,20,20,20,20,20,20","0,0,0,0,0,0,0,0","20,20,20,20,20,20,20,20","0,1,1,1,0,1,0,1","3048,3647,971,786,3433,4702,3224,1207","12.099291816032414,14.901646888493662,-6.622428844154125,6.366086263318272,15.820240034263405,9.446569449547507,21.78932676152253,-8.414068750180757","53.09342775670147,-0.53195176731287,0.6099853834009001,-20.2008948566297,43.102775377754384,18.931774890975948,23.023383413929153,9.110773575739639","0","0"
"613","86","text","0","18","322352","0-0","","","","","","","","","","","","","","","","","","","","","","","","","","","","","","","","","","","","",""
"","","plant-game","0","19","362694","0-0","","200","160","4","WHEAT CROP","Right","200","160","2","THISTLE WEED","practice","9","1,2,3,4","160,143.4234377541393,180,226.93602239914668","2,1,2,1","THISTLE WEED,THISTLE WEED,NETTLE WEED,NETTLE WEED","160,152.4170537762741,150.41065659203818,189.40568759803458","4,3,2,1","WHEAT CROP,WHEAT CROP,WHEAT CROP,WHEAT CROP","0,0,0,0","20,20,20,20","10,10,10,10","20,20,20,20","20,20,20,20","20,20,20,20","0,0,0,0","20,20,20,20","10,10,10,10","20,20,20,20","20,20,20,20","20,20,20,20","0,0,1,0","363,1567,872,1918","-16.57656224586071,-6.417780249587677,46.936022399146694,-55.06259170822251","-7.5829462237259175,-2.0063971842359187,38.99503100599639,17.614066067281414","0","0"
"671","86","text","0","20","363515","0-0","","","","","","","","","","","","","","","","","","","","","","","","","","","","","","","","","","","","",""
"","","plant-game","0","21","391398","0-0","","200","180","2","CORN CROP","Left","200","180","1","NETTLE WEED","practice","10","1,2","180,197.93696043898316","2,1","CORN CROP,CORN CROP","180,190","1,1","NETTLE WEED,THISTLE WEED","20,20","20,20","10,10","20,20","0,0","20,20","20,20","20,20","10,10","20,20","0,0","20,20","0,1","6157,4688","17.93696043898317,-3.1351088298840386","14.558438071064016,25.382010831747607","0","0"
"547","86","text","0","22","392106","0-0","","","","","","","","","","","","","","","","","","","","","","","","","","","","","","","","","","","","",""
"","","plant-game","0","23","422373","0-0","","200","120","8","WHEAT CROP","Right","200","160","4","THISTLE WEED","practice","11","1,2,3,4,5,6,7,8","160,213.38986870906794,233.77222085248061,226.13505027308997,160,168.7143754460042,144.8754759708253,127.48464110138774","4,3,2,1,4,3,2,1","THISTLE WEED,THISTLE WEED,THISTLE WEED,THISTLE WEED,NETTLE WEED,NETTLE WEED,NETTLE WEED,NETTLE WEED","120,169.27884037155263,186.08100219683342,163.38200870622325,131.8395949682076,123.24109299040336,123.59853449645436,126.83342101337283","8,7,6,5,4,3,2,1","WHEAT CROP,WHEAT CROP,WHEAT CROP,WHEAT CROP,WHEAT CROP,WHEAT CROP,WHEAT CROP,WHEAT CROP","0,0,0,0,0,0,0,0","20,20,20,20,20,20,20,20","10,10,10,10,10,10,10,10","20,20,20,20,20,20,20,20","20,20,20,20,20,20,20,20","20,20,20,20,20,20,20,20","0,0,0,0,0,0,0,0","20,20,20,20,20,20,20,20","10,10,10,10,10,10,10,10","20,20,20,20,20,20,20,20","20,20,20,20,20,20,20,20","20,20,20,20,20,20,20,20","1,1,0,0,0,0,0,1","346,1773,863,283,703,1165,653,1669","53.38986870906794,20.382352143412678,-7.637170579390653,-7.274306258606495,8.714375446004187,-23.838899475178884,-17.390834869437573,-17.17399351497476","49.278840371552626,16.802161825280777,-22.698993490610185,-31.54241373801565,-8.598501977804238,0.35744150605100006,3.234886516918458,-19.59639514555719","0","0"
"657","86","text","0","24","423171","0-0","","","","","","","","","","","","","","","","","","","","","","","","","","","","","","","","","","","","",""
"","","plant-game","0","25","458817","0-0","","200","180","2","WHEAT CROP","Right","200","160","4","THISTLE WEED","practice","12","1,2,3,4","160,160.3581133708082,206.42251731750736,206.587724358881","4,3,2,1","THISTLE WEED,THISTLE WEED,THISTLE WEED,THISTLE WEED","180,203.54153912305617,180,192.2837793184221","2,1,2,1","WHEAT CROP,WHEAT CROP,CORN CROP,CORN CROP","0,0,0,0","20,20,20,20","10,10,10,10","20,20,20,20","20,20,20,20","20,20,20,20","0,0,0,0","20,20,20,20","10,10,10,10","20,20,20,20","20,20,20,20","20,20,20,20","1,1,0,0","8592,2900,6458,880","0.35811337080820493,46.06440394669916,0.16520704137363226,3.7669147286634375","23.541539123056182,3.2753539814589097,12.283779318422084,33.276488280992474","0","0"
"606","86","text","0","26","459573","0-0","","","","","","","","","","","","","","","","","","","","","","","","","","","","","","","","","","","","",""
"29900","86","text","0","27","490594","0-0","","","","","","","","","","","","","","","","","","","","","","","","","","","","","","","","","","","","",""
"","","plant-game","0","28","522046","0-0","","200","190","4","CORN CROP","Left","200","190","2","NETTLE WEED","experimental","1","1,2,3,4","190,218.51759882454164,267.1430295529404,294.52616703375406","4,3,2,1","CORN CROP,CORN CROP,CORN CROP,CORN CROP","190,232.75624799245978,180,191.35451958155525","2,1,2,1","NETTLE WEED,NETTLE WEED,THISTLE WEED,THISTLE WEED","20,20,20,20","20,20,20,20","10,10,10,10","20,20,20,20","0,0,0,0","20,20,20,20","20,20,20,20","20,20,20,20","10,10,10,10","20,20,20,20","0,0,0,0","20,20,20,20","0,1,0,0","8924,2820,4901,3753","28.517598824541643,48.625430728398754,27.383137480813662,24.48081483836434","42.75624799245977,21.26625156662328,11.354519581555262,5.498435297702649","1","0"
"650","86","text","0","29","522852","0-0","","","","","","","","","","","","","","","","","","","","","","","","","","","","","","","","","","","","",""
"","","plant-game","0","30","551336","0-0","","200","190","2","WHEAT CROP","Right","200","120","4","NETTLE WEED","experimental","2","1,2,3,4","120,108.2512922052846,134.8331900848612,146.9693429099355","4,3,2,1","NETTLE WEED,NETTLE WEED,NETTLE WEED,NETTLE WEED","190,191.2477748760899,180,173.42186293322848","2,1,2,1","WHEAT CROP,WHEAT CROP,CORN CROP,CORN CROP","0,0,0,0","20,20,20,20","10,10,10,10","20,20,20,20","20,20,20,20","20,20,20,20","0,0,0,0","20,20,20,20","10,10,10,10","20,20,20,20","20,20,20,20","20,20,20,20","0,0,1,0","11650,624,4546,830","-11.748707794715399,26.581897879576594,12.136152825074317,7.842551265751849","1.2477748760898981,25.28373677743438,-6.578137066771514,13.605054036945388","0","0"
"786","86","text","0","31","552252","0-0","","","","","","","","","","","","","","","","","","","","","","","","","","","","","","","","","","","","",""
"","","plant-game","0","32","570160","0-0","","200","190","2","WHEAT CROP","Right","200","190","1","THISTLE WEED","experimental","3","1,2","190,190","1,1","THISTLE WEED,NETTLE WEED","190,209.87551747031526","2,1","WHEAT CROP,WHEAT CROP","0,0","20,20","10,10","20,20","20,20","20,20","0,0","20,20","10,10","20,20","20,20","20,20","0,0","5037,3612","-5.767894031857988,-20.96002018435033","19.875517470315252,-24.403420826230466","0","0"
"638","86","text","0","33","570918","0-0","","","","","","","","","","","","","","","","","","","","","","","","","","","","","","","","","","","","",""
"","","plant-game","0","34","594780","0-0","","200","120","8","CORN CROP","Right","200","180","1","NETTLE WEED","experimental","4","1,2,3,4,5,6,7,8","180,130,130.80995617955188,163.61523640883365,212.6113801690441,228.5213262023691,247.53674777529324,228.25825015747785","1,7,6,5,4,3,2,1","NETTLE WEED,THISTLE WEED,THISTLE WEED,THISTLE WEED,THISTLE WEED,THISTLE WEED,THISTLE WEED,THISTLE WEED","120,155.1616150391415,179.24218458557266,169.8061450729091,214.9028479761389,244.92646616999608,234.22001985021254,208.65818712298608","8,7,6,5,4,3,2,1","CORN CROP,CORN CROP,CORN CROP,CORN CROP,CORN CROP,CORN CROP,CORN CROP,CORN CROP","0,0,0,0,0,0,0,0","20,20,20,20,20,20,20,20","10,10,10,10,10,10,10,10","20,20,20,20,20,20,20,20","20,20,20,20,20,20,20,20","20,20,20,20,20,20,20,20","0,0,0,0,0,0,0,0","20,20,20,20,20,20,20,20","10,10,10,10,10,10,10,10","20,20,20,20,20,20,20,20","20,20,20,20,20,20,20,20","20,20,20,20,20,20,20,20","0,1,1,1,0,0,0,0","4802,2276,1218,729,947,937,737,1868","16.113240650578895,0.809956179551861,32.80528022928177,48.99614376021045,15.909946033324998,19.01542157292414,-19.278497617815404,-2.050659690921873","35.16161503914152,24.08056954643114,-9.43603951266357,45.0967029032298,30.023618193857168,-10.706446319783549,-25.56183272722646,12.102502363613477","0","0"
"705","86","text","0","35","595625","0-0","","","","","","","","","","","","","","","","","","","","","","","","","","","","","","","","","","","","",""
"","","plant-game","0","36","606431","0-0","","200","190","2","WHEAT CROP","Right","200","190","2","THISTLE WEED","experimental","5","1,2","190,196.49123939946736","2,1","THISTLE WEED,THISTLE WEED","190,192.9081742571265","2,1","WHEAT CROP,WHEAT CROP","0,0","20,20","10,10","20,20","20,20","20,20","0,0","20,20","10,10","20,20","20,20","20,20","1,1","4057,1473","6.4912393994673465,35.48035359574553","2.9081742571264826,43.16372431064359","0","0"
"693","86","text","0","37","607334","0-0","","","","","","","","","","","","","","","","","","","","","","","","","","","","","","","","","","","","",""
"","","plant-game","0","38","619231","0-0","","200","190","2","CORN CROP","Left","200","160","2","THISTLE WEED","experimental","6","1,2","190,245.12398180320005","2,1","CORN CROP,CORN CROP","160,240.91142330786641","2,1","THISTLE WEED,THISTLE WEED","20,20","20,20","10,10","20,20","0,0","20,20","20,20","20,20","10,10","20,20","0,0","20,20","0,1","4415,2927","55.123981803200046,-29.75949446263328","80.91142330786643,-31.328851860252875","0","0"
"557","86","text","0","39","619948","0-0","","","","","","","","","","","","","","","","","","","","","","","","","","","","","","","","","","","","",""
"","","plant-game","0","40","641063","0-0","","200","160","8","CORN CROP","Left","200","180","1","THISTLE WEED","experimental","7","1,2,3,4,5,6,7,8","160,180.53684256582358,236.30565711107207,261.8971485488936,256.1368376668061,254.885870823817,279.4288270366916,282.39154244168964","8,7,6,5,4,3,2,1","CORN CROP,CORN CROP,CORN CROP,CORN CROP,CORN CROP,CORN CROP,CORN CROP,CORN CROP","180,130,124.1067169854773,163.31683341458407,178.42760868416025,197.2482036937694,228.61961602919627,237.79793582905785","1,7,6,5,4,3,2,1","THISTLE WEED,NETTLE WEED,NETTLE WEED,NETTLE WEED,NETTLE WEED,NETTLE WEED,NETTLE WEED,NETTLE WEED","20,20,20,20,20,20,20,20","20,20,20,20,20,20,20,20","10,10,10,10,10,10,10,10","20,20,20,20,20,20,20,20","0,0,0,0,0,0,0,0","20,20,20,20,20,20,20,20","20,20,20,20,20,20,20,20","20,20,20,20,20,20,20,20","10,10,10,10,10,10,10,10","20,20,20,20,20,20,20,20","0,0,0,0,0,0,0,0","20,20,20,20,20,20,20,20","0,0,0,1,1,0,1,1","4043,1193,1730,1002,2265,616,697,507","20.53684256582358,55.76881454524849,25.591491437821517,-5.760310882087466,-1.2509668429891367,24.542956212874593,2.9627154049980358,11.060223482269055","-17.571935950602573,-5.893283014522691,39.210116429106755,15.110775269576184,18.820595009609153,31.371412335426868,9.178319799861569,-24.360937719081747","0","0"
"402","86","text","0","41","641575","0-0","","","","","","","","","","","","","","","","","","","","","","","","","","","","","","","","","","","","",""
"","","plant-game","0","42","664085","0-0","","200","190","2","WHEAT CROP","Right","200","160","8","NETTLE WEED","experimental","8","1,2,3,4,5,6,7,8","160,151.0852310599526,141.074266622255,127.32563539526927,170.33569534767597,206.04928181944996,200.2569542055211,197.57580332446796","8,7,6,5,4,3,2,1","NETTLE WEED,NETTLE WEED,NETTLE WEED,NETTLE WEED,NETTLE WEED,NETTLE WEED,NETTLE WEED,NETTLE WEED","190,239.2129109974768,140,184.18038860584755,231.3544662421926,244.1441830603016,238.12117802698458,221.19825293083574","2,1,6,5,4,3,2,1","WHEAT CROP,WHEAT CROP,CORN CROP,CORN CROP,CORN CROP,CORN CROP,CORN CROP,CORN CROP","0,0,0,0,0,0,0,0","20,20,20,20,20,20,20,20","10,10,10,10,10,10,10,10","20,20,20,20,20,20,20,20","20,20,20,20,20,20,20,20","20,20,20,20,20,20,20,20","0,0,0,0,0,0,0,0","20,20,20,20,20,20,20,20","10,10,10,10,10,10,10,10","20,20,20,20,20,20,20,20","20,20,20,20,20,20,20,20","20,20,20,20,20,20,20,20","1,1,1,1,1,0,0,0","2693,2614,3121,1330,1857,579,490,1803","-8.91476894004738,-10.010964437697606,-13.748631226985736,43.010059952406685,35.71358647177401,-5.792327613928855,-2.6811508810531466,7.753503443208708","49.21291099747679,33.88294263923613,44.18038860584754,47.174077636345025,12.789716818109,-6.023005033317034,-16.92292509614883,-7.002315376078209","0","0"
"556","86","text","0","43","664766","0-0","","","","","","","","","","","","","","","","","","","","","","","","","","","","","","","","","","","","",""
"","","plant-game","0","44","678852","0-0","","200","190","4","CORN CROP","Left","200","180","2","THISTLE WEED","experimental","9","1,2,3,4","190,226.54250918666202,233.36291753907435,260.6016447563741","4,3,2,1","CORN CROP,CORN CROP,CORN CROP,CORN CROP","180,208.8466697213996,180,205.51049811580648","2,1,2,1","THISTLE WEED,THISTLE WEED,NETTLE WEED,NETTLE WEED","20,20,20,20","20,20,20,20","10,10,10,10","20,20,20,20","0,0,0,0","20,20,20,20","20,20,20,20","20,20,20,20","10,10,10,10","20,20,20,20","0,0,0,0","20,20,20,20","0,1,0,1","2356,527,1982,549","36.542509186662016,6.8204083524123345,27.238727217299786,-7.772944309753564","28.846669721399586,3.300786147204176,25.510498115806488,-17.674546069082883","0","0"
"966","86","text","0","45","679928","0-0","","","","","","","","","","","","","","","","","","","","","","","","","","","","","","","","","","","","",""
"","","plant-game","0","46","691110","0-0","","200","120","4","WHEAT CROP","Left","200","190","4","NETTLE WEED","experimental","10","1,2,3,4","120,134.0090242117855,177.81591765592236,202.77854752210493","4,3,2,1","WHEAT CROP,WHEAT CROP,WHEAT CROP,WHEAT CROP","190,189.16636976757292,209.46292080232624,209.32910872960835","4,3,2,1","NETTLE WEED,NETTLE WEED,NETTLE WEED,NETTLE WEED","20,20,20,20","20,20,20,20","10,10,10,10","20,20,20,20","0,0,0,0","20,20,20,20","20,20,20,20","20,20,20,20","10,10,10,10","20,20,20,20","0,0,0,0","20,20,20,20","0,0,0,0","2360,673,1852,649","14.009024211785485,43.80689344413687,24.962629866182557,51.75501056226504","-0.8336302324270974,20.29655103475332,-0.13381207271787687,52.641493710438716","0","0"
"518","86","text","0","47","691698","0-0","","","","","","","","","","","","","","","","","","","","","","","","","","","","","","","","","","","","",""
"","","plant-game","0","48","706950","0-0","","200","190","4","WHEAT CROP","Left","200","120","1","NETTLE WEED","experimental","11","1,2,3,4","190,199.965102043684,231.89989472460906,266.8192965354078","4,3,2,1","WHEAT CROP,WHEAT CROP,WHEAT CROP,WHEAT CROP","120,170,211.9331935859579,225.68920344157198","1,3,2,1","NETTLE WEED,THISTLE WEED,THISTLE WEED,THISTLE WEED","20,20,20,20","20,20,20,20","10,10,10,10","20,20,20,20","0,0,0,0","20,20,20,20","20,20,20,20","20,20,20,20","10,10,10,10","20,20,20,20","0,0,0,0","20,20,20,20","0,0,1,1","1562,2547,401,478","9.965102043684004,31.934792680925046,34.91940181079873,-2.6237909539008006","49.308083122742445,41.933193585957895,13.756009855614067,-8.646958862534667","0","0"
"516","86","text","0","49","707578","0-0","","","","","","","","","","","","","","","","","","","","","","","","","","","","","","","","","","","","",""
"","","plant-game","0","50","721806","0-0","","200","180","1","WHEAT CROP","Left","200","180","8","NETTLE WEED","experimental","12","1,2,3,4,5,6,7,8","180,130,139.4393152871987,172.0929184614035,169.11197790627173,138.9790589883574,132.4028211774703,115.5109688637711","1,7,6,5,4,3,2,1","WHEAT CROP,CORN CROP,CORN CROP,CORN CROP,CORN CROP,CORN CROP,CORN CROP,CORN CROP","180,234.43858302602632,226.1548461286696,226.08326817850232,237.7861312155073,264.15223171022194,259.496012361198,252.97128136770408","8,7,6,5,4,3,2,1","NETTLE WEED,NETTLE WEED,NETTLE WEED,NETTLE WEED,NETTLE WEED,NETTLE WEED,NETTLE WEED,NETTLE WEED","20,20,20,20,20,20,20,20","20,20,20,20,20,20,20,20","10,10,10,10,10,10,10,10","20,20,20,20,20,20,20,20","0,0,0,0,0,0,0,0","20,20,20,20,20,20,20,20","20,20,20,20,20,20,20,20","20,20,20,20,20,20,20,20","10,10,10,10,10,10,10,10","20,20,20,20,20,20,20,20","0,0,0,0,0,0,0,0","20,20,20,20,20,20,20,20","0,1,1,1,1,1,1,1","1377,2711,286,207,114,178,62,38","54.252008177680615,9.439315287198685,32.65360317420482,-2.9809405551317742,-30.13291891791433,-6.576237810887101,-16.891852313699182,-6.584488038984596","54.43858302602631,-8.28373689735673,-0.07157795016726914,11.702863037004981,26.366100494714647,-4.656219349023933,-6.524730993493906,10.496062389866708","0","0"
"943","86","text","0","51","722909","0-0","","","","","","","","","","","","","","","","","","","","","","","","","","","","","","","","","","","","",""
"","","plant-game","0","52","739786","0-0","","200","160","2","WHEAT CROP","Left","200","180","8","NETTLE WEED","experimental","13","1,2,3,4,5,6,7,8","160,148.56377374781894,140,161.3570320008644,175.4194917601257,200.7183129681141,188.53347766493636,148.73301073848646","2,1,6,5,4,3,2,1","WHEAT CROP,WHEAT CROP,CORN CROP,CORN CROP,CORN CROP,CORN CROP,CORN CROP,CORN CROP","180,212.64590175041502,241.7495275717834,308.81360135754994,330.0894281859694,348.9320393229385,336.2776955267794,370.4078552367737","8,7,6,5,4,3,2,1","NETTLE WEED,NETTLE WEED,NETTLE WEED,NETTLE WEED,NETTLE WEED,NETTLE WEED,NETTLE WEED,NETTLE WEED","20,20,20,20,20,20,20,20","20,20,20,20,20,20,20,20","10,10,10,10,10,10,10,10","20,20,20,20,20,20,20,20","0,0,0,0,0,0,0,0","20,20,20,20,20,20,20,20","20,20,20,20,20,20,20,20","20,20,20,20,20,20,20,20","10,10,10,10,10,10,10,10","20,20,20,20,20,20,20,20","0,0,0,0,0,0,0,0","20,20,20,20,20,20,20,20","0,1,0,0,0,1,1,1","948,1865,928,402,366,41,72,81","-11.436226252181054,15.356477940822778,21.3570320008644,14.062459759261309,25.29882120798841,-12.18483530317775,-39.80046692644989,8.162422972191617","32.645901750415035,29.103625821368382,67.06407378576652,21.275826828419458,18.842611136969154,-12.654343796159129,34.13015970999431,27.83206809648757","0","0"
"592","86","text","0","53","740528","0-0","","","","","","","","","","","","","","","","","","","","","","","","","","","","","","","","","","","","",""
"","","plant-game","0","54","765941","0-0","","200","160","8","WHEAT CROP","Left","200","180","2","NETTLE WEED","experimental","14","1,2,3,4,5,6,7,8","160,192.39573336927887,202.53029076084124,239.76217585522716,243.4520422211724,267.1661187364398,264.2524030381654,263.36597451457345","8,7,6,5,4,3,2,1","WHEAT CROP,WHEAT CROP,WHEAT CROP,WHEAT CROP,WHEAT CROP,WHEAT CROP,WHEAT CROP,WHEAT CROP","180,222.90754571223806,140,131.25805117630753,122.32993018918393,134.7674809623085,143.6609569530939,170.1593948218336","2,1,6,5,4,3,2,1","NETTLE WEED,NETTLE WEED,THISTLE WEED,THISTLE WEED,THISTLE WEED,THISTLE WEED,THISTLE WEED,THISTLE WEED","20,20,20,20,20,20,20,20","20,20,20,20,20,20,20,20","10,10,10,10,10,10,10,10","20,20,20,20,20,20,20,20","0,0,0,0,0,0,0,0","20,20,20,20,20,20,20,20","20,20,20,20,20,20,20,20","20,20,20,20,20,20,20,20","10,10,10,10,10,10,10,10","20,20,20,20,20,20,20,20","0,0,0,0,0,0,0,0","20,20,20,20,20,20,20,20","0,1,1,1,1,1,1,1","1578,2513,2317,1888,1539,1709,1050,1904","32.395733369278865,10.134557391562364,37.231885094385916,3.6898663659452384,23.714076515267372,-2.9137156982743773,-0.8864285235919755,0.6168790130674064","42.907545712238075,-8.865724212509773,-8.741948823692455,-8.928120987123604,12.437550773124581,8.893475990785403,26.498437868739696,18.93387594050741","0","0"
"591","86","text","0","55","766672","0-0","","","","","","","","","","","","","","","","","","","","","","","","","","","","","","","","","","","","",""
"","","plant-game","0","56","774503","0-0","","200","180","2","WHEAT CROP","Left","200","120","2","NETTLE WEED","experimental","15","1,2","180,201.43381556276182","2,1","WHEAT CROP,WHEAT CROP","120,147.8217878618752","2,1","NETTLE WEED,NETTLE WEED","20,20","20,20","10,10","20,20","0,0","20,20","20,20","20,20","10,10","20,20","0,0","20,20","0,0","1497,1868","21.433815562761822,26.989540546313428","27.8217878618752,25.09548362617216","0","0"
"479","86","text","0","57","775112","0-0","","","","","","","","","","","","","","","","","","","","","","","","","","","","","","","","","","","","",""
"","","plant-game","0","58","791971","0-0","","200","160","4","CORN CROP","Left","200","180","2","THISTLE WEED","experimental","16","1,2,3,4","160,191.9730393078359,202.88509104659096,227.87962419918205","4,3,2,1","CORN CROP,CORN CROP,CORN CROP,CORN CROP","180,212.6606973926863,180,196.47598055763294","2,1,2,1","THISTLE WEED,THISTLE WEED,NETTLE WEED,NETTLE WEED","20,20,20,20","20,20,20,20","10,10,10,10","20,20,20,20","0,0,0,0","20,20,20,20","20,20,20,20","20,20,20,20","10,10,10,10","20,20,20,20","0,0,0,0","20,20,20,20","0,1,1,1","586,500,3827,3128","31.973039307835908,10.912051738755064,24.994533152591103,8.139400614663971","32.66069739268629,14.160330239784143,16.47598055763293,0.12763482868180281","0","0"
"11952","86","text","0","59","804032","0-0","","","","","","","","","","","","","","","","","","","","","","","","","","","","","","","","","","","","",""
"","","plant-game","0","60","824674","0-0","","200","160","8","WHEAT CROP","Right","200","190","2","NETTLE WEED","experimental","17","1,2,3,4,5,6,7,8","190,190.85435766411175,140,136.0284807637168,141.21016719599808,145.09946527448528,159.4761795843226,170.45406062558604","2,1,6,5,4,3,2,1","NETTLE WEED,NETTLE WEED,THISTLE WEED,THISTLE WEED,THISTLE WEED,THISTLE WEED,THISTLE WEED,THISTLE WEED","160,121.29040400415306,131.98398928478971,170.69651242568133,210.7050759096542,223.45116613893362,225.38264741944133,294.1534737752572","8,7,6,5,4,3,2,1","WHEAT CROP,WHEAT CROP,WHEAT CROP,WHEAT CROP,WHEAT CROP,WHEAT CROP,WHEAT CROP,WHEAT CROP","0,0,0,0,0,0,0,0","20,20,20,20,20,20,20,20","10,10,10,10,10,10,10,10","20,20,20,20,20,20,20,20","20,20,20,20,20,20,20,20","20,20,20,20,20,20,20,20","0,0,0,0,0,0,0,0","20,20,20,20,20,20,20,20","10,10,10,10,10,10,10,10","20,20,20,20,20,20,20,20","20,20,20,20,20,20,20,20","20,20,20,20,20,20,20,20","0,0,1,1,1,1,1,1","5293,586,1894,790,967,1369,405,747","0.8543576641117318,-26.868964578160256,-3.9715192362832,5.181686432281275,3.889298078487208,14.376714309837311,10.977881041263437,3.7186453077646036","-38.70959599584693,10.693585280636649,38.71252314089162,40.00856348397287,12.746090229279423,1.9314812805077146,68.7708263558159,32.101778524592895","0","0"
"752","86","text","0","61","825546","0-0","","","","","","","","","","","","","","","","","","","","","","","","","","","","","","","","","","","","",""
"","","plant-game","0","62","841421","0-0","","200","180","1","CORN CROP","Left","200","160","4","THISTLE WEED","experimental","18","1,2,3,4","180,170,164.1190410899319,216.39665850817352","1,3,2,1","CORN CROP,WHEAT CROP,WHEAT CROP,WHEAT CROP","160,169.58009648687243,170.74161360411952,201.92482031236335","4,3,2,1","THISTLE WEED,THISTLE WEED,THISTLE WEED,THISTLE WEED","20,20,20,20","20,20,20,20","10,10,10,10","20,20,20,20","0,0,0,0","20,20,20,20","20,20,20,20","20,20,20,20","10,10,10,10","20,20,20,20","0,0,0,0","20,20,20,20","1,1,0,1","1283,3119,781,2260","18.535031856267473,-5.880958910068113,52.277617418241626,-2.268485978879792","9.580096486872433,1.161517117247086,31.183206708243823,5.408130283395335","0","0"
"602","86","text","0","63","842153","0-0","","","","","","","","","","","","","","","","","","","","","","","","","","","","","","","","","","","","",""
"","","plant-game","0","64","848875","0-0","","200","120","1","CORN CROP","Left","200","160","1","NETTLE WEED","experimental","19","1","120","1","CORN CROP","160","1","NETTLE WEED","20","20","10","20","0","20","20","20","10","20","0","20","0","843","-6.281948727088675","-4.752241424122154","0","0"
"843","86","text","0","65","849848","0-0","","","","","","","","","","","","","","","","","","","","","","","","","","","","","","","","","","","","",""
"","","plant-game","0","66","857647","0-0","","200","160","1","CORN CROP","Right","200","180","1","NETTLE WEED","experimental","20","1","180","1","NETTLE WEED","160","1","CORN CROP","0","20","10","20","20","20","0","20","10","20","20","20","1","1235","9.82396255916025","33.73847553173867","0","0"
"494","86","text","0","67","858297","0-0","","","","","","","","","","","","","","","","","","","","","","","","","","","","","","","","","","","","",""
"","","plant-game","0","68","874952","0-0","","200","160","8","CORN CROP","Left","200","120","1","NETTLE WEED","experimental","21","1,2,3,4,5,6,7,8","160,195.91763644837647,192.4244404490654,160.4512802297856,172.24193646498256,183.0921851002915,195.5102416448354,216.49364188512286","8,7,6,5,4,3,2,1","CORN CROP,CORN CROP,CORN CROP,CORN CROP,CORN CROP,CORN CROP,CORN CROP,CORN CROP","120,130,114.45359931705752,101.41785726373266,127.14168155987767,157.50528329121911,168.20716323157424,226.2925062048336","1,7,6,5,4,3,2,1","NETTLE WEED,THISTLE WEED,THISTLE WEED,THISTLE WEED,THISTLE WEED,THISTLE WEED,THISTLE WEED,THISTLE WEED","20,20,20,20,20,20,20,20","20,20,20,20,20,20,20,20","10,10,10,10,10,10,10,10","20,20,20,20,20,20,20,20","0,0,0,0,0,0,0,0","20,20,20,20,20,20,20,20","20,20,20,20,20,20,20,20","20,20,20,20,20,20,20,20","10,10,10,10,10,10,10,10","20,20,20,20,20,20,20,20","0,0,0,0,0,0,0,0","20,20,20,20,20,20,20,20","0,0,1,0,0,0,0,1","1655,838,604,835,307,328,362,799","35.917636448376456,-3.4931959993110766,-31.97316021927979,11.790656235196973,10.850248635308926,12.41805654454389,20.983400240287462,18.741708750830988","-4.974655589671176,-15.546400682942483,-13.03574205332486,25.723824296145015,30.36360173134144,10.701879940355134,58.085342973259344,-0.76633701011256","0","0"
"680","86","text","0","69","875752","0-0","","","","","","","","","","","","","","","","","","","","","","","","","","","","","","","","","","","","",""
"","","plant-game","0","70","890392","0-0","","200","120","4","WHEAT CROP","Left","200","180","8","THISTLE WEED","experimental","22","1,2,3,4,5,6,7,8","120,161.980418047049,201.48440519292922,151.42635489739197,160,178.04665604331237,184.81180650541947,186.12152488716825","4,3,2,1,4,3,2,1","WHEAT CROP,WHEAT CROP,WHEAT CROP,WHEAT CROP,CORN CROP,CORN CROP,CORN CROP,CORN CROP","180,176.9907832731786,210.41005567434553,210.9891215270489,226.95383437820726,241.66531144526758,221.7619928394277,220.76610616114908","8,7,6,5,4,3,2,1","THISTLE WEED,THISTLE WEED,THISTLE WEED,THISTLE WEED,THISTLE WEED,THISTLE WEED,THISTLE WEED,THISTLE WEED","20,20,20,20,20,20,20,20","20,20,20,20,20,20,20,20","10,10,10,10,10,10,10,10","20,20,20,20,20,20,20,20","0,0,0,0,0,0,0,0","20,20,20,20,20,20,20,20","20,20,20,20,20,20,20,20","20,20,20,20,20,20,20,20","10,10,10,10,10,10,10,10","20,20,20,20,20,20,20,20","0,0,0,0,0,0,0,0","20,20,20,20,20,20,20,20","0,0,1,0,0,1,1,1","2484,401,797,1103,696,437,172,61","41.980418047049014,39.50398714588023,-50.05805029553724,39.65635122988795,18.046656043312357,6.765150462107094,1.3097183817487725,44.645529646187505","-3.0092167268214,33.419272401166936,0.5790658527033639,15.964712851158367,14.711477067060303,-19.90331860583986,-0.9958866782786248,12.532157107281328","0","0"
"593","86","text","0","71","891101","0-0","","","","","","","","","","","","","","","","","","","","","","","","","","","","","","","","","","","","",""
"","","plant-game","0","72","901632","0-0","","200","120","4","WHEAT CROP","Left","200","180","4","NETTLE WEED","experimental","23","1,2,3,4","120,121.79843292310748,109.26998942689939,159.67743283038004","4,3,2,1","WHEAT CROP,WHEAT CROP,WHEAT CROP,WHEAT CROP","180,174.7471479193212,180.3643849019182,180.2632728703299","4,3,2,1","NETTLE WEED,NETTLE WEED,NETTLE WEED,NETTLE WEED","20,20,20,20","20,20,20,20","10,10,10,10","20,20,20,20","0,0,0,0","20,20,20,20","20,20,20,20","20,20,20,20","10,10,10,10","20,20,20,20","0,0,0,0","20,20,20,20","1,1,0,0","3289,1443,756,1107","1.798432923107488,-12.528443496208093,50.40744340348066,12.973162500915171","-5.252852080678791,5.617236982596998,-0.10111203158831827,32.3800114012501","0","0"
"520","86","text","0","73","902252","0-0","","","","","","","","","","","","","","","","","","","","","","","","","","","","","","","","","","","","",""
"","","plant-game","0","74","911271","0-0","","200","180","2","CORN CROP","Left","200","180","2","NETTLE WEED","experimental","24","1,2","180,219.54926191244965","2,1","CORN CROP,CORN CROP","180,208.67458813741243","2,1","NETTLE WEED,NETTLE WEED","20,20","20,20","10,10","20,20","0,0","20,20","20,20","20,20","10,10","20,20","0,0","20,20","0,1","1338,1718","39.549261912449666,8.750444567098937","28.67458813741244,6.7298850035247675","0","0"
"458","86","text","0","75","911869","0-0","","","","","","","","","","","","","","","","","","","","","","","","","","","","","","","","","","","","",""
"","","plant-game","0","76","927010","0-0","","200","160","4","WHEAT CROP","Left","200","160","2","THISTLE WEED","experimental","25","1,2,3,4","160,230.70211188328366,233.9059320828706,234.61902509201326","4,3,2,1","WHEAT CROP,WHEAT CROP,WHEAT CROP,WHEAT CROP","160,194.5794846516343,180,201.42135129179638","2,1,2,1","THISTLE WEED,THISTLE WEED,NETTLE WEED,NETTLE WEED","20,20,20,20","20,20,20,20","10,10,10,10","20,20,20,20","0,0,0,0","20,20,20,20","20,20,20,20","20,20,20,20","10,10,10,10","20,20,20,20","0,0,0,0","20,20,20,20","0,1,0,1","3713,1783,632,1240","70.70211188328366,3.2038201995869375,0.713093009142657,30.276788261647077","34.579484651634296,24.619534354880336,21.421351291796384,1.5310777900029682","0","0"
"520","86","text","0","77","927710","0-0","","","","","","","","","","","","","","","","","","","","","","","","","","","","","","","","","","","","",""
"","","plant-game","0","78","941825","0-0","","200","180","1","CORN CROP","Right","200","180","2","THISTLE WEED","experimental","26","1,2","180,156.46342601919895","2,1","THISTLE WEED,THISTLE WEED","180,190","1,1","CORN CROP,WHEAT CROP","0,0","20,20","10,10","20,20","20,20","20,20","0,0","20,20","10,10","20,20","20,20","20,20","0,1","964,2007","-23.536573980801037,13.879224096014958","-28.000448405165294,10.898177327313517","0","0"
"570","86","text","0","79","942535","0-0","","","","","","","","","","","","","","","","","","","","","","","","","","","","","","","","","","","","",""
"","","plant-game","0","80","957142","0-0","","200","120","8","WHEAT CROP","Left","200","120","1","THISTLE WEED","experimental","27","1,2,3,4,5,6,7,8","120,137.0092399071399,155.60495033635505,151.65849680362817,176.6349975411674,168.76996860443478,186.06780788955479,180.4445550292563","8,7,6,5,4,3,2,1","WHEAT CROP,WHEAT CROP,WHEAT CROP,WHEAT CROP,WHEAT CROP,WHEAT CROP,WHEAT CROP,WHEAT CROP","120,130,155.26888865795468,179.773214376162,231.7245245834078,231.78519393060049,191.4822722954009,136.2726089456798","1,7,6,5,4,3,2,1","THISTLE WEED,NETTLE WEED,NETTLE WEED,NETTLE WEED,NETTLE WEED,NETTLE WEED,NETTLE WEED,NETTLE WEED","20,20,20,20,20,20,20,20","20,20,20,20,20,20,20,20","10,10,10,10,10,10,10,10","20,20,20,20,20,20,20,20","0,0,0,0,0,0,0,0","20,20,20,20,20,20,20,20","20,20,20,20,20,20,20,20","20,20,20,20,20,20,20,20","10,10,10,10,10,10,10,10","20,20,20,20,20,20,20,20","0,0,0,0,0,0,0,0","20,20,20,20,20,20,20,20","1,0,0,1,1,1,1,0","719,667,598,835,1057,540,348,878","17.00923990713987,18.595710429215156,-3.9464535327268777,24.976500737539222,-7.8650289367326165,17.297839285120013,-5.623252860298484,1.9696538497607072","9.338204895336444,25.268888657954683,24.50432571820733,51.95131020724581,0.060669347192694706,-40.302921635199596,-55.20966334972108,24.220392249403037","0","0"
"525","86","text","0","81","957767","0-0","","","","","","","","","","","","","","","","","","","","","","","","","","","","","","","","","","","","",""
"","","plant-game","0","82","974635","0-0","","200","120","2","WHEAT CROP","Right","200","120","4","THISTLE WEED","experimental","28","1,2,3,4","120,156.62026897832624,200.11781713400703,219.25135404698298","4,3,2,1","THISTLE WEED,THISTLE WEED,THISTLE WEED,THISTLE WEED","120,146.40964196195463,180,224.77944030034615","2,1,2,1","WHEAT CROP,WHEAT CROP,CORN CROP,CORN CROP","0,0,0,0","20,20,20,20","10,10,10,10","20,20,20,20","20,20,20,20","20,20,20,20","0,0,0,0","20,20,20,20","10,10,10,10","20,20,20,20","20,20,20,20","20,20,20,20","1,1,1,0","4829,611,732,1895","36.62026897832625,43.49754815568079,19.133536912975945,-13.704514291388039","26.409641961954634,38.932878051351665,44.77944030034614,0.5303705695970938","0","0"
"489","86","text","0","83","975264","0-0","","","","","","","","","","","","","","","","","","","","","","","","","","","","","","","","","","","","",""
"","","plant-game","0","84","989210","0-0","","200","120","1","WHEAT CROP","Left","200","120","2","THISTLE WEED","experimental","29","1,2","120,190","1,1","WHEAT CROP,CORN CROP","120,134.21493436959582","2,1","THISTLE WEED,THISTLE WEED","20,20","20,20","10,10","20,20","0,0","20,20","20,20","20,20","10,10","20,20","0,0","20,20","1,0","1498,1468","-4.361354090572372,12.695367453564259","14.214934369595822,24.0570099590039","0","0"
"484","86","text","0","85","989854","0-0","","","","","","","","","","","","","","","","","","","","","","","","","","","","","","","","","","","","",""
"","","plant-game","0","86","1008145","0-0","","200","180","8","WHEAT CROP","Left","200","190","1","NETTLE WEED","experimental","30","1,2,3,4,5,6,7,8","180,202.11537989423195,209.36793212637002,216.95170510418413,203.3634521704583,196.939838731175,228.64152995808678,251.55036425232544","8,7,6,5,4,3,2,1","WHEAT CROP,WHEAT CROP,WHEAT CROP,WHEAT CROP,WHEAT CROP,WHEAT CROP,WHEAT CROP,WHEAT CROP","190,130,124.27882043721833,126.15492209778132,132.70947832061847,128.77692408593117,139.1881276851598,170.32387820347103","1,7,6,5,4,3,2,1","NETTLE WEED,THISTLE WEED,THISTLE WEED,THISTLE WEED,THISTLE WEED,THISTLE WEED,THISTLE WEED,THISTLE WEED","20,20,20,20,20,20,20,20","20,20,20,20,20,20,20,20","10,10,10,10,10,10,10,10","20,20,20,20,20,20,20,20","0,0,0,0,0,0,0,0","20,20,20,20,20,20,20,20","20,20,20,20,20,20,20,20","20,20,20,20,20,20,20,20","10,10,10,10,10,10,10,10","20,20,20,20,20,20,20,20","0,0,0,0,0,0,0,0","20,20,20,20,20,20,20,20","0,1,1,1,1,0,1,1","858,3562,641,1183,424,786,614,1510","22.115379894231943,7.252552232138085,7.583772977814103,-13.588252933725846,-6.423613439283297,31.701691226911777,22.908834294238662,20.741323152759556","39.58001467930615,-5.721179562781672,1.8761016605630008,6.554556222837155,-3.9325542346873,10.41120359922864,31.13575051831123,4.075259869598414","0","0"
"481","86","text","0","87","1008766","0-0","","","","","","","","","","","","","","","","","","","","","","","","","","","","","","","","","","","","",""
"","","plant-game","0","88","1028427","0-0","","200","180","4","WHEAT CROP","Left","200","160","8","THISTLE WEED","experimental","31","1,2,3,4,5,6,7,8","180,237.83436567442033,247.301442136444,245.062976875265,160,159.1713130961378,126.93145806484458,158.2134719045394","4,3,2,1,4,3,2,1","WHEAT CROP,WHEAT CROP,WHEAT CROP,WHEAT CROP,CORN CROP,CORN CROP,CORN CROP,CORN CROP","160,197.07075654140127,176.61461786914563,208.58638214646913,203.54783116353784,209.51668395081296,216.27894278223087,232.56736164637252","8,7,6,5,4,3,2,1","THISTLE WEED,THISTLE WEED,THISTLE WEED,THISTLE WEED,THISTLE WEED,THISTLE WEED,THISTLE WEED,THISTLE WEED","20,20,20,20,20,20,20,20","20,20,20,20,20,20,20,20","10,10,10,10,10,10,10,10","20,20,20,20,20,20,20,20","0,0,0,0,0,0,0,0","20,20,20,20,20,20,20,20","20,20,20,20,20,20,20,20","20,20,20,20,20,20,20,20","10,10,10,10,10,10,10,10","20,20,20,20,20,20,20,20","0,0,0,0,0,0,0,0","20,20,20,20,20,20,20,20","0,1,1,1,1,1,0,1","5558,662,490,775,871,556,467,448","57.83436567442034,9.467076462023682,-2.2384652611789755,35.34885361150592,-0.828686903862192,-32.23985503129322,31.282013839694812,5.180183807323405","37.07075654140127,-20.456138672255634,31.971764277323494,-5.038550982931311,5.968852787275134,6.762258831417918,16.288418864141647,-9.39375510487998","0","0"
"512","86","text","0","89","1029059","0-0","","","","","","","","","","","","","","","","","","","","","","","","","","","","","","","","","","","","",""
"","","plant-game","0","90","1044722","0-0","","200","120","8","CORN CROP","Left","200","190","1","THISTLE WEED","experimental","32","1,2,3,4,5,6,7,8","120,120.54167364133133,99.74987635928218,87.82084897601355,99.5735162567093,140.79523935072436,153.6051282311004,163.64114435812877","8,7,6,5,4,3,2,1","CORN CROP,CORN CROP,CORN CROP,CORN CROP,CORN CROP,CORN CROP,CORN CROP,CORN CROP","190,130,149.94967950174222,186.10475741115522,177.97303131116013,192.52853969653845,219.66059061863612,201.38869473555752","1,7,6,5,4,3,2,1","THISTLE WEED,NETTLE WEED,NETTLE WEED,NETTLE WEED,NETTLE WEED,NETTLE WEED,NETTLE WEED,NETTLE WEED","20,20,20,20,20,20,20,20","20,20,20,20,20,20,20,20","10,10,10,10,10,10,10,10","20,20,20,20,20,20,20,20","0,0,0,0,0,0,0,0","20,20,20,20,20,20,20,20","20,20,20,20,20,20,20,20","20,20,20,20,20,20,20,20","10,10,10,10,10,10,10,10","20,20,20,20,20,20,20,20","0,0,0,0,0,0,0,0","20,20,20,20,20,20,20,20","1,0,0,1,1,1,1,1","3115,2646,922,654,393,973,613,215","0.5416736413313359,-20.791797282049146,-11.929027383268632,11.752667280695743,41.22172309401507,12.80988888037604,10.036016127028368,-18.42596973812516","18.427403168874264,19.949679501742235,36.155077909412995,-8.131726099995092,14.555508385378328,27.132050922097676,-18.271895883078606,-12.747028146992577","0","0"
"166","86","text","0","91","1045032","0-0","","","","","","","","","","","","","","","","","","","","","","","","","","","","","","","","","","","","",""
"","","plant-game","0","92","1054393","0-0","","200","180","4","WHEAT CROP","Left","200","180","4","NETTLE WEED","experimental","33","1,2,3,4","180,192.01549803434037,223.28120985983173,231.34425983396088","4,3,2,1","WHEAT CROP,WHEAT CROP,WHEAT CROP,WHEAT CROP","180,182.05881055944005,228.7028819568309,249.35730688782527","4,3,2,1","NETTLE WEED,NETTLE WEED,NETTLE WEED,NETTLE WEED","20,20,20,20","20,20,20,20","10,10,10,10","20,20,20,20","0,0,0,0","20,20,20,20","20,20,20,20","20,20,20,20","10,10,10,10","20,20,20,20","0,0,0,0","20,20,20,20","0,0,1,1","1756,1910,487,594","12.015498034340364,31.265711825491362,8.063049974129152,-4.098680253995784","2.058810559440044,46.64407139739087,20.654424930994367,-34.31039988809096","0","0"
"504","86","text","0","93","1055037","0-0","","","","","","","","","","","","","","","","","","","","","","","","","","","","","","","","","","","","",""
"","","plant-game","0","94","1062097","0-0","","200","190","1","CORN CROP","Left","200","160","1","NETTLE WEED","experimental","34","1","190","1","CORN CROP","160","1","NETTLE WEED","20","20","10","20","0","20","20","20","10","20","0","20","0","2762","-11.026457379250544","43.60675624432192","0","0"
"655","86","text","0","95","1062917","0-0","","","","","","","","","","","","","","","","","","","","","","","","","","","","","","","","","","","","",""
"","","plant-game","0","96","1088167","0-0","","200","180","8","CORN CROP","Left","200","190","2","NETTLE WEED","experimental","35","1,2,3,4,5,6,7,8","180,192.4932756868019,222.23471367922346,206.11412460829197,205.8385924195038,273.6482612602351,259.38891945931755,245.51051486393692","8,7,6,5,4,3,2,1","CORN CROP,CORN CROP,CORN CROP,CORN CROP,CORN CROP,CORN CROP,CORN CROP,CORN CROP","190,182.65115464315045,140,124.8651691732313,161.81149394787644,188.98251308091304,165.47413248764104,167.27071944130964","2,1,6,5,4,3,2,1","NETTLE WEED,NETTLE WEED,THISTLE WEED,THISTLE WEED,THISTLE WEED,THISTLE WEED,THISTLE WEED,THISTLE WEED","20,20,20,20,20,20,20,20","20,20,20,20,20,20,20,20","10,10,10,10,10,10,10,10","20,20,20,20,20,20,20,20","0,0,0,0,0,0,0,0","20,20,20,20,20,20,20,20","20,20,20,20,20,20,20,20","20,20,20,20,20,20,20,20","10,10,10,10,10,10,10,10","20,20,20,20,20,20,20,20","0,0,0,0,0,0,0,0","20,20,20,20,20,20,20,20","1,1,1,0,0,1,1,1","7930,1342,2981,1013,875,630,1511,899","12.493275686801905,29.741437992421574,-16.120589070931484,-0.2755321887881621,67.80966884073128,-14.25934180091755,-13.878404595380635,-13.797948666678408","-7.3488453568495595,21.091187762096034,-15.134830826768699,36.946324774645134,27.171019133036594,-23.50838059327199,1.7965869536685868,31.677439665646556","0","0"
"484","86","text","0","97","1088791","0-0","","","","","","","","","","","","","","","","","","","","","","","","","","","","","","","","","","","","",""
"","","plant-game","0","98","1100198","0-0","","200","120","4","WHEAT CROP","Right","200","120","2","NETTLE WEED","experimental","36","1,2,3,4","120,126.4258939157341,180,180.5004182275843","2,1,2,1","NETTLE WEED,NETTLE WEED,THISTLE WEED,THISTLE WEED","120,89.06967707376907,102.62459002115324,116.07487876887066","4,3,2,1","WHEAT CROP,WHEAT CROP,WHEAT CROP,WHEAT CROP","0,0,0,0","20,20,20,20","10,10,10,10","20,20,20,20","20,20,20,20","20,20,20,20","0,0,0,0","20,20,20,20","10,10,10,10","20,20,20,20","20,20,20,20","20,20,20,20","0,0,1,1","973,930,1365,526","6.425893915734092,-24.32558874201785,0.5004182275843192,36.78685351392506","-30.93032292623092,13.554912947384166,13.450288747717421,-13.34755175442369","0","0"
"413","86","text","0","99","1100772","0-0","","","","","","","","","","","","","","","","","","","","","","","","","","","","","","","","","","","","",""
"","","plant-game","0","100","1115122","0-0","","200","190","4","WHEAT CROP","Left","200","180","1","THISTLE WEED","experimental","37","1,2,3,4","190,186.21721493998217,203.3299984549108,238.83594606762","4,3,2,1","WHEAT CROP,WHEAT CROP,WHEAT CROP,WHEAT CROP","180,170,193.50004674198044,196.61928581920566","1,3,2,1","THISTLE WEED,NETTLE WEED,NETTLE WEED,NETTLE WEED","20,20,20,20","20,20,20,20","10,10,10,10","20,20,20,20","0,0,0,0","20,20,20,20","20,20,20,20","20,20,20,20","10,10,10,10","20,20,20,20","0,0,0,0","20,20,20,20","1,0,1,1","3894,630,641,2351","-3.7827850600178374,17.112783514928612,35.50594761270921,-16.21877117037053","3.4462028398588513,23.500046741980448,3.1192390772252194,-3.263531435360205","0","0"
"913","86","text","0","101","1116195","0-0","","","","","","","","","","","","","","","","","","","","","","","","","","","","","","","","","","","","",""
"","","plant-game","0","102","1125242","0-0","","200","180","4","CORN CROP","Right","200","120","4","THISTLE WEED","experimental","38","1,2,3,4","120,107.56394166169011,156.14085261586524,152.62350743461542","4,3,2,1","THISTLE WEED,THISTLE WEED,THISTLE WEED,THISTLE WEED","180,226.11143198701808,217.46156552153442,177.83621823300263","4,3,2,1","CORN CROP,CORN CROP,CORN CROP,CORN CROP","0,0,0,0","20,20,20,20","10,10,10,10","20,20,20,20","20,20,20,20","20,20,20,20","0,0,0,0","20,20,20,20","10,10,10,10","20,20,20,20","20,20,20,20","20,20,20,20","1,1,0,1","1339,1703,1150,715","-12.436058338309898,48.57691095417513,-3.5173451812498224,-15.9189129573368","46.11143198701809,-8.649866465483651,-39.625347288531785,12.475986150212597","0","0"
"484","86","text","0","103","1125866","0-0","","","","","","","","","","","","","","","","","","","","","","","","","","","","","","","","","","","","",""
"","","plant-game","0","104","1134242","0-0","","200","160","4","WHEAT CROP","Right","200","180","4","THISTLE WEED","experimental","39","1,2,3,4","180,197.26352512504891,250.02627943199553,282.23277171605645","4,3,2,1","THISTLE WEED,THISTLE WEED,THISTLE WEED,THISTLE WEED","160,203.95711799193876,225.82988504189746,205.56620768760015","4,3,2,1","WHEAT CROP,WHEAT CROP,WHEAT CROP,WHEAT CROP","0,0,0,0","20,20,20,20","10,10,10,10","20,20,20,20","20,20,20,20","20,20,20,20","0,0,0,0","20,20,20,20","10,10,10,10","20,20,20,20","20,20,20,20","20,20,20,20","1,0,1,1","645,1069,834,434","17.263525125048915,52.76275430694661,32.2064922840609,24.37054183085159","43.95711799193876,21.8727670499587,-20.263677354297293,28.98177502880143","0","0"
"407","86","text","0","105","1134809","0-0","","","","","","","","","","","","","","","","","","","","","","","","","","","","","","","","","","","","",""
"","","plant-game","0","106","1152383","0-0","","200","190","8","WHEAT CROP","Right","200","120","4","THISTLE WEED","experimental","40","1,2,3,4,5,6,7,8","120,137.69292368451121,165.62788630138374,187.2946972004234,160,172.09927761548707,197.5091989020461,205.95001925851014","4,3,2,1,4,3,2,1","THISTLE WEED,THISTLE WEED,THISTLE WEED,THISTLE WEED,NETTLE WEED,NETTLE WEED,NETTLE WEED,NETTLE WEED","190,195.87399338300406,221.77642721390214,226.7042612805987,244.59799581463795,261.99226922468495,299.8472403708223,289.8623635971694","8,7,6,5,4,3,2,1","WHEAT CROP,WHEAT CROP,WHEAT CROP,WHEAT CROP,WHEAT CROP,WHEAT CROP,WHEAT CROP,WHEAT CROP","0,0,0,0,0,0,0,0","20,20,20,20,20,20,20,20","10,10,10,10,10,10,10,10","20,20,20,20,20,20,20,20","20,20,20,20,20,20,20,20","20,20,20,20,20,20,20,20","0,0,0,0,0,0,0,0","20,20,20,20,20,20,20,20","10,10,10,10,10,10,10,10","20,20,20,20,20,20,20,20","20,20,20,20,20,20,20,20","20,20,20,20,20,20,20,20","1,1,0,0,1,1,0,0","808,422,1951,780,1904,1551,720,859","17.692923684511214,27.93496261687254,21.666810899039653,-5.684388114301245,12.099277615487063,25.409921286559047,8.440820356464025,-53.009298247550056","5.873993383004059,25.90243383089808,4.927834066696558,17.89373453403925,17.39427341004702,37.85497114613735,-9.984876773652875,-10.085678732223112","0","0"
"506","86","text","0","107","1153029","0-0","","","","","","","","","","","","","","","","","","","","","","","","","","","","","","","","","","","","",""
"","","plant-game","0","108","1168900","0-0","","200","190","1","CORN CROP","Left","200","180","8","THISTLE WEED","experimental","41","1,2,3,4,5,6,7,8","190,130,169.15162789787996,201.08896373863263,223.76123472487532,229.77986443762765,275.4258287559444,281.6090924717025","1,7,6,5,4,3,2,1","CORN CROP,WHEAT CROP,WHEAT CROP,WHEAT CROP,WHEAT CROP,WHEAT CROP,WHEAT CROP,WHEAT CROP","180,159.4691961696221,144.60847628765325,167.57394490945777,187.6168592381521,193.88689731906112,211.59854961753342,190.66534493578848","8,7,6,5,4,3,2,1","THISTLE WEED,THISTLE WEED,THISTLE WEED,THISTLE WEED,THISTLE WEED,THISTLE WEED,THISTLE WEED,THISTLE WEED","20,20,20,20,20,20,20,20","20,20,20,20,20,20,20,20","10,10,10,10,10,10,10,10","20,20,20,20,20,20,20,20","0,0,0,0,0,0,0,0","20,20,20,20,20,20,20,20","20,20,20,20,20,20,20,20","20,20,20,20,20,20,20,20","10,10,10,10,10,10,10,10","20,20,20,20,20,20,20,20","0,0,0,0,0,0,0,0","20,20,20,20,20,20,20,20","0,0,0,0,1,1,1,1","1354,1434,762,1149,524,632,590,1118","-11.737538340142738,39.15162789787997,31.937335840752667,22.672270986242687,6.018629712752322,45.645964318316715,6.183263715758116,6.789091690268293","-20.530803830377884,-14.860719881968862,22.96546862180452,20.042914328694334,6.270038080909006,17.711652298472316,-20.933204681744932,-2.854750489719546","0","0"
"492","86","text","0","109","1169504","0-0","","","","","","","","","","","","","","","","","","","","","","","","","","","","","","","","","","","","",""
"","","plant-game","0","110","1184764","0-0","","200","180","8","WHEAT CROP","Left","200","120","1","THISTLE WEED","experimental","42","1,2,3,4,5,6,7,8","180,185.75963846463557,203.09674803096456,200.91982674379463,170.61715581510086,193.4296267157473,167.55630289819322,160.05394350598453","8,7,6,5,4,3,2,1","WHEAT CROP,WHEAT CROP,WHEAT CROP,WHEAT CROP,WHEAT CROP,WHEAT CROP,WHEAT CROP,WHEAT CROP","120,130,155.72242538047738,182.2157682436569,184.37713735869517,158.6877456245075,192.12083225424948,168.47575579251435","1,7,6,5,4,3,2,1","THISTLE WEED,NETTLE WEED,NETTLE WEED,NETTLE WEED,NETTLE WEED,NETTLE WEED,NETTLE WEED,NETTLE WEED","20,20,20,20,20,20,20,20","20,20,20,20,20,20,20,20","10,10,10,10,10,10,10,10","20,20,20,20,20,20,20,20","0,0,0,0,0,0,0,0","20,20,20,20,20,20,20,20","20,20,20,20,20,20,20,20","20,20,20,20,20,20,20,20","10,10,10,10,10,10,10,10","20,20,20,20,20,20,20,20","0,0,0,0,0,0,0,0","20,20,20,20,20,20,20,20","0,0,0,1,1,1,1,1","816,2425,383,416,419,483,524,422","5.759638464635572,17.33710956632899,-2.1769212871699324,-30.30267092869378,22.81247090064644,-25.873323817554077,-7.502359392208692,-39.45799517912591","26.868812053734004,25.72242538047739,26.493342863179535,2.1613691150382657,-25.689391734187662,33.433086629741986,-23.645076461735144,-3.364406880293644","0","0"
"541","86","text","0","111","1185465","0-0","","","","","","","","","","","","","","","","","","","","","","","","","","","","","","","","","","","","",""
"","","plant-game","0","112","1196418","0-0","","200","190","1","WHEAT CROP","Left","200","190","4","THISTLE WEED","experimental","43","1,2,3,4","190,170,152.25159091274645,125.5536849932539","1,3,2,1","WHEAT CROP,CORN CROP,CORN CROP,CORN CROP","190,222.89536061539815,229.4221791417319,208.96835459981438","4,3,2,1","THISTLE WEED,THISTLE WEED,THISTLE WEED,THISTLE WEED","20,20,20,20","20,20,20,20","10,10,10,10","20,20,20,20","0,0,0,0","20,20,20,20","20,20,20,20","20,20,20,20","10,10,10,10","20,20,20,20","0,0,0,0","20,20,20,20","0,1,1,1","712,1407,424,344","20.314049179808784,-17.748409087253556,-26.697905919492552,28.50435784035142","32.89536061539815,6.526818526333749,-20.453824541917527,38.68473200085801","0","0"
"507","86","text","0","113","1197115","0-0","","","","","","","","","","","","","","","","","","","","","","","","","","","","","","","","","","","","",""
"","","plant-game","0","114","1212849","0-0","","200","190","4","CORN CROP","Right","200","120","8","NETTLE WEED","experimental","44","1,2,3,4,5,6,7,8","120,97.49552146765511,104.54760418873944,139.3734425874819,145.698797807071,144.62962893427613,146.07629637373378,118.71727514018625","8,7,6,5,4,3,2,1","NETTLE WEED,NETTLE WEED,NETTLE WEED,NETTLE WEED,NETTLE WEED,NETTLE WEED,NETTLE WEED,NETTLE WEED","190,185.33207226958436,192.27193537871065,260.52573845394375,160,204.1691495493361,217.72624113979677,194.5601312089934","4,3,2,1,4,3,2,1","CORN CROP,CORN CROP,CORN CROP,CORN CROP,WHEAT CROP,WHEAT CROP,WHEAT CROP,WHEAT CROP","0,0,0,0,0,0,0,0","20,20,20,20,20,20,20,20","10,10,10,10,10,10,10,10","20,20,20,20,20,20,20,20","20,20,20,20,20,20,20,20","20,20,20,20,20,20,20,20","0,0,0,0,0,0,0,0","20,20,20,20,20,20,20,20","10,10,10,10,10,10,10,10","20,20,20,20,20,20,20,20","20,20,20,20,20,20,20,20","20,20,20,20,20,20,20,20","0,1,1,1,0,0,0,1","627,585,380,2182,1437,930,805,828","-22.50447853234489,7.052082721084329,34.825838398742455,6.325355219589108,-1.0691688727948676,1.4466674394576675,-27.359021233547544,10.98395818201023","-4.667927730415636,6.939863109126303,68.2538030752331,35.44455258697083,44.169149549336105,13.557091590460647,-23.16610993080337,14.774644500806858","0","0"
"820","86","text","0","115","1213789","0-0","","","","","","","","","","","","","","","","","","","","","","","","","","","","","","","","","","","","",""
"","","plant-game","0","116","1227598","0-0","","200","160","1","CORN CROP","Right","200","160","8","NETTLE WEED","experimental","45","1,2,3,4,5,6,7,8","160,185.8925949983305,212.16583612369584,244.92928654386807,265.10121984444265,303.393920780007,304.9067896144399,305.9161577517479","8,7,6,5,4,3,2,1","NETTLE WEED,NETTLE WEED,NETTLE WEED,NETTLE WEED,NETTLE WEED,NETTLE WEED,NETTLE WEED,NETTLE WEED","160,130,182.2714800031511,162.72658534234964,206.54217122102432,214.4524021049646,219.4549964624738,220.4188702560319","1,7,6,5,4,3,2,1","CORN CROP,WHEAT CROP,WHEAT CROP,WHEAT CROP,WHEAT CROP,WHEAT CROP,WHEAT CROP,WHEAT CROP","0,0,0,0,0,0,0,0","20,20,20,20,20,20,20,20","10,10,10,10,10,10,10,10","20,20,20,20,20,20,20,20","20,20,20,20,20,20,20,20","20,20,20,20,20,20,20,20","0,0,0,0,0,0,0,0","20,20,20,20,20,20,20,20","10,10,10,10,10,10,10,10","20,20,20,20,20,20,20,20","20,20,20,20,20,20,20,20","20,20,20,20,20,20,20,20","0,1,0,0,0,0,0,0","1186,1369,890,566,344,261,212,147","25.892594998330512,26.273241125365335,32.763450420172234,20.171933300574562,38.292700935564376,1.5128688344329044,1.0093681373080223,1.399837713051841","-15.591899707191745,52.271480003151126,-19.544894660801468,43.81558587867468,7.910230883940259,5.002594357509196,0.9638737935581297,-3.53865754050023","0","0"
"664","86","text","0","117","1228392","0-0","","","","","","","","","","","","","","","","","","","","","","","","","","","","","","","","","","","","",""
"","","plant-game","0","118","1235268","0-0","","200","180","2","WHEAT CROP","Left","200","190","2","THISTLE WEED","experimental","46","1,2","180,172.2034870802882","2,1","WHEAT CROP,WHEAT CROP","190,187.07562125542032","2,1","THISTLE WEED,THISTLE WEED","20,20","20,20","10,10","20,20","0,0","20,20","20,20","20,20","10,10","20,20","0,0","20,20","1,1","2771,583","-7.7965129197117955,7.4531680219084295","-2.9243787445796765,-21.675015907403488","0","0"
"909","86","text","0","119","1236337","0-0","","","","","","","","","","","","","","","","","","","","","","","","","","","","","","","","","","","","",""
"","","plant-game","0","120","1247035","0-0","","200","180","8","CORN CROP","Left","200","160","8","THISTLE WEED","experimental","47","1,2,3,4,5,6,7,8","180,229.92898609805732,249.94484792304036,213.3754729972788,238.9871174065117,230.0242109701486,283.8861456530633,294.9859958052963","8,7,6,5,4,3,2,1","CORN CROP,CORN CROP,CORN CROP,CORN CROP,CORN CROP,CORN CROP,CORN CROP,CORN CROP","160,199.86131975136618,225.95639033113397,181.69747749294152,167.85204670748934,118.3264166649128,140.02490006222368,148.42188812645662","8,7,6,5,4,3,2,1","THISTLE WEED,THISTLE WEED,THISTLE WEED,THISTLE WEED,THISTLE WEED,THISTLE WEED,THISTLE WEED,THISTLE WEED","20,20,20,20,20,20,20,20","20,20,20,20,20,20,20,20","10,10,10,10,10,10,10,10","20,20,20,20,20,20,20,20","0,0,0,0,0,0,0,0","20,20,20,20,20,20,20,20","20,20,20,20,20,20,20,20","20,20,20,20,20,20,20,20","10,10,10,10,10,10,10,10","20,20,20,20,20,20,20,20","0,0,0,0,0,0,0,0","20,20,20,20,20,20,20,20","0,1,1,1,1,0,1,1","874,1542,508,367,556,428,640,1106","49.928986098057315,20.01586182498302,-36.56937492576155,25.611644409232888,-8.962906436363074,53.86193468291471,11.099850152232975,-6.3656045301591115","39.861319751366196,26.095070579767786,-44.258912838192444,-13.845430785452184,-49.52563004257654,21.69848339731089,8.39698806423294,35.480643412128636","0","0"
"523","86","text","0","121","1247708","0-0","","","","","","","","","","","","","","","","","","","","","","","","","","","","","","","","","","","","",""
"","","plant-game","0","122","1256775","0-0","","200","160","8","WHEAT CROP","Left","200","120","8","NETTLE WEED","experimental","48","1,2,3,4,5,6,7,8","160,180.76732922782367,204.5448388499535,239.70233282858385,241.34126798220427,271.6295989930041,301.5184942747876,349.2136648651063","8,7,6,5,4,3,2,1","WHEAT CROP,WHEAT CROP,WHEAT CROP,WHEAT CROP,WHEAT CROP,WHEAT CROP,WHEAT CROP,WHEAT CROP","120,127.11858517995448,103.22137389399072,120.56021965402597,129.12008571681847,132.66296510320538,170.36566610530474,205.83920311859427","8,7,6,5,4,3,2,1","NETTLE WEED,NETTLE WEED,NETTLE WEED,NETTLE WEED,NETTLE WEED,NETTLE WEED,NETTLE WEED,NETTLE WEED","20,20,20,20,20,20,20,20","20,20,20,20,20,20,20,20","10,10,10,10,10,10,10,10","20,20,20,20,20,20,20,20","0,0,0,0,0,0,0,0","20,20,20,20,20,20,20,20","20,20,20,20,20,20,20,20","20,20,20,20,20,20,20,20","10,10,10,10,10,10,10,10","20,20,20,20,20,20,20,20","0,0,0,0,0,0,0,0","20,20,20,20,20,20,20,20","0,0,0,0,0,0,0,1","478,338,420,761,579,587,626,414","20.76732922782368,23.777509622129834,35.15749397863034,1.6389351536204124,30.288331010799844,29.888895281783533,47.69517059031868,15.354792065551973","7.118585179954485,-23.897211285963763,17.338845760035255,8.559866062792496,3.542879386386904,37.70270100209937,35.47353701328952,12.606979867318165","0","0"
"443","86","text","0","123","1257347","0-0","","","","","","","","","","","","","","","","","","","","","","","","","","","","","","","","","","","","",""
"","","plant-game","0","124","1272295","0-0","","200","160","4","WHEAT CROP","Left","200","180","8","NETTLE WEED","experimental","49","1,2,3,4,5,6,7,8","160,139.54413577241024,140.63548345726235,140.40345414803699,160,140.3543311169298,145.1830218855604,138.7528598156023","4,3,2,1,4,3,2,1","WHEAT CROP,WHEAT CROP,WHEAT CROP,WHEAT CROP,CORN CROP,CORN CROP,CORN CROP,CORN CROP","180,206.56250300669956,189.79833907776242,193.46392897793191,186.83644772070318,201.20490245144344,194.5852325672373,174.12722506165358","8,7,6,5,4,3,2,1","NETTLE WEED,NETTLE WEED,NETTLE WEED,NETTLE WEED,NETTLE WEED,NETTLE WEED,NETTLE WEED,NETTLE WEED","20,20,20,20,20,20,20,20","20,20,20,20,20,20,20,20","10,10,10,10,10,10,10,10","20,20,20,20,20,20,20,20","0,0,0,0,0,0,0,0","20,20,20,20,20,20,20,20","20,20,20,20,20,20,20,20","20,20,20,20,20,20,20,20","10,10,10,10,10,10,10,10","20,20,20,20,20,20,20,20","0,0,0,0,0,0,0,0","20,20,20,20,20,20,20,20","1,1,1,1,0,1,1,1","1763,610,460,520,2096,638,891,587","-20.455864227589746,1.0913476848521064,-0.2320293092253629,22.949867504475577,-19.645668883070172,4.828690768630603,-6.430162069958114,18.78906016077934","26.56250300669957,-16.764163928937126,3.665589900169501,-6.627481257228725,14.368454730740268,-6.619669884206144,-20.45800750558375,-39.635479888876375","0","0"
"454","86","text","0","125","1272919","0-0","","","","","","","","","","","","","","","","","","","","","","","","","","","","","","","","","","","","",""
"","","plant-game","0","126","1286062","0-0","","200","180","4","CORN CROP","Left","200","190","8","NETTLE WEED","experimental","50","1,2,3,4,5,6,7,8","180,187.42066648951229,176.7731813780622,180.15190418662127,160,184.66783823548923,226.00991911711762,253.8158086530279","4,3,2,1,4,3,2,1","CORN CROP,CORN CROP,CORN CROP,CORN CROP,WHEAT CROP,WHEAT CROP,WHEAT CROP,WHEAT CROP","190,226.22425101864727,191.797032969192,203.74326331455705,235.55220775459335,255.296023454091,259.185580285248,267.46698241592657","8,7,6,5,4,3,2,1","NETTLE WEED,NETTLE WEED,NETTLE WEED,NETTLE WEED,NETTLE WEED,NETTLE WEED,NETTLE WEED,NETTLE WEED","20,20,20,20,20,20,20,20","20,20,20,20,20,20,20,20","10,10,10,10,10,10,10,10","20,20,20,20,20,20,20,20","0,0,0,0,0,0,0,0","20,20,20,20,20,20,20,20","20,20,20,20,20,20,20,20","20,20,20,20,20,20,20,20","10,10,10,10,10,10,10,10","20,20,20,20,20,20,20,20","0,0,0,0,0,0,0,0","20,20,20,20,20,20,20,20","1,1,1,1,1,0,0,0","1238,755,866,480,2528,579,243,139","7.4206664895122945,-10.647485111450084,3.37872280855907,8.21116214390339,24.667838235489214,41.34208088162839,27.805889535910268,28.394480013644603","36.22425101864727,-34.42721804945527,11.94623034536506,31.808944440036292,19.74381569949764,3.8895568311570017,8.281402130678545,23.572396489144932","0","0"
"728","86","text","0","127","1286962","0-0","","","","","","","","","","","","","","","","","","","","","","","","","","","","","","","","","","","","",""
"","","plant-game","0","128","1301628","0-0","","200","180","4","CORN CROP","Left","200","180","2","THISTLE WEED","experimental","51","1,2,3,4","180,177.8157729124148,193.38436748455698,189.2373578957604","4,3,2,1","CORN CROP,CORN CROP,CORN CROP,CORN CROP","180,242.124145065866,180,182.20284041728826","2,1,2,1","THISTLE WEED,THISTLE WEED,NETTLE WEED,NETTLE WEED","20,20,20,20","20,20,20,20","10,10,10,10","20,20,20,20","0,0,0,0","20,20,20,20","20,20,20,20","20,20,20,20","10,10,10,10","20,20,20,20","0,0,0,0","20,20,20,20","0,0,1,1","3944,1293,2087,1676","-2.184227087585203,15.568594572142178,-4.1470095887965694,2.3573757410497107","62.124145065866,21.459562244049252,2.2028404172882525,-3.8098635971703447","0","0"
"642","86","text","0","129","1302410","0-0","","","","","","","","","","","","","","","","","","","","","","","","","","","","","","","","","","","","",""
"","","plant-game","0","130","1312589","0-0","","200","190","2","CORN CROP","Left","200","120","1","THISTLE WEED","experimental","52","1,2","190,188.05066501325908","2,1","CORN CROP,CORN CROP","120,190","1,1","THISTLE WEED,NETTLE WEED","20,20","20,20","10,10","20,20","0,0","20,20","20,20","20,20","10,10","20,20","0,0","20,20","0,1","556,1272","-1.9493349867409222,-20.53072024776268","11.763205228607566,-37.92711975158425","0","0"
"529","86","text","0","131","1313242","0-0","","","","","","","","","","","","","","","","","","","","","","","","","","","","","","","","","","","","",""
"","","plant-game","0","132","1323660","0-0","","200","190","8","CORN CROP","Right","200","190","8","NETTLE WEED","experimental","53","1,2,3,4,5,6,7,8","190,219.23110497632152,242.75455645200702,253.7856064083361,282.452152563147,267.1768334644122,284.45253503801626,309.6900326436645","8,7,6,5,4,3,2,1","NETTLE WEED,NETTLE WEED,NETTLE WEED,NETTLE WEED,NETTLE WEED,NETTLE WEED,NETTLE WEED,NETTLE WEED","190,172.71471797606347,205.77717147402686,185.4210517949,197.1068168968615,184.46052342184254,176.18244347207707,181.67011021898742","8,7,6,5,4,3,2,1","CORN CROP,CORN CROP,CORN CROP,CORN CROP,CORN CROP,CORN CROP,CORN CROP,CORN CROP","0,0,0,0,0,0,0,0","20,20,20,20,20,20,20,20","10,10,10,10,10,10,10,10","20,20,20,20,20,20,20,20","20,20,20,20,20,20,20,20","20,20,20,20,20,20,20,20","0,0,0,0,0,0,0,0","20,20,20,20,20,20,20,20","10,10,10,10,10,10,10,10","20,20,20,20,20,20,20,20","20,20,20,20,20,20,20,20","20,20,20,20,20,20,20,20","1,1,1,0,0,0,1,1","1493,1458,786,1114,191,363,133,70","29.23110497632153,23.523451475685512,11.031049956329065,28.666546154810916,-15.275319098734801,17.27570157360407,25.237497605648212,-0.7626724369567874","-17.285282023936524,33.062453497963396,-20.35611967912687,11.685765101961485,-12.646293475018961,-8.27807994976547,5.487666746910357,35.394454817266855","0","0"
"508","86","text","0","133","1324334","0-0","","","","","","","","","","","","","","","","","","","","","","","","","","","","","","","","","","","","",""
"","","plant-game","0","134","1341143","0-0","","200","190","8","WHEAT CROP","Left","200","190","1","NETTLE WEED","experimental","54","1,2,3,4,5,6,7,8","190,164.0216285478097,178.50261635063012,214.57159775823055,210.6031659373604,201.43427669018865,165.78538832875955,176.5488920203793","8,7,6,5,4,3,2,1","WHEAT CROP,WHEAT CROP,WHEAT CROP,WHEAT CROP,WHEAT CROP,WHEAT CROP,WHEAT CROP,WHEAT CROP","190,130,189.8090210457426,199.05260220015091,215.0831189878537,264.5895103531981,258.21404127737935,242.35476014969947","1,7,6,5,4,3,2,1","NETTLE WEED,THISTLE WEED,THISTLE WEED,THISTLE WEED,THISTLE WEED,THISTLE WEED,THISTLE WEED,THISTLE WEED","20,20,20,20,20,20,20,20","20,20,20,20,20,20,20,20","10,10,10,10,10,10,10,10","20,20,20,20,20,20,20,20","0,0,0,0,0,0,0,0","20,20,20,20,20,20,20,20","20,20,20,20,20,20,20,20","20,20,20,20,20,20,20,20","10,10,10,10,10,10,10,10","20,20,20,20,20,20,20,20","0,0,0,0,0,0,0,0","20,20,20,20,20,20,20,20","1,0,0,1,1,1,1,1","958,3270,1420,734,426,415,197,79","-25.978371452190288,14.480987802820398,36.06898140760042,-3.968431820870164,-9.168889247171732,-35.64888836142909,10.763503691619754,-5.4846483970033155","-1.3979152854908006,59.80902104574262,9.243581154408297,16.030516787702783,49.50639136534438,-6.375469075818701,-15.859281127679887,1.981023007839216","0","0"
"562","86","text","0","135","1341815","0-0","","","","","","","","","","","","","","","","","","","","","","","","","","","","","","","","","","","","",""
"","","plant-game","0","136","1363221","0-0","","200","120","1","WHEAT CROP","Left","200","120","8","NETTLE WEED","experimental","55","1,2,3,4,5,6,7,8","120,130,121.91888695927324,112.38240536331534,127.59750079146924,109.97063586798305,143.94052235187326,151.51077239148603","1,7,6,5,4,3,2,1","WHEAT CROP,CORN CROP,CORN CROP,CORN CROP,CORN CROP,CORN CROP,CORN CROP,CORN CROP","120,153.82016725472772,146.2182293168683,159.98506353516711,163.3122550740397,167.03697324486743,193.7320534136312,213.030810024449","8,7,6,5,4,3,2,1","NETTLE WEED,NETTLE WEED,NETTLE WEED,NETTLE WEED,NETTLE WEED,NETTLE WEED,NETTLE WEED,NETTLE WEED","20,20,20,20,20,20,20,20","20,20,20,20,20,20,20,20","10,10,10,10,10,10,10,10","20,20,20,20,20,20,20,20","0,0,0,0,0,0,0,0","20,20,20,20,20,20,20,20","20,20,20,20,20,20,20,20","20,20,20,20,20,20,20,20","10,10,10,10,10,10,10,10","20,20,20,20,20,20,20,20","0,0,0,0,0,0,0,0","20,20,20,20,20,20,20,20","0,1,1,0,0,0,0,1","3778,959,669,813,4191,473,702,473","44.12683455400915,-8.081113040726759,-9.536481595957902,15.215095428153901,-17.626864923486195,33.96988648389022,7.570250039612773,17.39067475897656","33.82016725472771,-7.6019379378594145,13.766834218298818,3.32719153887259,3.724718170827714,26.695080168763766,19.2987566108178,19.346588686105967","0","0"
"504","86","text","0","137","1363865","0-0","","","","","","","","","","","","","","","","","","","","","","","","","","","","","","","","","","","","",""
"","","plant-game","0","138","1376792","0-0","","200","190","4","CORN CROP","Right","200","190","8","NETTLE WEED","experimental","56","1,2,3,4,5,6,7,8","190,221.39776053618365,221.5013626140687,241.83404926221536,271.55508213746333,286.5637367492891,337.74294007689303,377.20179328052984","8,7,6,5,4,3,2,1","NETTLE WEED,NETTLE WEED,NETTLE WEED,NETTLE WEED,NETTLE WEED,NETTLE WEED,NETTLE WEED,NETTLE WEED","190,190.0733919538037,145.10795502871343,160.87599707875816,160,141.5099429281863,152.20802767254617,162.16198519584705","4,3,2,1,4,3,2,1","CORN CROP,CORN CROP,CORN CROP,CORN CROP,WHEAT CROP,WHEAT CROP,WHEAT CROP,WHEAT CROP","0,0,0,0,0,0,0,0","20,20,20,20,20,20,20,20","10,10,10,10,10,10,10,10","20,20,20,20,20,20,20,20","20,20,20,20,20,20,20,20","20,20,20,20,20,20,20,20","0,0,0,0,0,0,0,0","20,20,20,20,20,20,20,20","10,10,10,10,10,10,10,10","20,20,20,20,20,20,20,20","20,20,20,20,20,20,20,20","20,20,20,20,20,20,20,20","1,0,1,1,1,1,1,1","819,914,636,70,2809,1343,358,336","31.39776053618366,0.1036020778850465,20.33268664814664,29.72103287524797,15.008654611825783,51.179203327603965,39.45885320363679,33.32949787026502","0.0733919538037,-44.96543692509029,15.76804205004472,32.30749721498168,-18.49005707181371,10.698084744359885,9.953957523300875,37.947014777523265","0","0"
"497","86","text","0","139","1377460","0-0","","","","","","","","","","","","","","","","","","","","","","","","","","","","","","","","","","","","",""
"","","plant-game","0","140","1396171","0-0","","200","190","2","CORN CROP","Right","200","190","8","NETTLE WEED","experimental","57","1,2,3,4,5,6,7,8","190,166.85491370719558,198.99104680334656,200.9347388203893,226.71369471499906,233.96871626013146,214.01711929364637,222.42062499401402","8,7,6,5,4,3,2,1","NETTLE WEED,NETTLE WEED,NETTLE WEED,NETTLE WEED,NETTLE WEED,NETTLE WEED,NETTLE WEED,NETTLE WEED","190,207.6110397073619,140,149.16375501324393,125.69636064465504,122.65877111311634,141.92771467768753,137.45183750404595","2,1,6,5,4,3,2,1","CORN CROP,CORN CROP,WHEAT CROP,WHEAT CROP,WHEAT CROP,WHEAT CROP,WHEAT CROP,WHEAT CROP","0,0,0,0,0,0,0,0","20,20,20,20,20,20,20,20","10,10,10,10,10,10,10,10","20,20,20,20,20,20,20,20","20,20,20,20,20,20,20,20","20,20,20,20,20,20,20,20","0,0,0,0,0,0,0,0","20,20,20,20,20,20,20,20","10,10,10,10,10,10,10,10","20,20,20,20,20,20,20,20","20,20,20,20,20,20,20,20","20,20,20,20,20,20,20,20","1,1,0,0,0,0,0,0","5574,3222,1794,418,324,221,60,86","-23.145086292804436,32.136133096150985,1.943692017042745,25.77895589460976,7.255021545132395,-19.95159696648508,8.403505700367658,16.32253643702306","17.611039707361883,20.482469237005567,9.163755013243936,-23.467394368588877,-3.037589531538698,19.26894356457118,-4.475877173641579,16.09764000862544","0","0"
"491","86","text","0","141","1396782","0-0","","","","","","","","","","","","","","","","","","","","","","","","","","","","","","","","","","","","",""
"","","plant-game","0","142","1421755","0-0","","200","120","8","WHEAT CROP","Left","200","180","4","NETTLE WEED","experimental","58","1,2,3,4,5,6,7,8","120,132.09617641965133,148.1747426928543,165.5626664463346,177.74857322059222,202.3181005620579,216.02165998027596,236.3091445655861","8,7,6,5,4,3,2,1","WHEAT CROP,WHEAT CROP,WHEAT CROP,WHEAT CROP,WHEAT CROP,WHEAT CROP,WHEAT CROP,WHEAT CROP","180,184.27442948593742,173.56449579893754,170.02870557211762,160,214.08560967076255,232.5815411187328,230.61849480153938","4,3,2,1,4,3,2,1","NETTLE WEED,NETTLE WEED,NETTLE WEED,NETTLE WEED,THISTLE WEED,THISTLE WEED,THISTLE WEED,THISTLE WEED","20,20,20,20,20,20,20,20","20,20,20,20,20,20,20,20","10,10,10,10,10,10,10,10","20,20,20,20,20,20,20,20","0,0,0,0,0,0,0,0","20,20,20,20,20,20,20,20","20,20,20,20,20,20,20,20","20,20,20,20,20,20,20,20","10,10,10,10,10,10,10,10","20,20,20,20,20,20,20,20","0,0,0,0,0,0,0,0","20,20,20,20,20,20,20,20","1,1,1,1,0,1,1,1","9328,1558,494,1006,1488,1192,492,320","12.09617641965133,16.07856627320298,17.387923753480294,12.185906774257644,24.5695273414657,13.703559418218047,20.287484585310157,-10.918804551341708","4.2744294859374286,-10.709933686999882,-3.5357902268199135,10.289814808050057,54.085609670762544,18.49593144797025,-1.9630463171934025,17.80192906750514","0","0"
"1238","86","text","0","143","1423113","0-0","","","","","","","","","","","","","","","","","","","","","","","","","","","","","","","","","","","","",""
"","","plant-game","0","144","1435453","0-0","","200","120","2","CORN CROP","Right","200","190","8","THISTLE WEED","experimental","59","1,2,3,4,5,6,7,8","190,232.4852757605021,247.87085359746513,244.439765035443,267.79717419226404,234.31275415641,213.54433650454945,212.19040823630652","8,7,6,5,4,3,2,1","THISTLE WEED,THISTLE WEED,THISTLE WEED,THISTLE WEED,THISTLE WEED,THISTLE WEED,THISTLE WEED,THISTLE WEED","120,165.769059982518,140,134.01898146909022,133.54430834660454,116.33005797954601,108.83662512750924,124.58164686641656","2,1,6,5,4,3,2,1","CORN CROP,CORN CROP,WHEAT CROP,WHEAT CROP,WHEAT CROP,WHEAT CROP,WHEAT CROP,WHEAT CROP","0,0,0,0,0,0,0,0","20,20,20,20,20,20,20,20","10,10,10,10,10,10,10,10","20,20,20,20,20,20,20,20","20,20,20,20,20,20,20,20","20,20,20,20,20,20,20,20","0,0,0,0,0,0,0,0","20,20,20,20,20,20,20,20","10,10,10,10,10,10,10,10","20,20,20,20,20,20,20,20","20,20,20,20,20,20,20,20","20,20,20,20,20,20,20,20","1,0,0,0,0,0,0,0","1876,600,1422,306,172,213,73,60","42.48527576050211,15.385577836963014,-3.4310885620221243,23.357409156821053,-33.48442003585403,-20.76841765186053,-1.3539282682429168,-26.55481796902695","45.76905998251799,7.1497107760178125,-5.98101853090978,-0.47467312248567933,-17.214250367058526,-7.49343285203677,15.74502173890733,42.13314273236601","0","0"
"1134","86","text","0","145","1436737","0-0","","","","","","","","","","","","","","","","","","","","","","","","","","","","","","","","","","","","",""
"","","plant-game","0","146","1450822","0-0","","200","180","8","CORN CROP","Right","200","180","4","THISTLE WEED","experimental","60","1,2,3,4,5,6,7,8","180,205.15723402860627,212.07925297713274,215.35599709518797,160,201.9038528435172,187.08553009518963,181.7405419035442","4,3,2,1,4,3,2,1","THISTLE WEED,THISTLE WEED,THISTLE WEED,THISTLE WEED,NETTLE WEED,NETTLE WEED,NETTLE WEED,NETTLE WEED","180,202.40743841923268,198.74356824267284,210.17626113725208,210.8721855630837,227.6410858885009,227.0886910585903,246.7070732428226","8,7,6,5,4,3,2,1","CORN CROP,CORN CROP,CORN CROP,CORN CROP,CORN CROP,CORN CROP,CORN CROP,CORN CROP","0,0,0,0,0,0,0,0","20,20,20,20,20,20,20,20","10,10,10,10,10,10,10,10","20,20,20,20,20,20,20,20","20,20,20,20,20,20,20,20","20,20,20,20,20,20,20,20","0,0,0,0,0,0,0,0","20,20,20,20,20,20,20,20","10,10,10,10,10,10,10,10","20,20,20,20,20,20,20,20","20,20,20,20,20,20,20,20","20,20,20,20,20,20,20,20","1,1,1,1,1,0,1,0","1181,963,611,444,1595,1103,839,613","25.15723402860627,6.922018948526485,3.2767441180552304,44.848060200398976,41.9038528435172,-14.818322748327564,-5.344988191645427,-25.902775763123415","22.40743841923269,-3.663870176559829,11.432692894579242,0.695924425831592,16.7689003254172,-0.5523948299105961,19.618382184232278,-15.991869062537686","0","0"
"594","86","text","0","147","1451596","0-0","","","","","","","","","","","","","","","","","","","","","","","","","","","","","","","","","","","","",""
"","","plant-game","0","148","1461010","0-0","","200","180","2","WHEAT CROP","Left","200","190","4","NETTLE WEED","experimental","61","1,2,3,4","180,193.16807082075022,180,179.9755665190884","2,1,2,1","WHEAT CROP,WHEAT CROP,CORN CROP,CORN CROP","190,173.3945711880208,203.89484481961077,179.17114230544473","4,3,2,1","NETTLE WEED,NETTLE WEED,NETTLE WEED,NETTLE WEED","20,20,20,20","20,20,20,20","10,10,10,10","20,20,20,20","0,0,0,0","20,20,20,20","20,20,20,20","20,20,20,20","10,10,10,10","20,20,20,20","0,0,0,0","20,20,20,20","1,1,0,0","869,610,818,660","13.168070820750227,-16.704437738365353,-0.024433480911604022,2.204427413921721","-16.605428811979223,30.500273631589977,-24.72370251416605,13.803423278828557","0","0"
"521","86","text","0","149","1461701","0-0","","","","","","","","","","","","","","","","","","","","","","","","","","","","","","","","","","","","",""
"","","plant-game","0","150","1480977","0-0","","200","190","8","CORN CROP","Right","200","190","4","THISTLE WEED","experimental","62","1,2,3,4,5,6,7,8","190,186.56418731058523,148.74650685280398,163.33388409447977,160,164.5108501412493,235.63433430546795,251.13510154595568","4,3,2,1,4,3,2,1","THISTLE WEED,THISTLE WEED,THISTLE WEED,THISTLE WEED,NETTLE WEED,NETTLE WEED,NETTLE WEED,NETTLE WEED","190,252.47801963518623,263.0354577495381,307.80673422592395,363.9035922638078,363.828745571273,360.0072443476691,364.70090555500053","8,7,6,5,4,3,2,1","CORN CROP,CORN CROP,CORN CROP,CORN CROP,CORN CROP,CORN CROP,CORN CROP,CORN CROP","0,0,0,0,0,0,0,0","20,20,20,20,20,20,20,20","10,10,10,10,10,10,10,10","20,20,20,20,20,20,20,20","20,20,20,20,20,20,20,20","20,20,20,20,20,20,20,20","0,0,0,0,0,0,0,0","20,20,20,20,20,20,20,20","10,10,10,10,10,10,10,10","20,20,20,20,20,20,20,20","20,20,20,20,20,20,20,20","20,20,20,20,20,20,20,20","1,0,0,0,1,1,0,1","3446,2093,1417,1779,738,1107,533,1094","-3.435812689414778,-37.81768045778126,14.5873772416758,9.734971397894617,4.510850141249305,71.12348416421864,15.500767240487727,10.311716451999766","62.47801963518623,10.557438114351923,44.77127647638585,56.096858037883834,-0.074846692534841,-3.8215012236039136,4.693661207331458,20.525894364421003","0","0"
"485","86","text","0","151","1481602","0-0","","","","","","","","","","","","","","","","","","","","","","","","","","","","","","","","","","","","",""
"","","plant-game","0","152","1493275","0-0","","200","120","1","CORN CROP","Left","200","180","2","NETTLE WEED","experimental","63","1,2","120,190","1,1","CORN CROP,WHEAT CROP","180,191.69014137386657","2,1","NETTLE WEED,NETTLE WEED","20,20","20,20","10,10","20,20","0,0","20,20","20,20","20,20","10,10","20,20","0,0","20,20","0,1","3234,641","14.75004941345388,-6.73259889632887","11.690141373866565,-10.4497437846413","0","0"
"505","86","text","0","153","1493936","0-0","","","","","","","","","","","","","","","","","","","","","","","","","","","","","","","","","","","","",""
"","","plant-game","0","154","1511603","0-0","","200","120","4","CORN CROP","Right","200","190","2","THISTLE WEED","experimental","64","1,2,3,4","190,206.66817492535915,180,179.78617747944324","2,1,2,1","THISTLE WEED,THISTLE WEED,NETTLE WEED,NETTLE WEED","120,158.81861096224873,169.6266996997609,151.67461141872514","4,3,2,1","CORN CROP,CORN CROP,CORN CROP,CORN CROP","0,0,0,0","20,20,20,20","10,10,10,10","20,20,20,20","20,20,20,20","20,20,20,20","0,0,0,0","20,20,20,20","10,10,10,10","20,20,20,20","20,20,20,20","20,20,20,20","1,1,0,1","5017,2465,1797,1777","16.668174925359153,27.145132772851095,-0.2138225205567594,36.86862224768774","38.81861096224874,10.808088737512186,-17.952088281035767,44.42693728500011","0","0"
"10753","86","text","0","155","1522436","0-0","","","","","","","","","","","","","","","","","","","","","","","","","","","","","","","","","","","","",""
"","","plant-game","0","156","1534979","0-0","","200","190","8","CORN CROP","Right","200","160","8","NETTLE WEED","experimental","65","1,2,3,4,5,6,7,8","160,198.5234090318756,197.22773805087053,190.3193139515952,212.16784815597362,221.43518884158826,242.92331698274867,269.61448337185993","8,7,6,5,4,3,2,1","NETTLE WEED,NETTLE WEED,NETTLE WEED,NETTLE WEED,NETTLE WEED,NETTLE WEED,NETTLE WEED,NETTLE WEED","190,206.80824711291717,259.1156966918308,266.5593019485141,278.69933594823254,291.00683849157485,340.93626475639707,385.1652965757332","8,7,6,5,4,3,2,1","CORN CROP,CORN CROP,CORN CROP,CORN CROP,CORN CROP,CORN CROP,CORN CROP,CORN CROP","0,0,0,0,0,0,0,0","20,20,20,20,20,20,20,20","10,10,10,10,10,10,10,10","20,20,20,20,20,20,20,20","20,20,20,20,20,20,20,20","20,20,20,20,20,20,20,20","0,0,0,0,0,0,0,0","20,20,20,20,20,20,20,20","10,10,10,10,10,10,10,10","20,20,20,20,20,20,20,20","20,20,20,20,20,20,20,20","20,20,20,20,20,20,20,20","1,1,1,1,1,1,1,1","3314,1619,1400,598,847,341,88,210","38.52340903187557,-1.2956709810050704,-6.908424099275333,21.848534204378414,9.26734068561464,21.48812814116042,26.69116638911126,17.560203255073827","16.80824711291717,52.307449578913655,7.443605256683263,12.140033999718483,12.307502543342288,49.929426264822226,44.22903181933613,7.740583207971813","0","0"
"531","86","text","0","157","1535660","0-0","","","","","","","","","","","","","","","","","","","","","","","","","","","","","","","","","","","","",""
"","","plant-game","0","158","1543924","0-0","","200","160","2","CORN CROP","Right","200","120","2","NETTLE WEED","experimental","66","1,2","120,150.1145795198077","2,1","NETTLE WEED,NETTLE WEED","160,148.17344168914585","2,1","CORN CROP,CORN CROP","0,0","20,20","10,10","20,20","20,20","20,20","0,0","20,20","10,10","20,20","20,20","20,20","1,1","4039,640","30.114579519807712,44.252897196222534","-11.826558310854143,27.177098526201753","0","0"
"655","86","text","0","159","1544709","0-0","","","","","","","","","","","","","","","","","","","","","","","","","","","","","","","","","","","","",""
"","","plant-game","0","160","1565837","0-0","","200","190","8","WHEAT CROP","Left","200","120","1","NETTLE WEED","experimental","67","1,2,3,4,5,6,7,8","190,167.75120372900633,184.01800301894377,222.06265418643528,243.09091171014614,276.5918678141743,351.42681674895533,331.8740275690143","8,7,6,5,4,3,2,1","WHEAT CROP,WHEAT CROP,WHEAT CROP,WHEAT CROP,WHEAT CROP,WHEAT CROP,WHEAT CROP,WHEAT CROP","120,130,106.44377777108721,136.59151046508234,166.65235599957794,149.082431674062,175.2030019472882,169.7181064369762","1,7,6,5,4,3,2,1","NETTLE WEED,THISTLE WEED,THISTLE WEED,THISTLE WEED,THISTLE WEED,THISTLE WEED,THISTLE WEED,THISTLE WEED","20,20,20,20,20,20,20,20","20,20,20,20,20,20,20,20","10,10,10,10,10,10,10,10","20,20,20,20,20,20,20,20","0,0,0,0,0,0,0,0","20,20,20,20,20,20,20,20","20,20,20,20,20,20,20,20","20,20,20,20,20,20,20,20","10,10,10,10,10,10,10,10","20,20,20,20,20,20,20,20","0,0,0,0,0,0,0,0","20,20,20,20,20,20,20,20","1,0,0,0,0,0,0,0","3026,3194,422,1430,867,957,1248,885","-22.248796270993658,16.266799289937424,38.044651167491494,21.028257523710877,33.50095610402815,74.83494893478104,-19.552789179941065,34.5794819821519","2.500373630593703,-23.55622222891278,30.14773269399513,30.060845534495584,-17.569924325515927,26.12057027322618,-5.48489551031199,13.20873857072958","0","0"
"611","86","text","0","161","1566648","0-0","","","","","","","","","","","","","","","","","","","","","","","","","","","","","","","","","","","","",""
"","","plant-game","0","162","1571137","0-0","","200","180","2","WHEAT CROP","Right","200","160","2","THISTLE WEED","experimental","68","1,2","160,159.66295923349122","2,1","THISTLE WEED,THISTLE WEED","180,198.3729883167911","2,1","WHEAT CROP,WHEAT CROP","0,0","20,20","10,10","20,20","20,20","20,20","0,0","20,20","10,10","20,20","20,20","20,20","1,1","688,444","-0.33704076650877823,-10.032686046361967","18.372988316791094,17.329331153220757","0","0"
"541","86","text","0","163","1571788","0-0","","","","","","","","","","","","","","","","","","","","","","","","","","","","","","","","","","","","",""
"","","plant-game","0","164","1583910","0-0","","200","190","2","WHEAT CROP","Right","200","160","4","NETTLE WEED","experimental","69","1,2,3,4","160,187.54780982864196,191.44926381785075,182.83709516019272","4,3,2,1","NETTLE WEED,NETTLE WEED,NETTLE WEED,NETTLE WEED","190,245.99787264538827,180,197.6138088740291","2,1,2,1","WHEAT CROP,WHEAT CROP,CORN CROP,CORN CROP","0,0,0,0","20,20,20,20","10,10,10,10","20,20,20,20","20,20,20,20","20,20,20,20","0,0,0,0","20,20,20,20","10,10,10,10","20,20,20,20","20,20,20,20","20,20,20,20","1,1,0,0","665,1934,811,753","27.547809828641945,3.9014539892087896,-8.61216865765804,-11.722063270651212","55.99787264538827,-10.990332353020634,17.6138088740291,17.832342687242402","0","0"
"570","86","text","0","165","1584568","0-0","","","","","","","","","","","","","","","","","","","","","","","","","","","","","","","","","","","","",""
"","","plant-game","0","166","1602540","0-0","","200","180","4","WHEAT CROP","Left","200","160","2","THISTLE WEED","experimental","70","1,2,3,4","180,195.07142227232998,217.11961751070967,238.79981562834044","4,3,2,1","WHEAT CROP,WHEAT CROP,WHEAT CROP,WHEAT CROP","160,231.65618458147958,180,195.76728782152728","2,1,2,1","THISTLE WEED,THISTLE WEED,NETTLE WEED,NETTLE WEED","20,20,20,20","20,20,20,20","10,10,10,10","20,20,20,20","0,0,0,0","20,20,20,20","20,20,20,20","20,20,20,20","10,10,10,10","20,20,20,20","0,0,0,0","20,20,20,20","0,1,0,0","3174,713,2270,1331","15.071422272329995,22.048195238379694,21.68019811763077,27.88469712458569","71.65618458147958,18.50991439640222,15.767287821527287,-9.66190248860821","0","0"
"579","86","text","0","167","1603229","0-0","","","","","","","","","","","","","","","","","","","","","","","","","","","","","","","","","","","","",""
"","","plant-game","0","168","1615687","0-0","","200","180","4","WHEAT CROP","Left","200","120","2","NETTLE WEED","experimental","71","1,2,3,4","180,175.92058389086867,197.8569581971824,249.87293257998067","4,3,2,1","WHEAT CROP,WHEAT CROP,WHEAT CROP,WHEAT CROP","120,136.00692796858084,180,201.14587636385508","2,1,2,1","NETTLE WEED,NETTLE WEED,THISTLE WEED,THISTLE WEED","20,20,20,20","20,20,20,20","10,10,10,10","20,20,20,20","0,0,0,0","20,20,20,20","20,20,20,20","20,20,20,20","10,10,10,10","20,20,20,20","0,0,0,0","20,20,20,20","0,0,0,1","1296,773,800,1302","-4.079416109131316,21.93637430631373,52.01597438279829,-17.715504912008953","16.006927968580836,-2.5212405808499447,21.14587636385509,26.515608048535295","0","0"
"609","86","text","0","169","1616436","0-0","","","","","","","","","","","","","","","","","","","","","","","","","","","","","","","","","","","","",""
"","","plant-game","0","170","1629242","0-0","","200","180","4","CORN CROP","Left","200","120","1","NETTLE WEED","experimental","72","1,2,3,4","180,183.12644140593818,221.53188807404246,236.8254757526577","4,3,2,1","CORN CROP,CORN CROP,CORN CROP,CORN CROP","120,170,196.47092918516174,218.9325619059897","1,3,2,1","NETTLE WEED,THISTLE WEED,THISTLE WEED,THISTLE WEED","20,20,20,20","20,20,20,20","10,10,10,10","20,20,20,20","0,0,0,0","20,20,20,20","20,20,20,20","20,20,20,20","10,10,10,10","20,20,20,20","0,0,0,0","20,20,20,20","0,0,0,1","762,1275,1878,453","3.1264414059381878,38.40544666810426,15.29358767861524,-6.62762271271082","35.40976871445638,26.470929185161733,22.46163272082797,2.201400590581324","0","0"
"75","86","text","0","171","1629417","0-0","","","","","","","","","","","","","","","","","","","","","","","","","","","","","","","","","","","","",""
"","","plant-game","0","172","1638994","0-0","","200","180","4","WHEAT CROP","Right","200","190","2","NETTLE WEED","experimental","73","1,2,3,4","190,175.0788753757885,180,178.72067116323092","2,1,2,1","NETTLE WEED,NETTLE WEED,THISTLE WEED,THISTLE WEED","180,180.06685274704856,205.96427091643528,214.74974575509253","4,3,2,1","WHEAT CROP,WHEAT CROP,WHEAT CROP,WHEAT CROP","0,0,0,0","20,20,20,20","10,10,10,10","20,20,20,20","20,20,20,20","20,20,20,20","0,0,0,0","20,20,20,20","10,10,10,10","20,20,20,20","20,20,20,20","20,20,20,20","0,0,0,0","733,750,692,897","-14.921124624211489,-12.679177377747147,-1.279328836769086,-23.94482680521627","0.06685274704856721,25.897418169386714,8.785474838657239,2.044598102823688","0","0"
"610","86","text","0","173","1639734","0-0","","","","","","","","","","","","","","","","","","","","","","","","","","","","","","","","","","","","",""
"","","plant-game","0","174","1644787","0-0","","200","120","2","WHEAT CROP","Left","200","160","2","NETTLE WEED","experimental","74","1,2","120,122.34164827809327","2,1","WHEAT CROP,WHEAT CROP","160,159.0681716671087","2,1","NETTLE WEED,NETTLE WEED","20,20","20,20","10,10","20,20","0,0","20,20","20,20","20,20","10,10","20,20","0,0","20,20","0,0","1448,389","2.341648278093274,41.051482326288834","-0.9318283328913068,15.248294240562547","0","0"
"447","86","text","0","175","1645374","0-0","","","","","","","","","","","","","","","","","","","","","","","","","","","","","","","","","","","","",""
"","","plant-game","0","176","1657103","0-0","","200","180","4","WHEAT CROP","Right","200","180","1","NETTLE WEED","experimental","75","1,2,3,4","180,170,181.4017934510428,213.8276244143094","1,3,2,1","NETTLE WEED,THISTLE WEED,THISTLE WEED,THISTLE WEED","180,184.20308968635507,219.81746105553816,257.16062839699214","4,3,2,1","WHEAT CROP,WHEAT CROP,WHEAT CROP,WHEAT CROP","0,0,0,0","20,20,20,20","10,10,10,10","20,20,20,20","20,20,20,20","20,20,20,20","0,0,0,0","20,20,20,20","10,10,10,10","20,20,20,20","20,20,20,20","20,20,20,20","1,1,1,0","1396,1296,1112,1331","20.35654775849849,11.401793451042815,32.42583096326659,-4.460925558129","4.2030896863550815,35.614371369183104,37.34316734145396,2.6588953331650886","0","0"
"654","86","text","0","177","1657917","0-0","","","","","","","","","","","","","","","","","","","","","","","","","","","","","","","","","","","","",""
"","","plant-game","0","178","1669739","0-0","","200","160","2","CORN CROP","Right","200","160","1","NETTLE WEED","experimental","76","1,2","160,190","1,1","NETTLE WEED,THISTLE WEED","160,157.85200306680588","2,1","CORN CROP,CORN CROP","0,0","20,20","10,10","20,20","20,20","20,20","0,0","20,20","10,10","20,20","20,20","20,20","1,1","2184,1769","16.391082408910503,14.679979434477547","-2.147996933194108,-0.8839889984846394","0","0"
"536","86","text","0","179","1670405","0-0","","","","","","","","","","","","","","","","","","","","","","","","","","","","","","","","","","","","",""
"","","plant-game","0","180","1677132","0-0","","200","160","2","CORN CROP","Right","200","190","2","THISTLE WEED","experimental","77","1,2","190,215.66451613585176","2,1","THISTLE WEED,THISTLE WEED","160,153.7774015858404","2,1","CORN CROP,CORN CROP","0,0","20,20","10,10","20,20","20,20","20,20","0,0","20,20","10,10","20,20","20,20","20,20","1,1","1510,1627","25.664516135851756,32.3905777508478","-6.222598414159599,10.607123942896862","0","0"
"680","86","text","0","181","1677962","0-0","","","","","","","","","","","","","","","","","","","","","","","","","","","","","","","","","","","","",""
"","","plant-game","0","182","1693833","0-0","","200","190","8","CORN CROP","Left","200","180","2","THISTLE WEED","experimental","78","1,2,3,4,5,6,7,8","190,235.26139453322924,269.92606725893546,269.73426885324574,276.99437331638626,289.3782193750105,315.4616670213636,334.16233273601046","8,7,6,5,4,3,2,1","CORN CROP,CORN CROP,CORN CROP,CORN CROP,CORN CROP,CORN CROP,CORN CROP,CORN CROP","180,236.9958560107084,140,165.33509882864266,191.41572730920078,198.20795296724577,252.3113714323967,234.34540677157182","2,1,6,5,4,3,2,1","THISTLE WEED,THISTLE WEED,NETTLE WEED,NETTLE WEED,NETTLE WEED,NETTLE WEED,NETTLE WEED,NETTLE WEED","20,20,20,20,20,20,20,20","20,20,20,20,20,20,20,20","10,10,10,10,10,10,10,10","20,20,20,20,20,20,20,20","0,0,0,0,0,0,0,0","20,20,20,20,20,20,20,20","20,20,20,20,20,20,20,20","20,20,20,20,20,20,20,20","10,10,10,10,10,10,10,10","20,20,20,20,20,20,20,20","0,0,0,0,0,0,0,0","20,20,20,20,20,20,20,20","0,0,0,0,1,0,1,1","750,1087,1783,743,1287,988,428,278","45.26139453322923,34.66467272570624,-0.19179840568970974,7.260104463140497,12.383846058624208,26.083447646353115,18.70066571464687,24.626740800843187","56.99585601070838,17.686958828635095,25.335098828642664,26.08062848055812,6.792225658045,54.10341846515094,-17.96596466082489,-17.885370545940543","1","0"
"676","86","text","0","183","1694609","0-0","","","","","","","","","","","","","","","","","","","","","","","","","","","","","","","","","","","","",""
"","","plant-game","0","184","1706404","0-0","","200","120","2","CORN CROP","Left","200","120","1","THISTLE WEED","experimental","79","1,2","120,127.16407687541212","2,1","CORN CROP,CORN CROP","120,190","1,1","THISTLE WEED,NETTLE WEED","20,20","20,20","10,10","20,20","0,0","20,20","20,20","20,20","10,10","20,20","0,0","20,20","0,0","707,2659","7.164076875412128,11.874238139211617","9.2309030069418,59.79778673145076","0","0"
"534","86","text","0","185","1707068","0-0","","","","","","","","","","","","","","","","","","","","","","","","","","","","","","","","","","","","",""
"","","plant-game","0","186","1721131","0-0","","200","160","2","WHEAT CROP","Left","200","190","4","NETTLE WEED","experimental","80","1,2,3,4","160,186.3576803846916,180,176.7388782361742","2,1,2,1","WHEAT CROP,WHEAT CROP,CORN CROP,CORN CROP","190,227.28337007485845,174.3648951609049,177.66595875463736","4,3,2,1","NETTLE WEED,NETTLE WEED,NETTLE WEED,NETTLE WEED","20,20,20,20","20,20,20,20","10,10,10,10","20,20,20,20","0,0,0,0","20,20,20,20","20,20,20,20","20,20,20,20","10,10,10,10","20,20,20,20","0,0,0,0","20,20,20,20","0,1,1,1","4205,1157,1482,684","26.35768038469159,11.193370127363538,-3.2611217638257854,-37.237479864904934","37.28337007485845,-52.918474913953546,3.3010635937324655,-6.727269288600076","0","0"
"1887","86","text","0","187","1723188","0-0","","","","","","","","","","","","","","","","","","","","","","","","","","","","","","","","","","","","",""
"","","plant-game","0","188","1733740","0-0","","200","120","1","WHEAT CROP","Right","200","190","8","NETTLE WEED","experimental","81","1,2,3,4,5,6,7,8","190,183.89282852684607,250.44946616742598,219.2625181132891,239.01515625097787,284.27046362795363,311.0922325071281,351.9861810684758","8,7,6,5,4,3,2,1","NETTLE WEED,NETTLE WEED,NETTLE WEED,NETTLE WEED,NETTLE WEED,NETTLE WEED,NETTLE WEED,NETTLE WEED","120,130,140.00763414357127,159.6430785495231,169.19706486524427,163.76055031835068,183.64339180571181,212.42554127786423","1,7,6,5,4,3,2,1","WHEAT CROP,CORN CROP,CORN CROP,CORN CROP,CORN CROP,CORN CROP,CORN CROP,CORN CROP","0,0,0,0,0,0,0,0","20,20,20,20,20,20,20,20","10,10,10,10,10,10,10,10","20,20,20,20,20,20,20,20","20,20,20,20,20,20,20,20","20,20,20,20,20,20,20,20","0,0,0,0,0,0,0,0","20,20,20,20,20,20,20,20","10,10,10,10,10,10,10,10","20,20,20,20,20,20,20,20","20,20,20,20,20,20,20,20","20,20,20,20,20,20,20,20","0,1,1,1,1,1,1,1","727,1187,664,179,96,84,80,68","-6.1071714731539375,66.55663764057991,-31.186948054136877,19.75263813768876,45.25530737697574,26.82176887917445,40.893948561347734,-42.63767696666125","6.870962347900129,10.00763414357126,19.63544440595182,9.553986315721176,-5.436514546893601,19.882841487361127,28.782149472152398,45.80984393899622","0","0"
"730","86","text","0","189","1734590","0-0","","","","","","","","","","","","","","","","","","","","","","","","","","","","","","","","","","","","",""
"","","plant-game","0","190","1741191","0-0","","200","120","1","CORN CROP","Left","200","180","1","THISTLE WEED","experimental","82","1","120","1","CORN CROP","180","1","THISTLE WEED","20","20","10","20","0","20","20","20","10","20","0","20","0","1500","4.484777956980341","22.189946218289954","0","0"
"586","86","text","0","191","1741877","0-0","","","","","","","","","","","","","","","","","","","","","","","","","","","","","","","","","","","","",""
