"rt","key_press","trial_type","trial_index","trial_index_global","time_elapsed","internal_chunk_id","responses","experimental_goal_height","experimental_start_height","experimental_weeks_total","experimental_crop_type","experimental_crop_side","fixed_goal_height","fixed_start_height","fixed_weeks_total","fixed_crop_type","trial_kind","trial_number","stage","left_current_height","left_weeks_remaining","left_crop_type","right_current_height","right_weeks_remaining","right_crop_type","mean_left_growth_given_left","sd_left_growth_given_left","mean_left_growth_given_middle","sd_left_growth_given_middle","mean_left_growth_given_right","sd_left_growth_given_right","mean_right_growth_given_left","sd_right_growth_given_left","mean_right_growth_given_middle","sd_right_growth_given_middle","mean_right_growth_given_right","sd_right_growth_given_right","response","response_time","left_growth","right_growth","other_key_pressed","mouse_clicked"
"3166572","87","text","0","0","3166730","0-0","","","","","","","","","","","","","","","","","","","","","","","","","","","","","","","","","","","","",""
"7317","","survey-text","0","1","3175073","0-0","{""Q0"":""21""}","","","","","","","","","","","","","","","","","","","","","","","","","","","","","","","","","","","",""
"4296","86","text","0","2","4437","0-0","","","","","","","","","","","","","","","","","","","","","","","","","","","","","","","","","","","","",""
"","","plant-game","0","3","74251","0-0","","200","120","8","WHEAT CROP","Left","200","120","8","THISTLE WEED","practice","1","1,2,3,4,5,6,7,8","120,140.55139748713438,145.20829629493068,134.09060210312055,128.12318549161392,141.28235849813697,124.84572183253948,109.72663569648797","8,7,6,5,4,3,2,1","WHEAT CROP,WHEAT CROP,WHEAT CROP,WHEAT CROP,WHEAT CROP,WHEAT CROP,WHEAT CROP,WHEAT CROP","120,166.40203731673185,176.6629736618258,168.7599248410059,194.17978132921394,210.91744616641014,189.9646830323085,201.0099087575339","8,7,6,5,4,3,2,1","THISTLE WEED,THISTLE WEED,THISTLE WEED,THISTLE WEED,THISTLE WEED,THISTLE WEED,THISTLE WEED,THISTLE WEED","20,20,20,20,20,20,20,20","20,20,20,20,20,20,20,20","10,10,10,10,10,10,10,10","20,20,20,20,20,20,20,20","0,0,0,0,0,0,0,0","20,20,20,20,20,20,20,20","20,20,20,20,20,20,20,20","20,20,20,20,20,20,20,20","10,10,10,10,10,10,10,10","20,20,20,20,20,20,20,20","0,0,0,0,0,0,0,0","20,20,20,20,20,20,20,20","0,1,1,0,1,1,1,1","13859,2684,2482,7160,1035,2565,1112,1598","20.551397487134377,4.656898807796291,-11.117694191810143,-5.967416611506611,13.159173006523037,-16.436636665597483,-15.11908613605151,6.653023109606959","46.40203731673185,10.260936345093924,-7.903048820819883,25.419856488208026,16.737664837196217,-20.952763134101644,11.04522572522541,-8.209591174455879","0","0"
"897","86","text","0","4","75298","0-0","","","","","","","","","","","","","","","","","","","","","","","","","","","","","","","","","","","","",""
"","","plant-game","0","5","105866","0-0","","200","160","4","WHEAT CROP","Left","200","160","4","THISTLE WEED","practice","2","1,2,3,4","160,182.3547628813638,209.46472843631545,214.92898004712276","4,3,2,1","WHEAT CROP,WHEAT CROP,WHEAT CROP,WHEAT CROP","160,153.65812301755636,170.6118187864715,175.6207596356857","4,3,2,1","THISTLE WEED,THISTLE WEED,THISTLE WEED,THISTLE WEED","20,20,20,20","20,20,20,20","10,10,10,10","20,20,20,20","0,0,0,0","20,20,20,20","20,20,20,20","20,20,20,20","10,10,10,10","20,20,20,20","0,0,0,0","20,20,20,20","1,1,1,1","1714,1868,2039,1519","22.354762881363786,27.10996555495165,5.464251610807316,14.130529019707668","-6.341876982443626,16.953695768915136,5.008940849214181,-20.83525120551976","0","0"
"1114","86","text","0","6","107200","0-0","","","","","","","","","","","","","","","","","","","","","","","","","","","","","","","","","","","","",""
"","","plant-game","0","7","131894","0-0","","200","180","2","CORN CROP","Left","200","180","2","THISTLE WEED","practice","3","1,2","180,187.51271169066635","2,1","CORN CROP,CORN CROP","180,193.35927742447632","2,1","THISTLE WEED,THISTLE WEED","20,20","20,20","10,10","20,20","0,0","20,20","20,20","20,20","10,10","20,20","0,0","20,20","1,1","1194,1869","7.512711690666345,-4.213806295865","13.359277424476305,14.435323000110877","0","0"
"4198","86","text","0","8","136322","0-0","","","","","","","","","","","","","","","","","","","","","","","","","","","","","","","","","","","","",""
"","","plant-game","0","9","162100","0-0","","200","190","1","WHEAT CROP","Right","200","190","1","THISTLE WEED","practice","4","1","190","1","THISTLE WEED","190","1","WHEAT CROP","0","20","10","20","20","20","0","20","10","20","20","20","0","682","18.261055427771545","62.73034957271484","0","0"
"807","86","text","0","10","163047","0-0","","","","","","","","","","","","","","","","","","","","","","","","","","","","","","","","","","","","",""
"","","plant-game","0","11","200496","0-0","","200","120","8","CORN CROP","Left","200","160","8","NETTLE WEED","practice","5","1,2,3,4,5,6,7,8","120,148.66921809849202,143.98414304113624,174.5293571035905,196.16817480656536,215.59014504917013,212.7626408800824,206.25926038652815","8,7,6,5,4,3,2,1","CORN CROP,CORN CROP,CORN CROP,CORN CROP,CORN CROP,CORN CROP,CORN CROP,CORN CROP","160,145.6795258136593,143.44465845895692,141.33088316054548,144.5455800083559,180.4595261451442,163.18026833035185,161.88939859988437","8,7,6,5,4,3,2,1","NETTLE WEED,NETTLE WEED,NETTLE WEED,NETTLE WEED,NETTLE WEED,NETTLE WEED,NETTLE WEED,NETTLE WEED","20,20,20,20,20,20,20,20","20,20,20,20,20,20,20,20","10,10,10,10,10,10,10,10","20,20,20,20,20,20,20,20","0,0,0,0,0,0,0,0","20,20,20,20,20,20,20,20","20,20,20,20,20,20,20,20","20,20,20,20,20,20,20,20","10,10,10,10,10,10,10,10","20,20,20,20,20,20,20,20","0,0,0,0,0,0,0,0","20,20,20,20,20,20,20,20","1,1,1,1,1,1,1,1","2604,1355,1128,1342,1155,1429,1205,1079","28.66921809849201,-4.685075057355801,30.54521406245428,21.638817702974848,19.421970242604775,-2.8275041690877565,-6.503380493554224,-9.728239235959723","-14.320474186340707,-2.234867354702371,-2.1137752984114346,3.21469684781042,35.91394613678828,-17.27925781479236,-1.290869730467489,-20.261097324586054","0","0"
"3106","86","text","0","12","203842","0-0","","","","","","","","","","","","","","","","","","","","","","","","","","","","","","","","","","","","",""
"","","plant-game","0","13","232810","0-0","","200","180","4","CORN CROP","Left","200","160","4","THISTLE WEED","practice","6","1,2,3,4","180,192.4218983824173,193.7331324807349,216.15737716736894","4,3,2,1","CORN CROP,CORN CROP,CORN CROP,CORN CROP","160,164.47374765659825,163.48008156916302,159.54397644937566","4,3,2,1","THISTLE WEED,THISTLE WEED,THISTLE WEED,THISTLE WEED","20,20,20,20","20,20,20,20","10,10,10,10","20,20,20,20","0,0,0,0","20,20,20,20","20,20,20,20","20,20,20,20","10,10,10,10","20,20,20,20","0,0,0,0","20,20,20,20","1,1,1,0","2502,1715,1387,6305","12.421898382417309,1.3112340983175728,22.42424468663403,43.30426475108562","4.473747656598262,-0.9936660874352397,-3.936105119787357,23.16111072611691","0","0"
"997","86","text","0","14","233977","0-0","","","","","","","","","","","","","","","","","","","","","","","","","","","","","","","","","","","","",""
"","","plant-game","0","15","258727","0-0","","200","180","2","WHEAT CROP","Left","200","190","2","NETTLE WEED","practice","7","1,2","180,166.66729598061283","2,1","WHEAT CROP,WHEAT CROP","190,145.5584667866221","2,1","NETTLE WEED,NETTLE WEED","20,20","20,20","10,10","20,20","0,0","20,20","20,20","20,20","10,10","20,20","0,0","20,20","1,0","1180,3772","-13.332704019387151,43.059574035100404","-44.44153321337792,-11.175060450404914","0","0"
"859","86","text","0","16","259786","0-0","","","","","","","","","","","","","","","","","","","","","","","","","","","","","","","","","","","","",""
"","","plant-game","0","17","328308","0-0","","200","120","4","CORN CROP","Right","200","120","8","NETTLE WEED","practice","8","1,2,3,4,5,6,7,8","120,98.66743910707355,95.3912889803488,119.13330560901956,126.60451531799558,160.62440629362942,153.22035108273099,195.93251474964205","8,7,6,5,4,3,2,1","NETTLE WEED,NETTLE WEED,NETTLE WEED,NETTLE WEED,NETTLE WEED,NETTLE WEED,NETTLE WEED,NETTLE WEED","120,67.89234322151785,59.061723701201814,45.009737959887474,160,167.9151343238394,163.62445189741584,137.39903289468225","4,3,2,1,4,3,2,1","CORN CROP,CORN CROP,CORN CROP,CORN CROP,WHEAT CROP,WHEAT CROP,WHEAT CROP,WHEAT CROP","0,0,0,0,0,0,0,0","20,20,20,20,20,20,20,20","10,10,10,10,10,10,10,10","20,20,20,20,20,20,20,20","20,20,20,20,20,20,20,20","20,20,20,20,20,20,20,20","0,0,0,0,0,0,0,0","20,20,20,20,20,20,20,20","10,10,10,10,10,10,10,10","20,20,20,20,20,20,20,20","20,20,20,20,20,20,20,20","20,20,20,20,20,20,20,20","0,0,1,1,1,0,1,0","3661,8065,3526,1991,9168,3668,1506,2932","-21.332560892926455,-3.2761501267247444,23.74201662867075,7.471209708976019,34.01989097563383,-7.404055210898428,42.71216366691108,-8.091113424978104","-52.10765677848216,-8.830619520316038,-14.05198574131434,17.998550855067492,7.915134323839384,-4.290682426423556,-26.22541900273358,15.980156689884462","0","0"
"850","86","text","0","18","329267","0-0","","","","","","","","","","","","","","","","","","","","","","","","","","","","","","","","","","","","",""
"","","plant-game","0","19","382734","0-0","","200","160","4","WHEAT CROP","Left","200","160","2","THISTLE WEED","practice","9","1,2,3,4","160,173.36724502163972,218.6326703277248,209.85395770284242","4,3,2,1","WHEAT CROP,WHEAT CROP,WHEAT CROP,WHEAT CROP","160,171.83729968755267,180,163.71860246025153","2,1,2,1","THISTLE WEED,THISTLE WEED,NETTLE WEED,NETTLE WEED","20,20,20,20","20,20,20,20","10,10,10,10","20,20,20,20","0,0,0,0","20,20,20,20","20,20,20,20","20,20,20,20","10,10,10,10","20,20,20,20","0,0,0,0","20,20,20,20","1,1,1,0","5897,7229,6526,3138","13.367245021639718,45.265425306085085,-8.778712624882392,59.05696500597934","11.837299687552676,18.245031132773384,-16.281397539748458,57.64389966138853","0","0"
"1060","86","text","0","20","383974","0-0","","","","","","","","","","","","","","","","","","","","","","","","","","","","","","","","","","","","",""
"","","plant-game","0","21","411709","0-0","","200","180","2","WHEAT CROP","Right","200","180","1","THISTLE WEED","practice","10","1,2","180,190","1,1","THISTLE WEED,NETTLE WEED","180,181.26612267520667","2,1","WHEAT CROP,WHEAT CROP","0,0","20,20","10,10","20,20","20,20","20,20","0,0","20,20","10,10","20,20","20,20","20,20","0,0","820,877","-5.213569225071107,30.32306646956734","1.2661226752066845,10.234593585580669","0","0"
"814","86","text","0","22","412783","0-0","","","","","","","","","","","","","","","","","","","","","","","","","","","","","","","","","","","","",""
"","","plant-game","0","23","466479","0-0","","200","120","8","WHEAT CROP","Left","200","160","4","THISTLE WEED","practice","11","1,2,3,4,5,6,7,8","120,135.03889491809556,129.04094474369307,139.5159952087386,153.7464923226972,187.30931674106307,204.38257585629714,232.0606725416846","8,7,6,5,4,3,2,1","WHEAT CROP,WHEAT CROP,WHEAT CROP,WHEAT CROP,WHEAT CROP,WHEAT CROP,WHEAT CROP,WHEAT CROP","160,170.88413185961278,193.137362713759,178.8350083736837,160,181.31016146523885,196.27381553991177,204.72472674464865","4,3,2,1,4,3,2,1","THISTLE WEED,THISTLE WEED,THISTLE WEED,THISTLE WEED,NETTLE WEED,NETTLE WEED,NETTLE WEED,NETTLE WEED","20,20,20,20,20,20,20,20","20,20,20,20,20,20,20,20","10,10,10,10,10,10,10,10","20,20,20,20,20,20,20,20","0,0,0,0,0,0,0,0","20,20,20,20,20,20,20,20","20,20,20,20,20,20,20,20","20,20,20,20,20,20,20,20","10,10,10,10,10,10,10,10","20,20,20,20,20,20,20,20","0,0,0,0,0,0,0,0","20,20,20,20,20,20,20,20","1,1,1,1,1,1,1,1","1539,2062,5204,2102,2469,2024,2876,5120","15.038894918095558,-5.997950174402495,10.475050465045513,14.230497113958624,33.56282441836588,17.073259115234055,27.678096685387445,13.329300506620507","10.88413185961278,22.253230854146224,-14.302354340075281,6.448702563376358,21.310161465238842,14.96365407467291,8.450911204736872,-8.67816336891565","0","0"
"760","86","text","0","24","467439","0-0","","","","","","","","","","","","","","","","","","","","","","","","","","","","","","","","","","","","",""
"","","plant-game","0","25","506242","0-0","","200","180","2","CORN CROP","Left","200","160","4","NETTLE WEED","practice","12","1,2,3,4","180,137.4812452149083,180,191.91328040055024","2,1,2,1","CORN CROP,CORN CROP,WHEAT CROP,WHEAT CROP","160,158.07284650890284,128.8610661222463,143.1258277091617","4,3,2,1","NETTLE WEED,NETTLE WEED,NETTLE WEED,NETTLE WEED","20,20,20,20","20,20,20,20","10,10,10,10","20,20,20,20","0,0,0,0","20,20,20,20","20,20,20,20","20,20,20,20","10,10,10,10","20,20,20,20","0,0,0,0","20,20,20,20","1,1,1,0","5474,3170,3152,3758","-42.518754785091694,23.2803862637881,11.91328040055023,23.330427148485583","-1.9271534910971475,-29.21178038665653,14.264761586915391,19.62100199398403","0","0"
"2598","86","text","0","26","509020","0-0","","","","","","","","","","","","","","","","","","","","","","","","","","","","","","","","","","","","",""
"13347","86","text","0","27","523539","0-0","","","","","","","","","","","","","","","","","","","","","","","","","","","","","","","","","","","","",""
"","","plant-game","0","28","552667","0-0","","200","180","2","WHEAT CROP","Right","200","160","1","NETTLE WEED","experimental","1","1,2","160,190","1,1","NETTLE WEED,THISTLE WEED","180,163.90405718827688","2,1","WHEAT CROP,WHEAT CROP","0,0","20,20","10,10","20,20","20,20","20,20","0,0","20,20","10,10","20,20","20,20","20,20","0,0","13865,4662","5.861064099809613,-22.258058729807416","-16.095942811723123,-17.248784610237532","0","0"
"770","86","text","0","29","553687","0-0","","","","","","","","","","","","","","","","","","","","","","","","","","","","","","","","","","","","",""
"","","plant-game","0","30","586877","0-0","","200","180","4","CORN CROP","Right","200","190","1","NETTLE WEED","experimental","2","1,2,3,4","190,170,160.14236482602402,162.99810707996807","1,3,2,1","NETTLE WEED,THISTLE WEED,THISTLE WEED,THISTLE WEED","180,192.50576869770245,199.01907036571046,217.35916890420972","4,3,2,1","CORN CROP,CORN CROP,CORN CROP,CORN CROP","0,0,0,0","20,20,20,20","10,10,10,10","20,20,20,20","20,20,20,20","20,20,20,20","0,0,0,0","20,20,20,20","10,10,10,10","20,20,20,20","20,20,20,20","20,20,20,20","0,0,0,0","9637,6375,3157,1698","-4.873376566223829,-9.857635173975991,2.85574225394405,-12.226822110391307","12.505768697702443,6.513301668008008,18.34009853849927,-17.544891921750704","0","0"
"705","86","text","0","31","587772","0-0","","","","","","","","","","","","","","","","","","","","","","","","","","","","","","","","","","","","",""
"","","plant-game","0","32","616049","0-0","","200","120","4","CORN CROP","Left","200","180","4","THISTLE WEED","experimental","3","1,2,3,4","120,90.15327651158526,56.34387788949547,56.34498653844215","4,3,2,1","CORN CROP,CORN CROP,CORN CROP,CORN CROP","180,149.8726426944757,187.17082955173578,184.83041988846554","4,3,2,1","THISTLE WEED,THISTLE WEED,THISTLE WEED,THISTLE WEED","20,20,20,20","20,20,20,20","10,10,10,10","20,20,20,20","0,0,0,0","20,20,20,20","20,20,20,20","20,20,20,20","10,10,10,10","20,20,20,20","0,0,0,0","20,20,20,20","1,1,1,0","7687,3331,4157,6883","-29.84672348841473,-33.809398622089795,0.0011086489466834554,54.08455795034993","-30.1273573055243,37.29818685726008,-2.3404096632702336,20.766294723673493","0","0"
"1847","86","text","0","33","618076","0-0","","","","","","","","","","","","","","","","","","","","","","","","","","","","","","","","","","","","",""
"","","plant-game","0","34","638425","0-0","","200","120","2","WHEAT CROP","Left","200","180","1","NETTLE WEED","experimental","4","1,2","120,138.1227246972505","2,1","WHEAT CROP,WHEAT CROP","180,190","1,1","NETTLE WEED,THISTLE WEED","20,20","20,20","10,10","20,20","0,0","20,20","20,20","20,20","10,10","20,20","0,0","20,20","1,1","6825,3215","18.122724697250508,-5.719392309335855","7.252802618848583,-6.493944718968611","0","0"
"3285","86","text","0","35","641882","0-0","","","","","","","","","","","","","","","","","","","","","","","","","","","","","","","","","","","","",""
"","","plant-game","0","36","657600","0-0","","200","190","1","WHEAT CROP","Left","200","120","2","THISTLE WEED","experimental","5","1,2","190,190","1,1","WHEAT CROP,CORN CROP","120,123.7909510532139","2,1","THISTLE WEED,THISTLE WEED","20,20","20,20","10,10","20,20","0,0","20,20","20,20","20,20","10,10","20,20","0,0","20,20","1,0","4773,3175","-24.752808382429627,18.639605997033154","3.7909510532139086,6.739703839519525","0","0"
"2584","86","text","0","37","660364","0-0","","","","","","","","","","","","","","","","","","","","","","","","","","","","","","","","","","","","",""
"","","plant-game","0","38","685329","0-0","","200","160","8","CORN CROP","Left","200","180","8","THISTLE WEED","experimental","6","1,2,3,4,5,6,7,8","160,135.4108774903586,161.79061579403552,143.8875552717212,146.24659668977165,134.0958897536225,142.21453033650621,158.48076219514152","8,7,6,5,4,3,2,1","CORN CROP,CORN CROP,CORN CROP,CORN CROP,CORN CROP,CORN CROP,CORN CROP,CORN CROP","180,194.0840893224966,176.8843334587325,175.25313834246958,167.906882774039,169.85947891823366,167.82132018938563,179.88362261628635","8,7,6,5,4,3,2,1","THISTLE WEED,THISTLE WEED,THISTLE WEED,THISTLE WEED,THISTLE WEED,THISTLE WEED,THISTLE WEED,THISTLE WEED","20,20,20,20,20,20,20,20","20,20,20,20,20,20,20,20","10,10,10,10,10,10,10,10","20,20,20,20,20,20,20,20","0,0,0,0,0,0,0,0","20,20,20,20,20,20,20,20","20,20,20,20,20,20,20,20","20,20,20,20,20,20,20,20","10,10,10,10,10,10,10,10","20,20,20,20,20,20,20,20","0,0,0,0,0,0,0,0","20,20,20,20,20,20,20,20","1,1,1,1,1,1,1,0","3415,3764,1219,2183,1651,1634,2855,1218","-24.589122509641417,26.37973830367693,-17.903060522314327,2.3590414180504617,-12.150706936149176,8.118640582883724,16.2662318586353,7.369969544017438","14.084089322496581,-17.19975586376411,-1.6311951162629204,-7.346255568430589,1.952596144194678,-2.0381587288480367,12.062302426900704,-15.754581555439529","0","0"
"694","86","text","0","39","686210","0-0","","","","","","","","","","","","","","","","","","","","","","","","","","","","","","","","","","","","",""
"","","plant-game","0","40","714920","0-0","","200","180","2","WHEAT CROP","Left","200","190","4","THISTLE WEED","experimental","7","1,2,3,4","180,181.2420495947865,180,176.0020188799061","2,1,2,1","WHEAT CROP,WHEAT CROP,CORN CROP,CORN CROP","190,168.9759158878903,172.66186344939928,193.67659496627576","4,3,2,1","THISTLE WEED,THISTLE WEED,THISTLE WEED,THISTLE WEED","20,20,20,20","20,20,20,20","10,10,10,10","20,20,20,20","0,0,0,0","20,20,20,20","20,20,20,20","20,20,20,20","10,10,10,10","20,20,20,20","0,0,0,0","20,20,20,20","1,0,1,1","9068,1533,3821,2845","1.2420495947864827,43.34711132153708,-3.99798112009389,5.165435315041508","-21.024084112109694,3.685947561508968,21.014731516876488,27.0074450262911","0","0"
"723","86","text","0","41","715843","0-0","","","","","","","","","","","","","","","","","","","","","","","","","","","","","","","","","","","","",""
"","","plant-game","0","42","739676","0-0","","200","180","1","WHEAT CROP","Left","200","190","2","THISTLE WEED","experimental","8","1,2","180,190","1,1","WHEAT CROP,CORN CROP","190,209.483897037073","2,1","THISTLE WEED,THISTLE WEED","20,20","20,20","10,10","20,20","0,0","20,20","20,20","20,20","10,10","20,20","0,0","20,20","1,1","5901,4824","22.224394521860585,-19.684662904259937","19.483897037073,-17.44647518946134","0","0"
"2173","86","text","0","43","742021","0-0","","","","","","","","","","","","","","","","","","","","","","","","","","","","","","","","","","","","",""
"","","plant-game","0","44","782351","0-0","","200","180","1","WHEAT CROP","Right","200","180","8","NETTLE WEED","experimental","9","1,2,3,4,5,6,7,8","180,203.8142688886873,202.94608545934665,223.59519951608831,267.0077545396915,289.95319582390533,296.51151669069185,300.6112216909461","8,7,6,5,4,3,2,1","NETTLE WEED,NETTLE WEED,NETTLE WEED,NETTLE WEED,NETTLE WEED,NETTLE WEED,NETTLE WEED,NETTLE WEED","180,130,157.6487571865993,158.02516345027715,171.19951481736464,181.15949625715697,169.65973445877046,161.30091144922912","1,7,6,5,4,3,2,1","WHEAT CROP,CORN CROP,CORN CROP,CORN CROP,CORN CROP,CORN CROP,CORN CROP,CORN CROP","0,0,0,0,0,0,0,0","20,20,20,20,20,20,20,20","10,10,10,10,10,10,10,10","20,20,20,20,20,20,20,20","20,20,20,20,20,20,20,20","20,20,20,20,20,20,20,20","0,0,0,0,0,0,0,0","20,20,20,20,20,20,20,20","10,10,10,10,10,10,10,10","20,20,20,20,20,20,20,20","20,20,20,20,20,20,20,20","20,20,20,20,20,20,20,20","0,1,1,1,0,0,0,0","10932,5932,558,773,2830,906,2441,3524","23.81426888868731,-0.8681834293406574,20.649114056741674,43.412555023603204,22.9454412842138,6.55832086678652,4.099705000254205,-14.822418636852507","-21.74277839555764,27.648757186599298,0.37640626367782914,13.174351367087493,9.959981439792326,-11.499761798386501,-8.358823009541346,13.723284060619541","0","0"
"716","86","text","0","45","783270","0-0","","","","","","","","","","","","","","","","","","","","","","","","","","","","","","","","","","","","",""
"","","plant-game","0","46","809885","0-0","","200","190","1","WHEAT CROP","Right","200","120","4","NETTLE WEED","experimental","10","1,2,3,4","120,170.7068172162845,164.46214353964112,133.74536965535327","4,3,2,1","NETTLE WEED,NETTLE WEED,NETTLE WEED,NETTLE WEED","190,170,186.30063251561774,170.43500927167446","1,3,2,1","WHEAT CROP,CORN CROP,CORN CROP,CORN CROP","0,0,0,0","20,20,20,20","10,10,10,10","20,20,20,20","20,20,20,20","20,20,20,20","0,0,0,0","20,20,20,20","10,10,10,10","20,20,20,20","20,20,20,20","20,20,20,20","1,0,0,1","5184,5631,4643,1364","50.7068172162845,-6.244673676643373,-30.716773884287853,18.423541083366956","11.67921974067867,16.30063251561773,-15.865623243943286,8.61552001016735","0","0"
"862","86","text","0","47","810950","0-0","","","","","","","","","","","","","","","","","","","","","","","","","","","","","","","","","","","","",""
"","","plant-game","0","48","836151","0-0","","200","120","8","CORN CROP","Left","200","160","8","NETTLE WEED","experimental","11","1,2,3,4,5,6,7,8","120,102.23363751698233,100.68107751659608,108.87291296268837,103.06494028046517,110.7523831321856,134.82264806729611,174.9825058900367","8,7,6,5,4,3,2,1","CORN CROP,CORN CROP,CORN CROP,CORN CROP,CORN CROP,CORN CROP,CORN CROP,CORN CROP","160,175.93244690170806,177.1871486693988,199.40986302515256,216.9517400953349,231.0816903851821,250.57302057814854,235.47263040472214","8,7,6,5,4,3,2,1","NETTLE WEED,NETTLE WEED,NETTLE WEED,NETTLE WEED,NETTLE WEED,NETTLE WEED,NETTLE WEED,NETTLE WEED","20,20,20,20,20,20,20,20","20,20,20,20,20,20,20,20","10,10,10,10,10,10,10,10","20,20,20,20,20,20,20,20","0,0,0,0,0,0,0,0","20,20,20,20,20,20,20,20","20,20,20,20,20,20,20,20","20,20,20,20,20,20,20,20","10,10,10,10,10,10,10,10","20,20,20,20,20,20,20,20","0,0,0,0,0,0,0,0","20,20,20,20,20,20,20,20","1,1,0,1,1,0,0,0","6745,2406,3890,979,2058,1285,364,294","-17.76636248301768,-1.552560000386246,8.191835446092298,-5.807972682223209,7.687442851720431,24.070264935110504,40.159857822740584,0.22463117721187942","15.932446901708062,1.2547017676907235,22.22271435575375,17.54187707018236,14.129950289847184,19.491330192966455,-15.100390173426412,-7.222086863020145","0","0"
"1062","86","text","0","49","837413","0-0","","","","","","","","","","","","","","","","","","","","","","","","","","","","","","","","","","","","",""
"","","plant-game","0","50","854218","0-0","","200","180","1","WHEAT CROP","Right","200","160","1","THISTLE WEED","experimental","12","1","160","1","THISTLE WEED","180","1","WHEAT CROP","0","20","10","20","20","20","0","20","10","20","20","20","1","9467","-6.830102711895574","43.96702652269371","0","0"
"695","86","text","0","51","855063","0-0","","","","","","","","","","","","","","","","","","","","","","","","","","","","","","","","","","","","",""
"","","plant-game","0","52","894252","0-0","","200","120","8","WHEAT CROP","Right","200","160","2","NETTLE WEED","experimental","13","1,2,3,4,5,6,7,8","160,199.25823735386325,140,173.97154458111964,180.3066122436966,189.32307766946323,187.85180679030742,208.68703867814548","2,1,6,5,4,3,2,1","NETTLE WEED,NETTLE WEED,THISTLE WEED,THISTLE WEED,THISTLE WEED,THISTLE WEED,THISTLE WEED,THISTLE WEED","120,83.60422053288568,58.93959444520707,123.0478859575563,121.37999092944058,109.13736201670814,131.64833938379826,131.52802390859813","8,7,6,5,4,3,2,1","WHEAT CROP,WHEAT CROP,WHEAT CROP,WHEAT CROP,WHEAT CROP,WHEAT CROP,WHEAT CROP,WHEAT CROP","0,0,0,0,0,0,0,0","20,20,20,20,20,20,20,20","10,10,10,10,10,10,10,10","20,20,20,20,20,20,20,20","20,20,20,20,20,20,20,20","20,20,20,20,20,20,20,20","0,0,0,0,0,0,0,0","20,20,20,20,20,20,20,20","10,10,10,10,10,10,10,10","20,20,20,20,20,20,20,20","20,20,20,20,20,20,20,20","20,20,20,20,20,20,20,20","0,0,1,0,0,1,1,1","9700,5890,6225,1107,1207,3100,1158,982","39.25823735386325,-37.38337632151267,33.97154458111966,6.335067662576964,9.016465425766638,-1.4712708791558136,20.83523188783807,29.14434878953157","-36.39577946711432,-24.664626087678606,64.10829151234924,-1.6678950281157292,-12.242628912732442,22.510977367090124,-0.1203154752001403,20.8413326532751","0","0"
"703","86","text","0","53","895145","0-0","","","","","","","","","","","","","","","","","","","","","","","","","","","","","","","","","","","","",""
"","","plant-game","0","54","924505","0-0","","200","160","2","CORN CROP","Left","200","180","8","NETTLE WEED","experimental","14","1,2,3,4,5,6,7,8","160,167.28966163015556,140,174.4140179104859,146.0586389636006,161.6853675769906,172.86986116092396,135.47114735802754","2,1,6,5,4,3,2,1","CORN CROP,CORN CROP,WHEAT CROP,WHEAT CROP,WHEAT CROP,WHEAT CROP,WHEAT CROP,WHEAT CROP","180,177.05207564565524,210.0559437410392,228.3062405305761,205.20213336969812,213.3934307710307,209.5965130436694,221.8077831485413","8,7,6,5,4,3,2,1","NETTLE WEED,NETTLE WEED,NETTLE WEED,NETTLE WEED,NETTLE WEED,NETTLE WEED,NETTLE WEED,NETTLE WEED","20,20,20,20,20,20,20,20","20,20,20,20,20,20,20,20","10,10,10,10,10,10,10,10","20,20,20,20,20,20,20,20","0,0,0,0,0,0,0,0","20,20,20,20,20,20,20,20","20,20,20,20,20,20,20,20","20,20,20,20,20,20,20,20","10,10,10,10,10,10,10,10","20,20,20,20,20,20,20,20","0,0,0,0,0,0,0,0","20,20,20,20,20,20,20,20","0,0,1,1,1,1,1,1","8550,523,4290,1438,1116,730,1618,698","7.289661630155566,-12.847958158243152,34.4140179104859,-28.35537894688531,15.626728613389977,11.18449358393336,-37.39871380289642,-26.381377999200062","-2.9479243543447637,33.00386809538395,18.25029678953691,-23.104107160877994,8.191297401332577,-3.796917727361278,12.21127010487188,28.32069517059384","0","0"
"683","86","text","0","55","925406","0-0","","","","","","","","","","","","","","","","","","","","","","","","","","","","","","","","","","","","",""
"","","plant-game","0","56","952066","0-0","","200","160","1","WHEAT CROP","Left","200","190","4","NETTLE WEED","experimental","15","1,2,3,4","160,170,163.2511976166474,204.46073912183078","1,3,2,1","WHEAT CROP,CORN CROP,CORN CROP,CORN CROP","190,199.82053176816356,213.82849305844252,210.07327086078706","4,3,2,1","NETTLE WEED,NETTLE WEED,NETTLE WEED,NETTLE WEED","20,20,20,20","20,20,20,20","10,10,10,10","20,20,20,20","0,0,0,0","20,20,20,20","20,20,20,20","20,20,20,20","10,10,10,10","20,20,20,20","0,0,0,0","20,20,20,20","0,1,1,1","6621,3683,1941,3768","55.168679997813896,-6.748802383352591,41.20954150518337,11.167471961890485","9.820531768163567,14.007961290278958,-3.7552221976554465,-9.775049309231022","0","0"
"851","86","text","0","57","953077","0-0","","","","","","","","","","","","","","","","","","","","","","","","","","","","","","","","","","","","",""
"","","plant-game","0","58","967416","0-0","","200","190","1","WHEAT CROP","Right","200","190","1","NETTLE WEED","experimental","16","1","190","1","NETTLE WEED","190","1","WHEAT CROP","0","20","10","20","20","20","0","20","10","20","20","20","1","9468","31.688171635976445","18.120804377563594","0","0"
"2769","86","text","0","59","970395","0-0","","","","","","","","","","","","","","","","","","","","","","","","","","","","","","","","","","","","",""
"","","plant-game","0","60","995390","0-0","","200","180","1","CORN CROP","Left","200","160","8","THISTLE WEED","experimental","17","1,2,3,4,5,6,7,8","180,130,122.66229348647359,120.67588366398675,116.86270627320118,147.2573956766142,179.57173787479616,218.7512228032155","1,7,6,5,4,3,2,1","CORN CROP,WHEAT CROP,WHEAT CROP,WHEAT CROP,WHEAT CROP,WHEAT CROP,WHEAT CROP,WHEAT CROP","160,171.66378812144148,149.40130870445313,141.10310610658118,123.26383964348585,149.04087563811865,163.2392816291895,173.7029524749781","8,7,6,5,4,3,2,1","THISTLE WEED,THISTLE WEED,THISTLE WEED,THISTLE WEED,THISTLE WEED,THISTLE WEED,THISTLE WEED,THISTLE WEED","20,20,20,20,20,20,20,20","20,20,20,20,20,20,20,20","10,10,10,10,10,10,10,10","20,20,20,20,20,20,20,20","0,0,0,0,0,0,0,0","20,20,20,20,20,20,20,20","20,20,20,20,20,20,20,20","20,20,20,20,20,20,20,20","10,10,10,10,10,10,10,10","20,20,20,20,20,20,20,20","0,0,0,0,0,0,0,0","20,20,20,20,20,20,20,20","0,1,1,1,0,0,0,0","5931,2682,1121,1035,987,993,810,1905","33.791660072406664,-7.337706513526415,-1.9864098224868376,-3.813177390785566,30.394689403413018,32.31434219818193,39.17948492841935,-1.6754501183025106","11.663788121441497,-22.262479416988363,-8.29820259787195,-17.839266463095335,25.777035994632808,14.198405991070853,10.4636708457886,17.873456836156777","0","0"
"1139","86","text","0","61","996729","0-0","","","","","","","","","","","","","","","","","","","","","","","","","","","","","","","","","","","","",""
"","","plant-game","0","62","1011012","0-0","","200","120","2","CORN CROP","Right","200","160","2","THISTLE WEED","experimental","18","1,2","160,181.03256152992913","2,1","THISTLE WEED,THISTLE WEED","120,86.68312031487409","2,1","CORN CROP,CORN CROP","0,0","20,20","10,10","20,20","20,20","20,20","0,0","20,20","10,10","20,20","20,20","20,20","0,0","6654,3232","21.03256152992911,8.626802587026894","-33.31687968512592,-6.093838821230485","0","0"
"720","86","text","0","63","1011919","0-0","","","","","","","","","","","","","","","","","","","","","","","","","","","","","","","","","","","","",""
"","","plant-game","0","64","1040154","0-0","","200","120","4","WHEAT CROP","Left","200","120","8","NETTLE WEED","experimental","19","1,2,3,4,5,6,7,8","120,97.38521819059503,111.41240645948285,101.37396485413353,160,138.631726349394,140.57032240477875,190.48334016889964","4,3,2,1,4,3,2,1","WHEAT CROP,WHEAT CROP,WHEAT CROP,WHEAT CROP,CORN CROP,CORN CROP,CORN CROP,CORN CROP","120,146.77283052924594,141.86126496178662,168.42685975269325,173.68401100200595,137.92884614714072,124.70499909154468,143.96636061682173","8,7,6,5,4,3,2,1","NETTLE WEED,NETTLE WEED,NETTLE WEED,NETTLE WEED,NETTLE WEED,NETTLE WEED,NETTLE WEED,NETTLE WEED","20,20,20,20,20,20,20,20","20,20,20,20,20,20,20,20","10,10,10,10,10,10,10,10","20,20,20,20,20,20,20,20","0,0,0,0,0,0,0,0","20,20,20,20,20,20,20,20","20,20,20,20,20,20,20,20","20,20,20,20,20,20,20,20","10,10,10,10,10,10,10,10","20,20,20,20,20,20,20,20","0,0,0,0,0,0,0,0","20,20,20,20,20,20,20,20","1,0,0,0,1,0,0,0","8727,1371,820,783,6185,567,487,790","-22.614781809404974,14.027188268887821,-10.038441605349327,18.61062773414258,-21.36827365060599,1.9385960553847603,49.91301776412091,35.92956563877245","26.772830529245937,-4.911565567459309,26.56559479090663,5.257151249312692,-35.755164854865235,-13.223847055596039,19.261361525277053,19.983752496724474","0","0"
"844","86","text","0","65","1041208","0-0","","","","","","","","","","","","","","","","","","","","","","","","","","","","","","","","","","","","",""
"","","plant-game","0","66","1062447","0-0","","200","160","4","WHEAT CROP","Right","200","180","1","THISTLE WEED","experimental","20","1,2,3,4","180,170,190.0970914836048,178.1727230112962","1,3,2,1","THISTLE WEED,NETTLE WEED,NETTLE WEED,NETTLE WEED","160,210.7029123543232,195.9448571510239,190.9426687991806","4,3,2,1","WHEAT CROP,WHEAT CROP,WHEAT CROP,WHEAT CROP","0,0,0,0","20,20,20,20","10,10,10,10","20,20,20,20","20,20,20,20","20,20,20,20","0,0,0,0","20,20,20,20","10,10,10,10","20,20,20,20","20,20,20,20","20,20,20,20","0,0,0,1","5867,2944,1564,1213","25.43865458143818,20.09709148360479,-11.9243684723086,-25.991274649548124","50.70291235432318,-14.758055203299289,-5.00218835184331,57.51095438255315","0","0"
"976","86","text","0","67","1063633","0-0","","","","","","","","","","","","","","","","","","","","","","","","","","","","","","","","","","","","",""
"","","plant-game","0","68","1097049","0-0","","200","180","8","WHEAT CROP","Left","200","120","4","NETTLE WEED","experimental","21","1,2,3,4,5,6,7,8","180,204.12251735232016,250.53043970273845,283.4436638480162,336.6516959865478,343.26219195383527,334.76736594074214,327.03509825852825","8,7,6,5,4,3,2,1","WHEAT CROP,WHEAT CROP,WHEAT CROP,WHEAT CROP,WHEAT CROP,WHEAT CROP,WHEAT CROP,WHEAT CROP","120,133.45561668437628,156.6048282142458,171.86364726291714,160,204.83924659456244,201.25437958025,188.9901201959694","4,3,2,1,4,3,2,1","NETTLE WEED,NETTLE WEED,NETTLE WEED,NETTLE WEED,THISTLE WEED,THISTLE WEED,THISTLE WEED,THISTLE WEED","20,20,20,20,20,20,20,20","20,20,20,20,20,20,20,20","10,10,10,10,10,10,10,10","20,20,20,20,20,20,20,20","0,0,0,0,0,0,0,0","20,20,20,20,20,20,20,20","20,20,20,20,20,20,20,20","20,20,20,20,20,20,20,20","10,10,10,10,10,10,10,10","20,20,20,20,20,20,20,20","0,0,0,0,0,0,0,0","20,20,20,20,20,20,20,20","0,0,0,0,1,1,1,1","7850,1909,1152,2185,5966,1245,536,1359","24.12251735232017,46.40792235041828,32.91322414527775,53.208032138531635,6.610495967287466,-8.494826013093123,-7.7322676822139025,22.85664330620333","13.455616684376285,23.14921152986953,15.25881904867133,28.500655806286197,44.839246594562454,-3.5848670143124273,-12.2642593842806,-5.5038014652772524","0","0"
"654","86","text","0","69","1097913","0-0","","","","","","","","","","","","","","","","","","","","","","","","","","","","","","","","","","","","",""
"","","plant-game","0","70","1121845","0-0","","200","160","4","WHEAT CROP","Right","200","180","2","THISTLE WEED","experimental","22","1,2,3,4","180,189.78310748276903,180,158.807429594262","2,1,2,1","THISTLE WEED,THISTLE WEED,NETTLE WEED,NETTLE WEED","160,182.33768833852702,201.6269950139014,218.59885365334566","4,3,2,1","WHEAT CROP,WHEAT CROP,WHEAT CROP,WHEAT CROP","0,0,0,0","20,20,20,20","10,10,10,10","20,20,20,20","20,20,20,20","20,20,20,20","0,0,0,0","20,20,20,20","10,10,10,10","20,20,20,20","20,20,20,20","20,20,20,20","0,0,0,0","5888,912,4390,3731","9.783107482769035,-46.95159198988978,-21.192570405737992,-24.257281469602127","22.33768833852703,19.289306675374387,16.97185863944425,21.984868620966147","0","0"
"810","86","text","0","71","1122815","0-0","","","","","","","","","","","","","","","","","","","","","","","","","","","","","","","","","","","","",""
"","","plant-game","0","72","1138772","0-0","","200","180","2","WHEAT CROP","Right","200","190","1","THISTLE WEED","experimental","23","1,2","190,190","1,1","THISTLE WEED,NETTLE WEED","180,186.61084632314677","2,1","WHEAT CROP,WHEAT CROP","0,0","20,20","10,10","20,20","20,20","20,20","0,0","20,20","10,10","20,20","20,20","20,20","0,0","4602,2942","-43.1392850810129,-17.657434764704572","6.610846323146777,-24.24843086457178","0","0"
"648","86","text","0","73","1139623","0-0","","","","","","","","","","","","","","","","","","","","","","","","","","","","","","","","","","","","",""
"","","plant-game","0","74","1157531","0-0","","200","180","2","WHEAT CROP","Right","200","180","1","NETTLE WEED","experimental","24","1,2","180,190","1,1","NETTLE WEED,THISTLE WEED","180,204.88601903087013","2,1","WHEAT CROP,WHEAT CROP","0,0","20,20","10,10","20,20","20,20","20,20","0,0","20,20","10,10","20,20","20,20","20,20","0,1","3810,3695","-19.378061123984043,48.14938914145401","24.886019030870127,29.873182208445478","0","0"
"1531","86","text","0","75","1159312","0-0","","","","","","","","","","","","","","","","","","","","","","","","","","","","","","","","","","","","",""
"","","plant-game","0","76","1175206","0-0","","200","160","4","WHEAT CROP","Right","200","160","4","NETTLE WEED","experimental","25","1,2,3,4","160,151.0941510996924,192.37233811950648,202.19634821421425","4,3,2,1","NETTLE WEED,NETTLE WEED,NETTLE WEED,NETTLE WEED","160,172.35512134263703,177.6550841878667,200.42536673174473","4,3,2,1","WHEAT CROP,WHEAT CROP,WHEAT CROP,WHEAT CROP","0,0,0,0","20,20,20,20","10,10,10,10","20,20,20,20","20,20,20,20","20,20,20,20","0,0,0,0","20,20,20,20","10,10,10,10","20,20,20,20","20,20,20,20","20,20,20,20","0,0,0,0","5757,1418,929,2068","-8.905848900307591,41.27818701981407,9.824010094707768,-31.320719294226222","12.355121342637037,5.299962845229663,22.770282543878047,6.96988039940504","0","0"
"601","86","text","0","77","1175987","0-0","","","","","","","","","","","","","","","","","","","","","","","","","","","","","","","","","","","","",""
"","","plant-game","0","78","1204313","0-0","","200","190","8","CORN CROP","Left","200","120","1","NETTLE WEED","experimental","26","1,2,3,4,5,6,7,8","190,211.99417595282526,265.9109049317768,297.62164653794883,278.65111966564336,303.5045184365705,314.7938755734725,351.7216901418471","8,7,6,5,4,3,2,1","CORN CROP,CORN CROP,CORN CROP,CORN CROP,CORN CROP,CORN CROP,CORN CROP,CORN CROP","120,130,120.17831344543215,109.73623098127918,155.6158975673372,190.97420726267347,199.9042453599178,179.2362010625484","1,7,6,5,4,3,2,1","NETTLE WEED,THISTLE WEED,THISTLE WEED,THISTLE WEED,THISTLE WEED,THISTLE WEED,THISTLE WEED,THISTLE WEED","20,20,20,20,20,20,20,20","20,20,20,20,20,20,20,20","10,10,10,10,10,10,10,10","20,20,20,20,20,20,20,20","0,0,0,0,0,0,0,0","20,20,20,20,20,20,20,20","20,20,20,20,20,20,20,20","20,20,20,20,20,20,20,20","10,10,10,10,10,10,10,10","20,20,20,20,20,20,20,20","0,0,0,0,0,0,0,0","20,20,20,20,20,20,20,20","0,0,0,0,0,1,1,1","7373,5213,1670,1077,24,1473,400,990","21.994175952825262,53.916728978951596,31.710741606172007,-18.970526872305477,24.853398770927118,11.289357136902032,36.927814568374565,-14.74129335568765","8.7162799867641,-9.821686554567847,-10.442082464152975,45.87966658605804,35.35830969533626,8.930038097244342,-20.66804429736942,7.516151741206693","0","0"
"1119","86","text","0","79","1205619","0-0","","","","","","","","","","","","","","","","","","","","","","","","","","","","","","","","","","","","",""
"","","plant-game","0","80","1223357","0-0","","200","190","1","CORN CROP","Left","200","190","2","NETTLE WEED","experimental","27","1,2","190,190","1,1","CORN CROP,WHEAT CROP","190,191.71810622999635","2,1","NETTLE WEED,NETTLE WEED","20,20","20,20","10,10","20,20","0,0","20,20","20,20","20,20","10,10","20,20","0,0","20,20","0,0","6770,3058","3.6017461815017064,15.913851388333425","1.7181062299963408,57.39199572827647","0","0"
"844","86","text","0","81","1224401","0-0","","","","","","","","","","","","","","","","","","","","","","","","","","","","","","","","","","","","",""
"","","plant-game","0","82","1244731","0-0","","200","160","2","CORN CROP","Left","200","190","1","THISTLE WEED","experimental","28","1,2","160,161.33586694302463","2,1","CORN CROP,CORN CROP","190,190","1,1","THISTLE WEED,NETTLE WEED","20,20","20,20","10,10","20,20","0,0","20,20","20,20","20,20","10,10","20,20","0,0","20,20","1,0","6557,3826","1.3358669430246284,-0.9908969281135036","-16.128004030390088,31.796038512260235","0","0"
"1024","86","text","0","83","1245985","0-0","","","","","","","","","","","","","","","","","","","","","","","","","","","","","","","","","","","","",""
"","","plant-game","0","84","1274831","0-0","","200","180","8","CORN CROP","Right","200","160","4","THISTLE WEED","experimental","29","1,2,3,4,5,6,7,8","160,166.07087067124658,164.53027590226688,187.9055053676485,160,174.87711736966307,153.92250595053017,144.23347310713322","4,3,2,1,4,3,2,1","THISTLE WEED,THISTLE WEED,THISTLE WEED,THISTLE WEED,NETTLE WEED,NETTLE WEED,NETTLE WEED,NETTLE WEED","180,227.3962821406077,223.93630349990167,242.38465327050577,238.27781726199316,219.65564089170198,253.6185591172502,274.002657343383","8,7,6,5,4,3,2,1","CORN CROP,CORN CROP,CORN CROP,CORN CROP,CORN CROP,CORN CROP,CORN CROP,CORN CROP","0,0,0,0,0,0,0,0","20,20,20,20,20,20,20,20","10,10,10,10,10,10,10,10","20,20,20,20,20,20,20,20","20,20,20,20,20,20,20,20","20,20,20,20,20,20,20,20","0,0,0,0,0,0,0,0","20,20,20,20,20,20,20,20","10,10,10,10,10,10,10,10","20,20,20,20,20,20,20,20","20,20,20,20,20,20,20,20","20,20,20,20,20,20,20,20","0,0,0,0,0,0,0,0","8958,1452,1112,1178,4842,1378,1210,649","6.070870671246568,-1.540594768979693,23.3752294653816,0.8756427222454782,14.877117369663074,-20.954611419132906,-9.689032843396946,-3.348666128797863","47.39628214060771,-3.459978640706023,18.44834977060409,-4.106836008512616,-18.622176370291175,33.962918225548215,20.384098226132842,-3.495692598756872","0","0"
"657","86","text","0","85","1275676","0-0","","","","","","","","","","","","","","","","","","","","","","","","","","","","","","","","","","","","",""
"","","plant-game","0","86","1299563","0-0","","200","120","8","CORN CROP","Right","200","190","1","NETTLE WEED","experimental","30","1,2,3,4,5,6,7,8","190,130,134.32837173882248,153.9642793131143,164.15245640757934,161.5742700913058,197.90623857941083,260.9783356087964","1,7,6,5,4,3,2,1","NETTLE WEED,THISTLE WEED,THISTLE WEED,THISTLE WEED,THISTLE WEED,THISTLE WEED,THISTLE WEED,THISTLE WEED","120,96.94817411874413,88.65966415488936,108.63009224634186,81.44701871343955,101.73514453269692,128.9293348209697,180.39689134421448","8,7,6,5,4,3,2,1","CORN CROP,CORN CROP,CORN CROP,CORN CROP,CORN CROP,CORN CROP,CORN CROP,CORN CROP","0,0,0,0,0,0,0,0","20,20,20,20,20,20,20,20","10,10,10,10,10,10,10,10","20,20,20,20,20,20,20,20","20,20,20,20,20,20,20,20","20,20,20,20,20,20,20,20","0,0,0,0,0,0,0,0","20,20,20,20,20,20,20,20","10,10,10,10,10,10,10,10","20,20,20,20,20,20,20,20","20,20,20,20,20,20,20,20","20,20,20,20,20,20,20,20","0,1,1,0,1,1,1,1","5854,1975,1428,2143,1006,326,532,444","-5.958020042096475,4.3283717388224865,19.635907574291824,10.188177094465019,-2.5781863162735235,36.33196848810501,63.072097029385546,-0.2809828202060629","-23.051825881255862,-8.288509963854786,19.9704280914525,-27.18307353290232,20.288125819257367,27.19419028827279,51.46755652324479,39.002944707933366","0","0"
"818","86","text","0","87","1300561","0-0","","","","","","","","","","","","","","","","","","","","","","","","","","","","","","","","","","","","",""
"","","plant-game","0","88","1321127","0-0","","200","160","4","WHEAT CROP","Right","200","160","2","THISTLE WEED","experimental","31","1,2,3,4","160,175.35731707365466,180,177.88023838179717","2,1,2,1","THISTLE WEED,THISTLE WEED,NETTLE WEED,NETTLE WEED","160,188.80517435742408,191.41894777049671,212.6532037056339","4,3,2,1","WHEAT CROP,WHEAT CROP,WHEAT CROP,WHEAT CROP","0,0,0,0","20,20,20,20","10,10,10,10","20,20,20,20","20,20,20,20","20,20,20,20","0,0,0,0","20,20,20,20","10,10,10,10","20,20,20,20","20,20,20,20","20,20,20,20","0,0,0,0","7269,700,2807,1537","15.357317073654666,26.511010246426437,-2.1197616182028174,5.613847671462695","28.80517435742408,2.613773413072634,21.234255935137178,10.895010816211691","0","0"
"572","86","text","0","89","1321909","0-0","","","","","","","","","","","","","","","","","","","","","","","","","","","","","","","","","","","","",""
"","","plant-game","0","90","1348459","0-0","","200","190","8","WHEAT CROP","Right","200","180","1","THISTLE WEED","experimental","32","1,2,3,4,5,6,7,8","180,130,128.47880118445826,176.44918242901804,183.55803236224915,185.59867075271958,210.8743354109231,197.66606924271386","1,7,6,5,4,3,2,1","THISTLE WEED,NETTLE WEED,NETTLE WEED,NETTLE WEED,NETTLE WEED,NETTLE WEED,NETTLE WEED,NETTLE WEED","190,170.14205910893924,165.29565562289312,155.77418622264517,176.41324190288938,190.8752528689527,202.10504887172846,204.64512733195338","8,7,6,5,4,3,2,1","WHEAT CROP,WHEAT CROP,WHEAT CROP,WHEAT CROP,WHEAT CROP,WHEAT CROP,WHEAT CROP,WHEAT CROP","0,0,0,0,0,0,0,0","20,20,20,20,20,20,20,20","10,10,10,10,10,10,10,10","20,20,20,20,20,20,20,20","20,20,20,20,20,20,20,20","20,20,20,20,20,20,20,20","0,0,0,0,0,0,0,0","20,20,20,20,20,20,20,20","10,10,10,10,10,10,10,10","20,20,20,20,20,20,20,20","20,20,20,20,20,20,20,20","20,20,20,20,20,20,20,20","0,0,0,1,0,0,0,0","5515,3379,1319,766,745,934,1446,671","-13.665180454155717,-1.5211988155417449,47.97038124455976,7.108849933231111,2.0406383904704253,25.275664658203503,-13.208266168209237,33.077253930415196","-19.85794089106075,-4.846403486046106,-9.521469400247952,20.639055680244223,14.462010966063323,11.22979600277574,2.5400784602249082,2.5746169125888634","0","0"
"617","86","text","0","91","1349186","0-0","","","","","","","","","","","","","","","","","","","","","","","","","","","","","","","","","","","","",""
"","","plant-game","0","92","1365680","0-0","","200","160","2","WHEAT CROP","Right","200","120","1","THISTLE WEED","experimental","33","1,2","120,190","1,1","THISTLE WEED,NETTLE WEED","160,137.40831892044505","2,1","WHEAT CROP,WHEAT CROP","0,0","20,20","10,10","20,20","20,20","20,20","0,0","20,20","10,10","20,20","20,20","20,20","0,0","4418,2404","-14.529413014818557,3.5824787916973206","-22.591681079554956,16.422168737097383","0","0"
"510","86","text","0","93","1366361","0-0","","","","","","","","","","","","","","","","","","","","","","","","","","","","","","","","","","","","",""
"","","plant-game","0","94","1386943","0-0","","200","190","4","WHEAT CROP","Right","200","120","1","NETTLE WEED","experimental","34","1,2,3,4","120,170,170.30762685994156,160.99126306731168","1,3,2,1","NETTLE WEED,THISTLE WEED,THISTLE WEED,THISTLE WEED","190,227.38474539995644,222.59474057187595,191.29449024358829","4,3,2,1","WHEAT CROP,WHEAT CROP,WHEAT CROP,WHEAT CROP","0,0,0,0","20,20,20,20","10,10,10,10","20,20,20,20","20,20,20,20","20,20,20,20","0,0,0,0","20,20,20,20","10,10,10,10","20,20,20,20","20,20,20,20","20,20,20,20","1,0,0,1","6229,3053,1921,1195","-2.941861453965508,0.3076268599415575,-9.31636379262988,-6.521976856939858","37.384745399956444,-4.790004828080492,-31.300250328287667,24.378021264904252","0","0"
"784","86","text","0","95","1387968","0-0","","","","","","","","","","","","","","","","","","","","","","","","","","","","","","","","","","","","",""
"","","plant-game","0","96","1409308","0-0","","200","190","4","CORN CROP","Left","200","190","1","THISTLE WEED","experimental","35","1,2,3,4","190,216.54895059103484,224.9727572035931,217.91399653178573","4,3,2,1","CORN CROP,CORN CROP,CORN CROP,CORN CROP","190,170,176.18542670678082,153.7208291097723","1,3,2,1","THISTLE WEED,NETTLE WEED,NETTLE WEED,NETTLE WEED","20,20,20,20","20,20,20,20","10,10,10,10","20,20,20,20","0,0,0,0","20,20,20,20","20,20,20,20","20,20,20,20","10,10,10,10","20,20,20,20","0,0,0,0","20,20,20,20","0,1,1,1","7422,3422,1524,1048","26.54895059103483,8.423806612558252,-7.058760671807359,7.334776306296467","16.5926730912892,6.185426706780808,-22.46459759700853,-23.827359464526264","0","0"
"689","86","text","0","97","1410207","0-0","","","","","","","","","","","","","","","","","","","","","","","","","","","","","","","","","","","","",""
"","","plant-game","0","98","1425703","0-0","","200","190","4","CORN CROP","Left","200","160","1","THISTLE WEED","experimental","36","1,2,3,4","190,164.6784779352457,215.9929354042932,208.63325106483498","4,3,2,1","CORN CROP,CORN CROP,CORN CROP,CORN CROP","160,170,207.33839939967203,169.27448637972546","1,3,2,1","THISTLE WEED,NETTLE WEED,NETTLE WEED,NETTLE WEED","20,20,20,20","20,20,20,20","10,10,10,10","20,20,20,20","0,0,0,0","20,20,20,20","20,20,20,20","20,20,20,20","10,10,10,10","20,20,20,20","0,0,0,0","20,20,20,20","1,0,1,1","4008,1287,1633,873","-25.32152206475431,51.314457469047504,-7.359684339458237,15.530000049726947","-25.40459233481195,37.33839939967204,-38.06391301994657,19.247335103924193","0","0"
"664","86","text","0","99","1426537","0-0","","","","","","","","","","","","","","","","","","","","","","","","","","","","","","","","","","","","",""
"","","plant-game","0","100","1443494","0-0","","200","180","2","CORN CROP","Left","200","120","1","THISTLE WEED","experimental","37","1,2","180,208.34753990892105","2,1","CORN CROP,CORN CROP","120,190","1,1","THISTLE WEED,NETTLE WEED","20,20","20,20","10,10","20,20","0,0","20,20","20,20","20,20","10,10","20,20","0,0","20,20","0,1","7411,1646","28.34753990892105,4.4535651726836125","22.170778401473548,11.278583864170395","0","0"
"753","86","text","0","101","1444437","0-0","","","","","","","","","","","","","","","","","","","","","","","","","","","","","","","","","","","","",""
"","","plant-game","0","102","1476642","0-0","","200","190","4","WHEAT CROP","Right","200","180","8","NETTLE WEED","experimental","38","1,2,3,4,5,6,7,8","180,202.55713994897616,195.13388161682303,192.4938059751179,184.02326655886327,203.0662811683343,237.64080856089208,230.5803506598863","8,7,6,5,4,3,2,1","NETTLE WEED,NETTLE WEED,NETTLE WEED,NETTLE WEED,NETTLE WEED,NETTLE WEED,NETTLE WEED,NETTLE WEED","190,183.62842456597312,223.35795994036255,235.10326375906422,160,153.00630297491196,174.8202540085751,126.07933747947652","4,3,2,1,4,3,2,1","WHEAT CROP,WHEAT CROP,WHEAT CROP,WHEAT CROP,CORN CROP,CORN CROP,CORN CROP,CORN CROP","0,0,0,0,0,0,0,0","20,20,20,20,20,20,20,20","10,10,10,10,10,10,10,10","20,20,20,20,20,20,20,20","20,20,20,20,20,20,20,20","20,20,20,20,20,20,20,20","0,0,0,0,0,0,0,0","20,20,20,20,20,20,20,20","10,10,10,10,10,10,10,10","20,20,20,20,20,20,20,20","20,20,20,20,20,20,20,20","20,20,20,20,20,20,20,20","0,1,1,1,0,1,0,0","8687,4341,3614,754,3017,1028,1026,366","22.557139948976165,-7.423258332153139,-2.6400756417051205,-8.470539416254628,19.04301460947104,34.57452739255777,-7.060457901005769,4.232321714389862","-6.371575434026873,39.72953537438943,11.745303818701675,38.412086409122665,-6.993697025088046,21.813951033663116,-48.74091652909858,3.506785745482304","1","0"
"662","86","text","0","103","1477534","0-0","","","","","","","","","","","","","","","","","","","","","","","","","","","","","","","","","","","","",""
"","","plant-game","0","104","1504693","0-0","","200","160","4","CORN CROP","Right","200","190","8","NETTLE WEED","experimental","39","1,2,3,4,5,6,7,8","190,154.331019381533,201.11406731174247,220.34503968396024,193.67889759117836,194.84799063876974,204.49865767238194,256.5553407974072","8,7,6,5,4,3,2,1","NETTLE WEED,NETTLE WEED,NETTLE WEED,NETTLE WEED,NETTLE WEED,NETTLE WEED,NETTLE WEED,NETTLE WEED","160,187.62650509615324,235.01275402049237,222.41467969422985,160,140.92325593766583,175.68615903563472,245.21822850490278","4,3,2,1,4,3,2,1","CORN CROP,CORN CROP,CORN CROP,CORN CROP,WHEAT CROP,WHEAT CROP,WHEAT CROP,WHEAT CROP","0,0,0,0,0,0,0,0","20,20,20,20,20,20,20,20","10,10,10,10,10,10,10,10","20,20,20,20,20,20,20,20","20,20,20,20,20,20,20,20","20,20,20,20,20,20,20,20","0,0,0,0,0,0,0,0","20,20,20,20,20,20,20,20","10,10,10,10,10,10,10,10","20,20,20,20,20,20,20,20","20,20,20,20,20,20,20,20","20,20,20,20,20,20,20,20","1,1,0,0,0,1,1,0","3618,708,3052,1021,4119,2602,543,1792","-35.66898061846701,46.78304793020947,19.23097237221775,-26.666142092781886,1.169093047591401,9.650667033612192,52.05668312502525,13.375023287824124","27.626505096153238,47.38624892433913,-12.598074326262507,-10.898600123207116,-19.076744062334182,34.76290309796889,69.53206946926807,6.628111845666024","0","0"
"2138","86","text","0","105","1507061","0-0","","","","","","","","","","","","","","","","","","","","","","","","","","","","","","","","","","","","",""
"","","plant-game","0","106","1529733","0-0","","200","180","1","CORN CROP","Left","200","190","4","THISTLE WEED","experimental","40","1,2,3,4","180,170,162.44093792341795,195.47231121996185","1,3,2,1","CORN CROP,WHEAT CROP,WHEAT CROP,WHEAT CROP","190,210.71653370873688,199.59743410301058,189.71054457133556","4,3,2,1","THISTLE WEED,THISTLE WEED,THISTLE WEED,THISTLE WEED","20,20,20,20","20,20,20,20","10,10,10,10","20,20,20,20","0,0,0,0","20,20,20,20","20,20,20,20","20,20,20,20","10,10,10,10","20,20,20,20","0,0,0,0","20,20,20,20","0,1,1,1","7135,5325,551,945","6.560500022146567,-7.559062076582062,33.0313732965439,11.924457260503136","20.716533708736865,-11.119099605726285,-9.886889531675028,43.888147802504314","0","0"
"559","86","text","0","107","1530505","0-0","","","","","","","","","","","","","","","","","","","","","","","","","","","","","","","","","","","","",""
"","","plant-game","0","108","1545996","0-0","","200","120","4","CORN CROP","Left","200","190","2","THISTLE WEED","experimental","41","1,2,3,4","120,119.98989611872867,133.12662020684482,118.42181449949223","4,3,2,1","CORN CROP,CORN CROP,CORN CROP,CORN CROP","190,231.925539313134,180,185.4997121422575","2,1,2,1","THISTLE WEED,THISTLE WEED,NETTLE WEED,NETTLE WEED","20,20,20,20","20,20,20,20","10,10,10,10","20,20,20,20","0,0,0,0","20,20,20,20","20,20,20,20","20,20,20,20","10,10,10,10","20,20,20,20","0,0,0,0","20,20,20,20","1,1,1,1","4330,1197,2948,539","-0.010103881271333992,13.13672408811616,-14.704805707352598,-8.802355072413915","41.92553931313402,-5.85441330380625,5.499712142257507,-10.55912525931131","0","0"
"1439","86","text","0","109","1547625","0-0","","","","","","","","","","","","","","","","","","","","","","","","","","","","","","","","","","","","",""
"","","plant-game","0","110","1561192","0-0","","200","190","2","CORN CROP","Left","200","190","2","THISTLE WEED","experimental","42","1,2","190,180.3188558418575","2,1","CORN CROP,CORN CROP","190,168.69856441540728","2,1","THISTLE WEED,THISTLE WEED","20,20","20,20","10,10","20,20","0,0","20,20","20,20","20,20","10,10","20,20","0,0","20,20","1,1","8247,1636","-9.681144158142507,-40.65932585145144","-21.301435584592717,-20.56749852815009","0","0"
"517","86","text","0","111","1561927","0-0","","","","","","","","","","","","","","","","","","","","","","","","","","","","","","","","","","","","",""
"","","plant-game","0","112","1581431","0-0","","200","160","8","CORN CROP","Left","200","120","1","THISTLE WEED","experimental","43","1,2,3,4,5,6,7,8","160,135.93154681993062,136.5555128075756,125.30439454104736,99.91065751428049,126.48505294898453,128.98974855366455,134.9743968431374","8,7,6,5,4,3,2,1","CORN CROP,CORN CROP,CORN CROP,CORN CROP,CORN CROP,CORN CROP,CORN CROP,CORN CROP","120,130,175.98404745887922,202.95154444061242,202.01476035348722,197.3334543549201,189.60662764602213,224.43803500269954","1,7,6,5,4,3,2,1","THISTLE WEED,NETTLE WEED,NETTLE WEED,NETTLE WEED,NETTLE WEED,NETTLE WEED,NETTLE WEED,NETTLE WEED","20,20,20,20,20,20,20,20","20,20,20,20,20,20,20,20","10,10,10,10,10,10,10,10","20,20,20,20,20,20,20,20","0,0,0,0,0,0,0,0","20,20,20,20,20,20,20,20","20,20,20,20,20,20,20,20","20,20,20,20,20,20,20,20","10,10,10,10,10,10,10,10","20,20,20,20,20,20,20,20","0,0,0,0,0,0,0,0","20,20,20,20,20,20,20,20","1,0,1,1,1,1,1,1","5116,2484,1482,446,651,607,372,462","-24.068453180069387,0.6239659876450077,-11.25111826652825,-25.39373702676687,26.574395434704048,2.504695604680021,5.984648289472866,-20.157631748116525","15.49355112022798,45.98404745887923,26.9674969817332,-0.9367840871252178,-4.681305998567127,-7.726826708897957,34.831407356677396,24.38112690741115","0","0"
"924","86","text","0","113","1582569","0-0","","","","","","","","","","","","","","","","","","","","","","","","","","","","","","","","","","","","",""
"","","plant-game","0","114","1604424","0-0","","200","180","2","CORN CROP","Right","200","160","4","NETTLE WEED","experimental","44","1,2,3,4","160,177.30573738221938,198.19593359491768,192.96456040419207","4,3,2,1","NETTLE WEED,NETTLE WEED,NETTLE WEED,NETTLE WEED","180,200.28073770288432,180,180.92719587638564","2,1,2,1","CORN CROP,CORN CROP,WHEAT CROP,WHEAT CROP","0,0,0,0","20,20,20,20","10,10,10,10","20,20,20,20","20,20,20,20","20,20,20,20","0,0,0,0","20,20,20,20","10,10,10,10","20,20,20,20","20,20,20,20","20,20,20,20","1,1,0,1","6906,601,1354,4477","17.30573738221937,20.890196212698296,-5.231373190725593,-5.799461978101306","20.28073770288431,24.13964048591832,0.9271958763856445,29.035956212729683","0","0"
"687","86","text","0","115","1605301","0-0","","","","","","","","","","","","","","","","","","","","","","","","","","","","","","","","","","","","",""
"","","plant-game","0","116","1635831","0-0","","200","160","1","CORN CROP","Left","200","180","8","NETTLE WEED","experimental","45","1,2,3,4,5,6,7,8","160,130,100.91503631373763,115.45875381760285,122.01651283809804,82.9398906040494,128.13931891843646,130.22478163716804","1,7,6,5,4,3,2,1","CORN CROP,WHEAT CROP,WHEAT CROP,WHEAT CROP,WHEAT CROP,WHEAT CROP,WHEAT CROP,WHEAT CROP","180,252.45159305526232,232.59620735392517,224.85285996978533,233.14375313998087,228.99123122777942,243.70012824928415,262.2963602390203","8,7,6,5,4,3,2,1","NETTLE WEED,NETTLE WEED,NETTLE WEED,NETTLE WEED,NETTLE WEED,NETTLE WEED,NETTLE WEED,NETTLE WEED","20,20,20,20,20,20,20,20","20,20,20,20,20,20,20,20","10,10,10,10,10,10,10,10","20,20,20,20,20,20,20,20","0,0,0,0,0,0,0,0","20,20,20,20,20,20,20,20","20,20,20,20,20,20,20,20","20,20,20,20,20,20,20,20","10,10,10,10,10,10,10,10","20,20,20,20,20,20,20,20","0,0,0,0,0,0,0,0","20,20,20,20,20,20,20,20","0,1,1,1,1,1,0,0","6446,13260,332,331,394,315,986,515","5.091591439596959,-29.08496368626237,14.543717503865219,6.557759020495178,-39.076622234048635,45.19942831438705,2.0854627187315664,34.656611627014215","72.45159305526234,-19.855385701337166,-7.74334738413983,8.290893170195542,-4.152521912201442,14.70889702150474,18.596231989736147,27.417638354281152","0","0"
"624","86","text","0","117","1636642","0-0","","","","","","","","","","","","","","","","","","","","","","","","","","","","","","","","","","","","",""
"","","plant-game","0","118","1653500","0-0","","200","120","2","WHEAT CROP","Left","200","190","1","THISTLE WEED","experimental","46","1,2","120,133.9294210815731","2,1","WHEAT CROP,WHEAT CROP","190,190","1,1","THISTLE WEED,NETTLE WEED","20,20","20,20","10,10","20,20","0,0","20,20","20,20","20,20","10,10","20,20","0,0","20,20","1,1","4434,5805","13.92942108157311,2.542726304752833","36.338420257176956,7.665909640396279","0","0"
"705","86","text","0","119","1654385","0-0","","","","","","","","","","","","","","","","","","","","","","","","","","","","","","","","","","","","",""
"","","plant-game","0","120","1677718","0-0","","200","120","4","WHEAT CROP","Right","200","120","4","NETTLE WEED","experimental","47","1,2,3,4","120,96.09976163957863,104.32721225563584,123.89349855022897","4,3,2,1","NETTLE WEED,NETTLE WEED,NETTLE WEED,NETTLE WEED","120,126.95281688194046,130.72222034133057,146.75017766830092","4,3,2,1","WHEAT CROP,WHEAT CROP,WHEAT CROP,WHEAT CROP","0,0,0,0","20,20,20,20","10,10,10,10","20,20,20,20","20,20,20,20","20,20,20,20","0,0,0,0","20,20,20,20","10,10,10,10","20,20,20,20","20,20,20,20","20,20,20,20","0,0,1,1","8323,1874,5018,912","-23.90023836042137,8.227450616057208,19.566286294593127,32.00102873238491","6.952816881940466,3.7694034593901122,16.027957326970355,59.764860428845616","0","0"
"837","86","text","0","121","1678725","0-0","","","","","","","","","","","","","","","","","","","","","","","","","","","","","","","","","","","","",""
"","","plant-game","0","122","1706138","0-0","","200","190","8","CORN CROP","Left","200","190","1","NETTLE WEED","experimental","48","1,2,3,4,5,6,7,8","190,196.72314713027723,176.73001029862428,178.2804186044497,170.9766361835297,172.42230469515397,193.47283656219952,183.94761222736219","8,7,6,5,4,3,2,1","CORN CROP,CORN CROP,CORN CROP,CORN CROP,CORN CROP,CORN CROP,CORN CROP,CORN CROP","190,130,158.06611440795865,151.37720195137658,142.71010782345027,174.8431463190917,138.28981230351263,175.4390206800452","1,7,6,5,4,3,2,1","NETTLE WEED,THISTLE WEED,THISTLE WEED,THISTLE WEED,THISTLE WEED,THISTLE WEED,THISTLE WEED,THISTLE WEED","20,20,20,20,20,20,20,20","20,20,20,20,20,20,20,20","10,10,10,10,10,10,10,10","20,20,20,20,20,20,20,20","0,0,0,0,0,0,0,0","20,20,20,20,20,20,20,20","20,20,20,20,20,20,20,20","20,20,20,20,20,20,20,20","10,10,10,10,10,10,10,10","20,20,20,20,20,20,20,20","0,0,0,0,0,0,0,0","20,20,20,20,20,20,20,20","1,1,1,1,1,1,0,1","3079,3825,1058,1046,856,727,5548,2249","6.723147130277231,-19.99313683165296,1.5504083058254137,-7.303782420919996,1.4456685116242582,21.050531867045535,-9.525224334837318,16.68757396445276","36.25337866702595,28.066114407958665,-6.68891245658208,-8.667094127926308,32.13303849564142,-36.55333401557907,37.14920837653254,-28.77717567725073","0","0"
"657","86","text","0","123","1706979","0-0","","","","","","","","","","","","","","","","","","","","","","","","","","","","","","","","","","","","",""
"","","plant-game","0","124","1722390","0-0","","200","180","1","WHEAT CROP","Left","200","160","2","NETTLE WEED","experimental","49","1,2","180,190","1,1","WHEAT CROP,CORN CROP","160,189.17090379608828","2,1","NETTLE WEED,NETTLE WEED","20,20","20,20","10,10","20,20","0,0","20,20","20,20","20,20","10,10","20,20","0,0","20,20","0,0","5838,3330","12.73031313132773,10.236090176723577","29.170903796088282,34.20815651605638","0","0"
"565","86","text","0","125","1723146","0-0","","","","","","","","","","","","","","","","","","","","","","","","","","","","","","","","","","","","",""
"","","plant-game","0","126","1735346","0-0","","200","160","4","WHEAT CROP","Left","200","180","4","THISTLE WEED","experimental","50","1,2,3,4","160,114.36008788282334,103.99282753567736,95.29410836725606","4,3,2,1","WHEAT CROP,WHEAT CROP,WHEAT CROP,WHEAT CROP","180,152.79009974439356,141.98723856598605,150.17586134340584","4,3,2,1","THISTLE WEED,THISTLE WEED,THISTLE WEED,THISTLE WEED","20,20,20,20","20,20,20,20","10,10,10,10","20,20,20,20","0,0,0,0","20,20,20,20","20,20,20,20","20,20,20,20","10,10,10,10","20,20,20,20","0,0,0,0","20,20,20,20","1,1,1,0","4442,961,1052,745","-45.63991211717667,-10.367260347145974,-8.698719168421299,61.65387834760796","-27.20990025560644,-10.802861178407522,8.188622777419795,36.583865910367805","0","0"
"559","86","text","0","127","1736105","0-0","","","","","","","","","","","","","","","","","","","","","","","","","","","","","","","","","","","","",""
"","","plant-game","0","128","1753681","0-0","","200","160","8","WHEAT CROP","Right","200","120","8","THISTLE WEED","experimental","51","1,2,3,4,5,6,7,8","120,154.75261840482784,165.0075924104951,177.65333900312748,219.67332200820704,238.99671253309677,261.42498199443907,269.1847346757256","8,7,6,5,4,3,2,1","THISTLE WEED,THISTLE WEED,THISTLE WEED,THISTLE WEED,THISTLE WEED,THISTLE WEED,THISTLE WEED,THISTLE WEED","160,171.49939849594165,180.16329942155429,164.0958591543557,177.02199068597332,227.04126510817795,226.9384156566779,255.27949404897063","8,7,6,5,4,3,2,1","WHEAT CROP,WHEAT CROP,WHEAT CROP,WHEAT CROP,WHEAT CROP,WHEAT CROP,WHEAT CROP,WHEAT CROP","0,0,0,0,0,0,0,0","20,20,20,20,20,20,20,20","10,10,10,10,10,10,10,10","20,20,20,20,20,20,20,20","20,20,20,20,20,20,20,20","20,20,20,20,20,20,20,20","0,0,0,0,0,0,0,0","20,20,20,20,20,20,20,20","10,10,10,10,10,10,10,10","20,20,20,20,20,20,20,20","20,20,20,20,20,20,20,20","20,20,20,20,20,20,20,20","1,1,1,1,1,0,0,0","4402,1204,710,2138,707,1513,569,919","34.75261840482785,10.254974005667272,12.645746592632374,42.01998300507955,19.323390524889728,22.428269461342303,7.759752681286532,-10.473876884276404","11.499398495941637,8.66390092561263,-16.067440267198577,12.92613153161762,50.019274422204624,-0.10284945150004983,28.341078392292737,1.4081707654466356","0","0"
"681","86","text","0","129","1754562","0-0","","","","","","","","","","","","","","","","","","","","","","","","","","","","","","","","","","","","",""
"","","plant-game","0","130","1770497","0-0","","200","190","1","CORN CROP","Right","200","160","8","THISTLE WEED","experimental","52","1,2,3,4,5,6,7,8","160,153.43879397348644,178.97271302510566,176.9087659591638,154.97642834007783,172.41284790802564,179.88623957933754,199.20749844755414","8,7,6,5,4,3,2,1","THISTLE WEED,THISTLE WEED,THISTLE WEED,THISTLE WEED,THISTLE WEED,THISTLE WEED,THISTLE WEED,THISTLE WEED","190,130,148.95927948365193,153.78165553761264,156.01511142142564,122.87274445145306,132.2606059338019,127.89088627077719","1,7,6,5,4,3,2,1","CORN CROP,WHEAT CROP,WHEAT CROP,WHEAT CROP,WHEAT CROP,WHEAT CROP,WHEAT CROP,WHEAT CROP","0,0,0,0,0,0,0,0","20,20,20,20,20,20,20,20","10,10,10,10,10,10,10,10","20,20,20,20,20,20,20,20","20,20,20,20,20,20,20,20","20,20,20,20,20,20,20,20","0,0,0,0,0,0,0,0","20,20,20,20,20,20,20,20","10,10,10,10,10,10,10,10","20,20,20,20,20,20,20,20","20,20,20,20,20,20,20,20","20,20,20,20,20,20,20,20","1,0,0,0,0,0,0,0","2741,2355,456,363,375,476,373,392","-6.561206026513574,25.533919051619222,-2.063947065941888,-21.932337619085946,17.436419567947794,7.473391671311907,19.3212588682166,13.24223763681976","33.799207517185856,18.959279483651923,4.822376053960709,2.2334558838130185,-33.14236696997259,9.387861482348846,-4.369719663024719,22.53755748872274","0","0"
"632","86","text","0","131","1771369","0-0","","","","","","","","","","","","","","","","","","","","","","","","","","","","","","","","","","","","",""
"","","plant-game","0","132","1790632","0-0","","200","180","4","CORN CROP","Left","200","160","1","NETTLE WEED","experimental","53","1,2,3,4","180,203.56691049491485,178.63238758331167,176.6506455351177","4,3,2,1","CORN CROP,CORN CROP,CORN CROP,CORN CROP","160,170,190.2812284195251,183.2684202338915","1,3,2,1","NETTLE WEED,THISTLE WEED,THISTLE WEED,THISTLE WEED","20,20,20,20","20,20,20,20","10,10,10,10","20,20,20,20","0,0,0,0","20,20,20,20","20,20,20,20","20,20,20,20","10,10,10,10","20,20,20,20","0,0,0,0","20,20,20,20","1,1,1,0","6197,2861,1062,1932","23.566910494914836,-24.93452291160317,-1.9817420481939776,31.229175500519574","30.221908536317756,20.28122841952509,-7.0128081856335855,65.19367418463648","0","0"
"557","86","text","0","133","1791409","0-0","","","","","","","","","","","","","","","","","","","","","","","","","","","","","","","","","","","","",""
"","","plant-game","0","134","1810529","0-0","","200","120","2","CORN CROP","Right","200","120","1","THISTLE WEED","experimental","54","1,2","120,190","1,1","THISTLE WEED,NETTLE WEED","120,130.48776489164942","2,1","CORN CROP,CORN CROP","0,0","20,20","10,10","20,20","20,20","20,20","0,0","20,20","10,10","20,20","20,20","20,20","0,1","8692,2246","22.085988854337096,7.711888114795615","10.487764891649434,56.91162115396935","0","0"
"992","86","text","0","135","1811723","0-0","","","","","","","","","","","","","","","","","","","","","","","","","","","","","","","","","","","","",""
"","","plant-game","0","136","1826710","0-0","","200","190","2","WHEAT CROP","Right","200","190","1","NETTLE WEED","experimental","55","1,2","190,190","1,1","NETTLE WEED,THISTLE WEED","190,160.35930078478253","2,1","WHEAT CROP,WHEAT CROP","0,0","20,20","10,10","20,20","20,20","20,20","0,0","20,20","10,10","20,20","20,20","20,20","0,1","5569,2667","-28.890088722130063,2.0642400070627396","-29.64069921521746,25.833317081129557","0","0"
"591","86","text","0","137","1827535","0-0","","","","","","","","","","","","","","","","","","","","","","","","","","","","","","","","","","","","",""
"","","plant-game","0","138","1841362","0-0","","200","190","4","CORN CROP","Left","200","160","4","NETTLE WEED","experimental","56","1,2,3,4","190,209.70510964482213,250.57412696075104,278.87602871874344","4,3,2,1","CORN CROP,CORN CROP,CORN CROP,CORN CROP","160,153.0029437052866,159.05345419221422,205.52477748327834","4,3,2,1","NETTLE WEED,NETTLE WEED,NETTLE WEED,NETTLE WEED","20,20,20,20","20,20,20,20","10,10,10,10","20,20,20,20","0,0,0,0","20,20,20,20","20,20,20,20","20,20,20,20","10,10,10,10","20,20,20,20","0,0,0,0","20,20,20,20","0,0,0,1","4796,1150,1300,1623","19.705109644822116,40.869017315928915,28.301901757992425,13.278543161582359","-6.997056294713392,6.050510486927607,46.471323291064124,-12.631115294005335","0","0"
"715","86","text","0","139","1842337","0-0","","","","","","","","","","","","","","","","","","","","","","","","","","","","","","","","","","","","",""
"","","plant-game","0","140","1859530","0-0","","200","190","2","CORN CROP","Right","200","180","4","THISTLE WEED","experimental","57","1,2,3,4","180,213.69619554823205,219.10694565093007,188.85888558211988","4,3,2,1","THISTLE WEED,THISTLE WEED,THISTLE WEED,THISTLE WEED","190,197.94970308094824,180,200.23476100842774","2,1,2,1","CORN CROP,CORN CROP,WHEAT CROP,WHEAT CROP","0,0,0,0","20,20,20,20","10,10,10,10","20,20,20,20","20,20,20,20","20,20,20,20","0,0,0,0","20,20,20,20","10,10,10,10","20,20,20,20","20,20,20,20","20,20,20,20","1,1,0,0","5207,791,1006,4038","33.696195548232055,5.410750102698005,-30.24806006881018,-13.715403255250951","7.949703080948243,40.147375788750765,20.23476100842773,28.032779516725434","0","0"
"570","86","text","0","141","1860260","0-0","","","","","","","","","","","","","","","","","","","","","","","","","","","","","","","","","","","","",""
"","","plant-game","0","142","1882159","0-0","","200","190","8","CORN CROP","Right","200","160","4","NETTLE WEED","experimental","58","1,2,3,4,5,6,7,8","160,194.41377492075395,171.0353189871172,169.88035485680626,160,216.78293693995792,229.14470039589207,230.62983539002676","4,3,2,1,4,3,2,1","NETTLE WEED,NETTLE WEED,NETTLE WEED,NETTLE WEED,THISTLE WEED,THISTLE WEED,THISTLE WEED,THISTLE WEED","190,165.33119905754836,166.7945614597894,159.6217179897812,186.02615353017066,214.04710196980918,192.42950358865292,202.362955344008","8,7,6,5,4,3,2,1","CORN CROP,CORN CROP,CORN CROP,CORN CROP,CORN CROP,CORN CROP,CORN CROP,CORN CROP","0,0,0,0,0,0,0,0","20,20,20,20,20,20,20,20","10,10,10,10,10,10,10,10","20,20,20,20,20,20,20,20","20,20,20,20,20,20,20,20","20,20,20,20,20,20,20,20","0,0,0,0,0,0,0,0","20,20,20,20,20,20,20,20","10,10,10,10,10,10,10,10","20,20,20,20,20,20,20,20","20,20,20,20,20,20,20,20","20,20,20,20,20,20,20,20","0,0,0,0,1,0,0,0","3380,922,398,2312,3602,1035,590,725","34.413774920753944,-23.378455933636747,-1.1549641303109262,-0.07336827984258232,56.782936939957914,12.361763455934147,1.485134994134686,-5.540354290346304","-24.668800942451632,1.4633624022410414,-7.172843470008207,26.40443554038948,28.020948439638524,-21.617598381156252,9.933451755355073,-21.052386098591526","0","0"
"598","86","text","0","143","1882957","0-0","","","","","","","","","","","","","","","","","","","","","","","","","","","","","","","","","","","","",""
"","","plant-game","0","144","1901734","0-0","","200","160","1","CORN CROP","Right","200","120","4","NETTLE WEED","experimental","59","1,2,3,4","120,147.61740826124415,117.41744199866409,129.98848153361024","4,3,2,1","NETTLE WEED,NETTLE WEED,NETTLE WEED,NETTLE WEED","160,170,164.29497067583932,162.75637195746103","1,3,2,1","CORN CROP,WHEAT CROP,WHEAT CROP,WHEAT CROP","0,0,0,0","20,20,20,20","10,10,10,10","20,20,20,20","20,20,20,20","20,20,20,20","0,0,0,0","20,20,20,20","10,10,10,10","20,20,20,20","20,20,20,20","20,20,20,20","1,0,0,1","2611,3845,475,1039","27.617408261244154,-30.199966262580066,12.571039534946138,70.7053859759769","24.831304131627263,-5.705029324160668,-1.5385987183783012,14.443079167025221","0","0"
"616","86","text","0","145","1902560","0-0","","","","","","","","","","","","","","","","","","","","","","","","","","","","","","","","","","","","",""
"","","plant-game","0","146","1916307","0-0","","200","160","1","CORN CROP","Left","200","180","2","THISTLE WEED","experimental","60","1,2","160,190","1,1","CORN CROP,WHEAT CROP","180,219.61225192406715","2,1","THISTLE WEED,THISTLE WEED","20,20","20,20","10,10","20,20","0,0","20,20","20,20","20,20","10,10","20,20","0,0","20,20","0,1","4247,2740","0.787869802846096,-6.352786941291555","39.612251924067166,-12.16492782046082","0","0"
"449","86","text","0","147","1916976","0-0","","","","","","","","","","","","","","","","","","","","","","","","","","","","","","","","","","","","",""
"","","plant-game","0","148","1932106","0-0","","200","120","8","CORN CROP","Right","200","120","8","THISTLE WEED","experimental","61","1,2,3,4,5,6,7,8","120,137.1502026370627,145.85944574703504,141.89657243514742,115.83328421275309,132.72751629728106,128.78760086033557,155.24123413581913","8,7,6,5,4,3,2,1","THISTLE WEED,THISTLE WEED,THISTLE WEED,THISTLE WEED,THISTLE WEED,THISTLE WEED,THISTLE WEED,THISTLE WEED","120,143.5561307658223,125.96490133697449,156.47778998085414,135.19296830536405,111.56070387897273,132.5764537502472,118.67561912283338","8,7,6,5,4,3,2,1","CORN CROP,CORN CROP,CORN CROP,CORN CROP,CORN CROP,CORN CROP,CORN CROP,CORN CROP","0,0,0,0,0,0,0,0","20,20,20,20,20,20,20,20","10,10,10,10,10,10,10,10","20,20,20,20,20,20,20,20","20,20,20,20,20,20,20,20","20,20,20,20,20,20,20,20","0,0,0,0,0,0,0,0","20,20,20,20,20,20,20,20","10,10,10,10,10,10,10,10","20,20,20,20,20,20,20,20","20,20,20,20,20,20,20,20","20,20,20,20,20,20,20,20","1,0,0,0,1,1,1,0","5739,1205,574,528,766,765,383,753","17.1502026370627,8.709243109972329,-3.96287331188761,-26.06328822239434,16.89423208452796,-3.939915436945487,26.45363327548357,-12.741397320436818","23.556130765822292,-17.591229428847814,30.512888643879663,-21.28482167549009,-23.632264426391316,21.01574987127445,-13.900834627413808,15.352857837844514","0","0"
"274","86","text","0","149","1932474","0-0","","","","","","","","","","","","","","","","","","","","","","","","","","","","","","","","","","","","",""
"","","plant-game","0","150","1938661","0-0","","200","160","1","CORN CROP","Right","200","190","1","THISTLE WEED","experimental","62","1","190","1","THISTLE WEED","160","1","CORN CROP","0","20","10","20","20","20","0","20","10","20","20","20","0","2047","0.29897250424851984","6.5318517590277505","0","0"
"542","86","text","0","151","1939392","0-0","","","","","","","","","","","","","","","","","","","","","","","","","","","","","","","","","","","","",""
"","","plant-game","0","152","1953451","0-0","","200","180","1","WHEAT CROP","Right","200","120","4","NETTLE WEED","experimental","63","1,2,3,4","120,147.44695581517976,189.2240954398636,213.0244872403405","4,3,2,1","NETTLE WEED,NETTLE WEED,NETTLE WEED,NETTLE WEED","180,170,165.38553303613594,205.83633049154676","1,3,2,1","WHEAT CROP,CORN CROP,CORN CROP,CORN CROP","0,0,0,0","20,20,20,20","10,10,10,10","20,20,20,20","20,20,20,20","20,20,20,20","0,0,0,0","20,20,20,20","10,10,10,10","20,20,20,20","20,20,20,20","20,20,20,20","1,1,1,1","3484,2082,2308,642","27.44695581517975,41.77713962468383,23.800391800476913,38.60132878265136","17.883565166769245,-4.61446696386405,40.450797455410815,32.89816201510736","0","0"
"1528","86","text","0","153","1955166","0-0","","","","","","","","","","","","","","","","","","","","","","","","","","","","","","","","","","","","",""
"","","plant-game","0","154","1978249","0-0","","200","120","8","WHEAT CROP","Left","200","120","4","THISTLE WEED","experimental","64","1,2,3,4,5,6,7,8","120,122.19951215660507,116.84948484922906,106.06653064776991,84.0278520671249,101.16946537097185,120.73744166791852,170.65839981127004","8,7,6,5,4,3,2,1","WHEAT CROP,WHEAT CROP,WHEAT CROP,WHEAT CROP,WHEAT CROP,WHEAT CROP,WHEAT CROP,WHEAT CROP","120,150.84122544511737,151.01831271463988,152.12021601480606,160,191.88004388455275,189.32737903149973,214.38389062364382","4,3,2,1,4,3,2,1","THISTLE WEED,THISTLE WEED,THISTLE WEED,THISTLE WEED,NETTLE WEED,NETTLE WEED,NETTLE WEED,NETTLE WEED","20,20,20,20,20,20,20,20","20,20,20,20,20,20,20,20","10,10,10,10,10,10,10,10","20,20,20,20,20,20,20,20","0,0,0,0,0,0,0,0","20,20,20,20,20,20,20,20","20,20,20,20,20,20,20,20","20,20,20,20,20,20,20,20","10,10,10,10,10,10,10,10","20,20,20,20,20,20,20,20","0,0,0,0,0,0,0,0","20,20,20,20,20,20,20,20","1,1,1,1,0,0,0,0","5565,1167,1051,914,2463,910,1157,1004","2.1995121566050626,-5.350027307376013,-10.78295420145915,-22.038678580645012,17.141613303846952,19.567976296946664,49.92095814335151,13.399667883314269","30.841225445117377,0.17708726952250856,1.1019033001661906,-15.153741192946537,31.880043884552755,-2.552664853053031,25.056511592144076,20.242420700699757","0","0"
"797","86","text","0","155","1979226","0-0","","","","","","","","","","","","","","","","","","","","","","","","","","","","","","","","","","","","",""
"","","plant-game","0","156","2004474","0-0","","200","160","8","WHEAT CROP","Left","200","160","1","NETTLE WEED","experimental","65","1,2,3,4,5,6,7,8","160,186.7143028986354,179.06865273149631,166.97996267717508,132.48254989733044,149.28915704864477,164.38478492319186,183.2137633224253","8,7,6,5,4,3,2,1","WHEAT CROP,WHEAT CROP,WHEAT CROP,WHEAT CROP,WHEAT CROP,WHEAT CROP,WHEAT CROP,WHEAT CROP","160,130,111.9131968378386,104.35536197369714,81.03281425276799,96.01217407320055,117.26039663220385,185.231831647969","1,7,6,5,4,3,2,1","NETTLE WEED,THISTLE WEED,THISTLE WEED,THISTLE WEED,THISTLE WEED,THISTLE WEED,THISTLE WEED,THISTLE WEED","20,20,20,20,20,20,20,20","20,20,20,20,20,20,20,20","10,10,10,10,10,10,10,10","20,20,20,20,20,20,20,20","0,0,0,0,0,0,0,0","20,20,20,20,20,20,20,20","20,20,20,20,20,20,20,20","20,20,20,20,20,20,20,20","10,10,10,10,10,10,10,10","20,20,20,20,20,20,20,20","0,0,0,0,0,0,0,0","20,20,20,20,20,20,20,20","1,1,0,1,0,0,0,1","6647,3585,957,2943,611,957,502,761","26.71430289863539,-7.6456501671390855,-12.088690054321233,-34.497412779844645,16.806607151314314,15.095627874547095,18.828978399233456,8.870022545346528","-32.41436676746445,-18.086803162161395,-7.557834864141455,-23.32254772092916,14.979359820432567,21.248222559003292,67.97143501576514,14.690120306708987","0","0"
"514","86","text","0","157","2005191","0-0","","","","","","","","","","","","","","","","","","","","","","","","","","","","","","","","","","","","",""
"","","plant-game","0","158","2025129","0-0","","200","160","4","WHEAT CROP","Left","200","180","8","NETTLE WEED","experimental","66","1,2,3,4,5,6,7,8","160,184.36453904620748,205.09889022066855,224.17677157851998,160,167.1060142780594,195.2749579408332,195.2249979335909","4,3,2,1,4,3,2,1","WHEAT CROP,WHEAT CROP,WHEAT CROP,WHEAT CROP,CORN CROP,CORN CROP,CORN CROP,CORN CROP","180,169.19125039936318,200.43105826120166,187.4089147514815,215.71698443291433,245.25300087484484,223.8037272898208,234.61351108066958","8,7,6,5,4,3,2,1","NETTLE WEED,NETTLE WEED,NETTLE WEED,NETTLE WEED,NETTLE WEED,NETTLE WEED,NETTLE WEED,NETTLE WEED","20,20,20,20,20,20,20,20","20,20,20,20,20,20,20,20","10,10,10,10,10,10,10,10","20,20,20,20,20,20,20,20","0,0,0,0,0,0,0,0","20,20,20,20,20,20,20,20","20,20,20,20,20,20,20,20","20,20,20,20,20,20,20,20","10,10,10,10,10,10,10,10","20,20,20,20,20,20,20,20","0,0,0,0,0,0,0,0","20,20,20,20,20,20,20,20","1,1,1,1,0,0,0,0","2454,888,3481,1453,2574,508,163,351","24.36453904620747,20.73435117446108,19.07788135785142,-15.460888478380369,7.106014278059414,28.168943662773774,-0.049960007242283666,10.622007544434005","-10.80874960063683,31.239807861838468,-13.022143509720166,28.308069681432826,29.536016441930503,-21.449273585024045,10.809783790848764,38.74081696048895","0","0"
"695","86","text","0","159","2026041","0-0","","","","","","","","","","","","","","","","","","","","","","","","","","","","","","","","","","","","",""
"","","plant-game","0","160","2036447","0-0","","200","190","1","CORN CROP","Left","200","160","1","NETTLE WEED","experimental","67","1","190","1","CORN CROP","160","1","NETTLE WEED","20","20","10","20","0","20","20","20","10","20","0","20","0","6389","47.22554767856657","6.923991677143345","0","0"
"546","86","text","0","161","2037190","0-0","","","","","","","","","","","","","","","","","","","","","","","","","","","","","","","","","","","","",""
"","","plant-game","0","162","2047801","0-0","","200","180","2","WHEAT CROP","Left","200","120","4","NETTLE WEED","experimental","68","1,2,3,4","180,192.08364817319944,180,217.820304335053","2,1,2,1","WHEAT CROP,WHEAT CROP,CORN CROP,CORN CROP","120,157.0510664976792,167.8413698091728,189.97504272976974","4,3,2,1","NETTLE WEED,NETTLE WEED,NETTLE WEED,NETTLE WEED","20,20,20,20","20,20,20,20","10,10,10,10","20,20,20,20","0,0,0,0","20,20,20,20","20,20,20,20","20,20,20,20","10,10,10,10","20,20,20,20","0,0,0,0","20,20,20,20","0,0,0,1","1624,629,1214,1640","12.083648173199444,10.342466296765267,37.82030433505301,-23.407585536309327","37.05106649767917,10.790303311493611,22.133672920596947,8.360684532615371","0","0"
"505","86","text","0","163","2048476","0-0","","","","","","","","","","","","","","","","","","","","","","","","","","","","","","","","","","","","",""
"","","plant-game","0","164","2070011","0-0","","200","180","8","CORN CROP","Left","200","160","1","THISTLE WEED","experimental","69","1,2,3,4,5,6,7,8","180,177.3898791880682,170.02795398795408,194.59888132948637,216.83623216381582,206.72007939643436,204.4881246725319,222.55241991119755","8,7,6,5,4,3,2,1","CORN CROP,CORN CROP,CORN CROP,CORN CROP,CORN CROP,CORN CROP,CORN CROP,CORN CROP","160,130,142.00798171042698,183.00678030965346,174.32125454583178,150.29237559662135,163.230832523392,160.02861487498444","1,7,6,5,4,3,2,1","THISTLE WEED,NETTLE WEED,NETTLE WEED,NETTLE WEED,NETTLE WEED,NETTLE WEED,NETTLE WEED,NETTLE WEED","20,20,20,20,20,20,20,20","20,20,20,20,20,20,20,20","10,10,10,10,10,10,10,10","20,20,20,20,20,20,20,20","0,0,0,0,0,0,0,0","20,20,20,20,20,20,20,20","20,20,20,20,20,20,20,20","20,20,20,20,20,20,20,20","10,10,10,10,10,10,10,10","20,20,20,20,20,20,20,20","0,0,0,0,0,0,0,0","20,20,20,20,20,20,20,20","1,1,0,1,1,0,1,1","3083,2081,1164,1665,702,3269,625,1797","-2.610120811931796,-7.361925200114118,24.57092734153229,22.237350834329458,-10.116152767381479,-2.2319547239024544,18.064295238665633,-2.5264090471489005","37.63702425203419,12.00798171042696,40.9987985992265,-8.685525763821685,-24.02887894921041,12.938456926770634,-3.202217648407555,-30.00933963259943","0","0"
"570","86","text","0","165","2070731","0-0","","","","","","","","","","","","","","","","","","","","","","","","","","","","","","","","","","","","",""
"","","plant-game","0","166","2080990","0-0","","200","160","1","CORN CROP","Left","200","120","1","NETTLE WEED","experimental","70","1","160","1","CORN CROP","120","1","NETTLE WEED","20","20","10","20","0","20","20","20","10","20","0","20","0","6298","14.887453509910433","-13.7653064213007","0","0"
"741","86","text","0","167","2081965","0-0","","","","","","","","","","","","","","","","","","","","","","","","","","","","","","","","","","","","",""
"","","plant-game","0","168","2097769","0-0","","200","120","4","CORN CROP","Right","200","120","1","THISTLE WEED","experimental","71","1,2,3,4","120,170,183.62114531283387,188.3090907704413","1,3,2,1","THISTLE WEED,NETTLE WEED,NETTLE WEED,NETTLE WEED","120,137.2103896257132,165.67679361606196,131.40994540572393","4,3,2,1","CORN CROP,CORN CROP,CORN CROP,CORN CROP","0,0,0,0","20,20,20,20","10,10,10,10","20,20,20,20","20,20,20,20","20,20,20,20","0,0,0,0","20,20,20,20","10,10,10,10","20,20,20,20","20,20,20,20","20,20,20,20","1,0,0,0","4981,1613,1234,1419","2.579937226915785,13.621145312833864,4.687945457607423,-29.376803842885852","17.210389625713184,28.466403990348752,-34.26684821033802,2.634467119697854","0","0"
"639","86","text","0","169","2098579","0-0","","","","","","","","","","","","","","","","","","","","","","","","","","","","","","","","","","","","",""
"","","plant-game","0","170","2114883","0-0","","200","120","8","CORN CROP","Left","200","180","8","NETTLE WEED","experimental","72","1,2,3,4,5,6,7,8","120,103.186522276371,107.59975963814342,85.0918941908925,72.99754757936039,74.44246795736674,96.11500870710574,90.71820621527662","8,7,6,5,4,3,2,1","CORN CROP,CORN CROP,CORN CROP,CORN CROP,CORN CROP,CORN CROP,CORN CROP,CORN CROP","180,154.53627748248644,153.87219623115993,128.4442234003581,114.64147621266507,98.9888143747535,141.478492289628,164.2668921166951","8,7,6,5,4,3,2,1","NETTLE WEED,NETTLE WEED,NETTLE WEED,NETTLE WEED,NETTLE WEED,NETTLE WEED,NETTLE WEED,NETTLE WEED","20,20,20,20,20,20,20,20","20,20,20,20,20,20,20,20","10,10,10,10,10,10,10,10","20,20,20,20,20,20,20,20","0,0,0,0,0,0,0,0","20,20,20,20,20,20,20,20","20,20,20,20,20,20,20,20","20,20,20,20,20,20,20,20","10,10,10,10,10,10,10,10","20,20,20,20,20,20,20,20","0,0,0,0,0,0,0,0","20,20,20,20,20,20,20,20","1,1,1,1,1,1,0,1","5260,1165,990,546,765,1071,1103,862","-16.813477723629003,4.413237361772434,-22.50786544725093,-12.09434661153212,1.444920378006359,21.672540749739007,-5.396802491829121,7.036874604016975","-25.46372251751357,-0.6640812513265015,-25.427972830801828,-13.80274718769304,-15.652661837911573,42.489677914874505,22.788399827067092,-21.959810351615307","0","0"
"543","86","text","0","171","2115645","0-0","","","","","","","","","","","","","","","","","","","","","","","","","","","","","","","","","","","","",""
"","","plant-game","0","172","2131864","0-0","","200","160","4","WHEAT CROP","Right","200","120","1","THISTLE WEED","experimental","73","1,2,3,4","120,170,193.94389542659496,205.317013083397","1,3,2,1","THISTLE WEED,NETTLE WEED,NETTLE WEED,NETTLE WEED","160,162.68962973912784,152.05838088645785,159.08981205462024","4,3,2,1","WHEAT CROP,WHEAT CROP,WHEAT CROP,WHEAT CROP","0,0,0,0","20,20,20,20","10,10,10,10","20,20,20,20","20,20,20,20","20,20,20,20","0,0,0,0","20,20,20,20","10,10,10,10","20,20,20,20","20,20,20,20","20,20,20,20","1,1,0,0","5617,2218,1912,530","27.909340760584804,23.94389542659495,11.37311765680204,-7.726159285972887","2.6896297391278416,-10.631248852669994,7.031431168162394,-24.43881025869574","0","0"
"521","86","text","0","173","2132573","0-0","","","","","","","","","","","","","","","","","","","","","","","","","","","","","","","","","","","","",""
"","","plant-game","0","174","2146241","0-0","","200","180","8","WHEAT CROP","Right","200","180","8","THISTLE WEED","experimental","74","1,2,3,4,5,6,7,8","180,187.27019958474511,178.3219289206066,168.10209777647137,198.52460475120387,227.85036857696832,216.66771767815084,211.5002250009476","8,7,6,5,4,3,2,1","THISTLE WEED,THISTLE WEED,THISTLE WEED,THISTLE WEED,THISTLE WEED,THISTLE WEED,THISTLE WEED,THISTLE WEED","180,179.0332205565185,166.11299312814128,158.80024228591304,176.18623515764594,177.68181985322508,175.13784815036928,205.62897866273076","8,7,6,5,4,3,2,1","WHEAT CROP,WHEAT CROP,WHEAT CROP,WHEAT CROP,WHEAT CROP,WHEAT CROP,WHEAT CROP,WHEAT CROP","0,0,0,0,0,0,0,0","20,20,20,20,20,20,20,20","10,10,10,10,10,10,10,10","20,20,20,20,20,20,20,20","20,20,20,20,20,20,20,20","20,20,20,20,20,20,20,20","0,0,0,0,0,0,0,0","20,20,20,20,20,20,20,20","10,10,10,10,10,10,10,10","20,20,20,20,20,20,20,20","20,20,20,20,20,20,20,20","20,20,20,20,20,20,20,20","0,0,0,0,0,0,1,1","3604,426,390,458,793,546,619,1402","7.270199584745125,-8.9482706641385,-10.219831144135243,30.422506974732496,29.325763825764444,-11.182650898817474,-5.1674926772032315,-3.743320480208091","-0.9667794434815113,-12.920227428377212,-7.312750842228251,17.385992871732906,1.495584695579126,-2.5439717028557944,30.49113051236148,40.961968687487925","0","0"
"628","86","text","0","175","2147069","0-0","","","","","","","","","","","","","","","","","","","","","","","","","","","","","","","","","","","","",""
"","","plant-game","0","176","2169927","0-0","","200","180","1","CORN CROP","Left","200","190","8","THISTLE WEED","experimental","75","1,2,3,4,5,6,7,8","180,130,84.91897073225712,93.4359473437954,92.08050645378815,95.40506920927534,68.91373280610661,93.51671455946058","1,7,6,5,4,3,2,1","CORN CROP,WHEAT CROP,WHEAT CROP,WHEAT CROP,WHEAT CROP,WHEAT CROP,WHEAT CROP,WHEAT CROP","190,238.64733687324028,239.24824852086806,252.88670957228624,225.00382506888323,227.12456332631598,251.33196296856187,257.5667562220538","8,7,6,5,4,3,2,1","THISTLE WEED,THISTLE WEED,THISTLE WEED,THISTLE WEED,THISTLE WEED,THISTLE WEED,THISTLE WEED,THISTLE WEED","20,20,20,20,20,20,20,20","20,20,20,20,20,20,20,20","10,10,10,10,10,10,10,10","20,20,20,20,20,20,20,20","0,0,0,0,0,0,0,0","20,20,20,20,20,20,20,20","20,20,20,20,20,20,20,20","20,20,20,20,20,20,20,20","10,10,10,10,10,10,10,10","20,20,20,20,20,20,20,20","0,0,0,0,0,0,0,0","20,20,20,20,20,20,20,20","0,1,1,1,1,1,1,1","4046,6491,1089,611,1593,444,546,335","23.020528238214727,-45.08102926774288,8.51697661153828,-1.3554408900072525,3.3245627554871913,-26.49133640316873,24.60298175335398,-30.729813435628827","48.64733687324028,0.6009116476277911,13.638461051418178,-27.882884503403,2.120738257432741,24.20739964224588,6.234793253491931,-37.03575090320437","0","0"
"779","86","text","0","177","2170894","0-0","","","","","","","","","","","","","","","","","","","","","","","","","","","","","","","","","","","","",""
"","","plant-game","0","178","2190003","0-0","","200","190","8","CORN CROP","Left","200","120","2","THISTLE WEED","experimental","76","1,2,3,4,5,6,7,8","190,215.78165139533357,255.58658916662137,257.17331661093056,260.9249119680579,246.70675345295487,282.054036040004,299.3730136997469","8,7,6,5,4,3,2,1","CORN CROP,CORN CROP,CORN CROP,CORN CROP,CORN CROP,CORN CROP,CORN CROP,CORN CROP","120,126.25939880702487,140,148.70781859759097,181.288318013084,163.1911768935817,145.42355510455823,145.80680071544546","2,1,6,5,4,3,2,1","THISTLE WEED,THISTLE WEED,NETTLE WEED,NETTLE WEED,NETTLE WEED,NETTLE WEED,NETTLE WEED,NETTLE WEED","20,20,20,20,20,20,20,20","20,20,20,20,20,20,20,20","10,10,10,10,10,10,10,10","20,20,20,20,20,20,20,20","0,0,0,0,0,0,0,0","20,20,20,20,20,20,20,20","20,20,20,20,20,20,20,20","20,20,20,20,20,20,20,20","10,10,10,10,10,10,10,10","20,20,20,20,20,20,20,20","0,0,0,0,0,0,0,0","20,20,20,20,20,20,20,20","0,0,1,1,1,1,1,1","4586,1176,1811,866,838,677,672,509","25.781651395333576,39.80493777128781,1.5867274443091837,3.751595357127349,-14.218158515103063,35.34728258704911,17.318977659742846,19.857117198855864","6.25939880702486,37.136423274603715,8.707818597590958,32.580499415493016,-18.097141119502297,-17.76762178902349,0.38324561088723236,-13.82538781407796","0","0"
"630","86","text","0","179","2190783","0-0","","","","","","","","","","","","","","","","","","","","","","","","","","","","","","","","","","","","",""
"","","plant-game","0","180","2214654","0-0","","200","180","8","WHEAT CROP","Right","200","180","1","NETTLE WEED","experimental","77","1,2,3,4,5,6,7,8","180,130,136.2855779757783,160.35209662847964,197.50441018221827,204.06314494911584,190.3420686883716,208.22293841303213","1,7,6,5,4,3,2,1","NETTLE WEED,THISTLE WEED,THISTLE WEED,THISTLE WEED,THISTLE WEED,THISTLE WEED,THISTLE WEED,THISTLE WEED","180,166.09192036203314,209.36089902953967,272.2993074699061,293.04485173781796,294.1069924454871,290.68110980948904,278.09234601587525","8,7,6,5,4,3,2,1","WHEAT CROP,WHEAT CROP,WHEAT CROP,WHEAT CROP,WHEAT CROP,WHEAT CROP,WHEAT CROP,WHEAT CROP","0,0,0,0,0,0,0,0","20,20,20,20,20,20,20,20","10,10,10,10,10,10,10,10","20,20,20,20,20,20,20,20","20,20,20,20,20,20,20,20","20,20,20,20,20,20,20,20","0,0,0,0,0,0,0,0","20,20,20,20,20,20,20,20","10,10,10,10,10,10,10,10","20,20,20,20,20,20,20,20","20,20,20,20,20,20,20,20","20,20,20,20,20,20,20,20","0,1,1,1,0,0,0,0","8978,1677,1405,674,964,458,660,506","10.757476997724202,6.285577975778301,24.066518652701344,37.15231355373863,6.558734766897563,-13.721076260744232,17.880869724660535,-18.823372207121082","-13.908079637966878,43.26897866750653,62.938408440366445,20.745544267911853,1.0621407076691531,-3.4258826359980348,-12.588763793613808,-6.438051221706161","0","0"
"3895","86","text","0","181","2218729","0-0","","","","","","","","","","","","","","","","","","","","","","","","","","","","","","","","","","","","",""
"","","plant-game","0","182","2237285","0-0","","200","190","8","WHEAT CROP","Left","200","180","8","NETTLE WEED","experimental","78","1,2,3,4,5,6,7,8","190,159.71577161605714,153.48859236096624,158.68423968872793,196.69733589591226,222.08068335001755,231.8301188753953,205.23519458670214","8,7,6,5,4,3,2,1","WHEAT CROP,WHEAT CROP,WHEAT CROP,WHEAT CROP,WHEAT CROP,WHEAT CROP,WHEAT CROP,WHEAT CROP","180,217.20069555400664,190.02413626915248,239.73001537174017,214.2238533126478,248.73727625712016,234.56619575279433,193.72674680746394","8,7,6,5,4,3,2,1","NETTLE WEED,NETTLE WEED,NETTLE WEED,NETTLE WEED,NETTLE WEED,NETTLE WEED,NETTLE WEED,NETTLE WEED","20,20,20,20,20,20,20,20","20,20,20,20,20,20,20,20","10,10,10,10,10,10,10,10","20,20,20,20,20,20,20,20","0,0,0,0,0,0,0,0","20,20,20,20,20,20,20,20","20,20,20,20,20,20,20,20","20,20,20,20,20,20,20,20","10,10,10,10,10,10,10,10","20,20,20,20,20,20,20,20","0,0,0,0,0,0,0,0","20,20,20,20,20,20,20,20","1,1,0,1,1,1,1,1","6530,1787,912,686,434,760,374,2271","-30.284228383942867,-6.22717925509089,5.195647327761693,38.01309620718434,25.383347454105298,9.749435525377738,-26.59492428869317,-12.571409663750554","37.20069555400663,-27.17655928485417,49.705879102587694,-25.506162059092354,34.51342294447235,-14.171080504325822,-40.839448945330375,2.7642166525707887","0","0"
"542","86","text","0","183","2237987","0-0","","","","","","","","","","","","","","","","","","","","","","","","","","","","","","","","","","","","",""
"","","plant-game","0","184","2259939","0-0","","200","190","8","WHEAT CROP","Right","200","160","1","THISTLE WEED","experimental","79","1,2,3,4,5,6,7,8","160,130,166.8064215096653,162.25314683729556,195.32257451107773,196.77687175100752,196.40386287026638,188.41666559619046","1,7,6,5,4,3,2,1","THISTLE WEED,NETTLE WEED,NETTLE WEED,NETTLE WEED,NETTLE WEED,NETTLE WEED,NETTLE WEED,NETTLE WEED","190,220.34897652950906,210.523359790977,255.34411270368915,264.6190807883312,261.7991113161219,279.01325679305336,300.4390655120852","8,7,6,5,4,3,2,1","WHEAT CROP,WHEAT CROP,WHEAT CROP,WHEAT CROP,WHEAT CROP,WHEAT CROP,WHEAT CROP,WHEAT CROP","0,0,0,0,0,0,0,0","20,20,20,20,20,20,20,20","10,10,10,10,10,10,10,10","20,20,20,20,20,20,20,20","20,20,20,20,20,20,20,20","20,20,20,20,20,20,20,20","0,0,0,0,0,0,0,0","20,20,20,20,20,20,20,20","10,10,10,10,10,10,10,10","20,20,20,20,20,20,20,20","20,20,20,20,20,20,20,20","20,20,20,20,20,20,20,20","1,1,1,1,0,0,0,0","6448,2488,2850,634,1193,919,648,456","1.9425765224198486,36.80642150966531,-4.553274672369767,33.06942767378219,1.4542972399297902,-0.3730088807411518,-7.98719727407592,-2.0572356148349824","30.348976529509045,-9.825616738532062,44.82075291271216,9.274968084642012,-2.8199694722092623,17.214145476931453,21.425808719031885,18.15183955195869","0","0"
"555","86","text","0","185","2260644","0-0","","","","","","","","","","","","","","","","","","","","","","","","","","","","","","","","","","","","",""
"","","plant-game","0","186","2278718","0-0","","200","120","1","CORN CROP","Left","200","160","4","NETTLE WEED","experimental","80","1,2,3,4","120,170,163.48723427500562,170.8185875365699","1,3,2,1","CORN CROP,WHEAT CROP,WHEAT CROP,WHEAT CROP","160,183.43842450997192,161.34327143330984,183.39488847212667","4,3,2,1","NETTLE WEED,NETTLE WEED,NETTLE WEED,NETTLE WEED","20,20,20,20","20,20,20,20","10,10,10,10","20,20,20,20","0,0,0,0","20,20,20,20","20,20,20,20","20,20,20,20","10,10,10,10","20,20,20,20","0,0,0,0","20,20,20,20","1,1,1,0","6798,2049,505,1519","-30.89444971670783,-6.512765724994395,7.331353261564298,25.378214872996793","23.43842450997193,-22.095153076662093,22.05161703881684,14.239266868340795","0","0"
"863","86","text","0","187","2279784","0-0","","","","","","","","","","","","","","","","","","","","","","","","","","","","","","","","","","","","",""
"","","plant-game","0","188","2289476","0-0","","200","190","2","CORN CROP","Right","200","180","2","THISTLE WEED","experimental","81","1,2","180,177.28035797799538","2,1","THISTLE WEED,THISTLE WEED","190,194.69195957219392","2,1","CORN CROP,CORN CROP","0,0","20,20","10,10","20,20","20,20","20,20","0,0","20,20","10,10","20,20","20,20","20,20","0,0","5514,794","-2.719642022004634,-6.3229908718484","4.691959572193916,-5.817831056716049","0","0"
"557","86","text","0","189","2290220","0-0","","","","","","","","","","","","","","","","","","","","","","","","","","","","","","","","","","","","",""
"","","plant-game","0","190","2298608","0-0","","200","160","1","WHEAT CROP","Left","200","180","1","THISTLE WEED","experimental","82","1","160","1","WHEAT CROP","180","1","THISTLE WEED","20","20","10","20","0","20","20","20","10","20","0","20","0","4975","-10.464642749286746","38.12334794643978","0","0"
"540","86","text","0","191","2299348","0-0","","","","","","","","","","","","","","","","","","","","","","","","","","","","","","","","","","","","",""
"","","plant-game","0","192","2316745","0-0","","200","120","4","CORN CROP","Left","200","180","8","NETTLE WEED","experimental","83","1,2,3,4,5,6,7,8","120,113.28753011500487,105.87410796522994,137.25334243211333,160,135.73887428515877,140.00579178593074,145.82258157920253","4,3,2,1,4,3,2,1","CORN CROP,CORN CROP,CORN CROP,CORN CROP,WHEAT CROP,WHEAT CROP,WHEAT CROP,WHEAT CROP","180,164.2424145627267,145.66027810432647,167.53239460063887,179.79542319558598,168.04746576744904,183.8103479622657,144.36871948657068","8,7,6,5,4,3,2,1","NETTLE WEED,NETTLE WEED,NETTLE WEED,NETTLE WEED,NETTLE WEED,NETTLE WEED,NETTLE WEED,NETTLE WEED","20,20,20,20,20,20,20,20","20,20,20,20,20,20,20,20","10,10,10,10,10,10,10,10","20,20,20,20,20,20,20,20","0,0,0,0,0,0,0,0","20,20,20,20,20,20,20,20","20,20,20,20,20,20,20,20","20,20,20,20,20,20,20,20","10,10,10,10,10,10,10,10","20,20,20,20,20,20,20,20","0,0,0,0,0,0,0,0","20,20,20,20,20,20,20,20","1,1,1,0,1,1,1,0","2809,349,328,1233,1379,1476,675,813","-6.712469884995126,-7.413422149774935,31.379234466883396,64.2405407417568,-24.261125714841224,4.266917500771954,5.816789793271799,48.316137207531995","-15.757585437273278,-18.58213645840025,21.8721164963124,12.263028594947103,-11.747957428136932,15.762882194816665,-39.441628475695026,-12.79329164257539","0","0"
"682","86","text","0","193","2317578","0-0","","","","","","","","","","","","","","","","","","","","","","","","","","","","","","","","","","","","",""
"","","plant-game","0","194","2335691","0-0","","200","120","1","WHEAT CROP","Left","200","120","8","THISTLE WEED","experimental","84","1,2,3,4,5,6,7,8","120,130,102.15619363178959,111.6803072120555,128.1429824865643,158.8429667163407,151.6619518355836,171.06761704448508","1,7,6,5,4,3,2,1","WHEAT CROP,CORN CROP,CORN CROP,CORN CROP,CORN CROP,CORN CROP,CORN CROP,CORN CROP","120,172.03111235488805,128.65894106671746,110.00330574106928,104.9400716871871,90.03009704691647,68.04877573569883,114.72244632604855","8,7,6,5,4,3,2,1","THISTLE WEED,THISTLE WEED,THISTLE WEED,THISTLE WEED,THISTLE WEED,THISTLE WEED,THISTLE WEED,THISTLE WEED","20,20,20,20,20,20,20,20","20,20,20,20,20,20,20,20","10,10,10,10,10,10,10,10","20,20,20,20,20,20,20,20","0,0,0,0,0,0,0,0","20,20,20,20,20,20,20,20","20,20,20,20,20,20,20,20","20,20,20,20,20,20,20,20","10,10,10,10,10,10,10,10","20,20,20,20,20,20,20,20","0,0,0,0,0,0,0,0","20,20,20,20,20,20,20,20","0,1,1,1,1,1,0,0","2838,3921,206,354,486,394,2051,394","35.270615972651996,-27.843806368210405,9.5241135802659,16.462675274508804,30.699984229776376,-7.181014880757088,19.405665208901453,55.5864454901218","52.03111235488806,-43.372171288170584,-18.655635325648177,-5.06323405388219,-14.909974640270631,-21.981321311217638,46.67367059034973,42.710738243308555","0","0"
"701","86","text","0","195","2336543","0-0","","","","","","","","","","","","","","","","","","","","","","","","","","","","","","","","","","","","",""
