"rt","key_press","trial_type","trial_index","trial_index_global","time_elapsed","internal_chunk_id","responses","experimental_goal_height","experimental_start_height","experimental_weeks_total","experimental_crop_type","experimental_crop_side","fixed_goal_height","fixed_start_height","fixed_weeks_total","fixed_crop_type","trial_kind","trial_number","stage","left_current_height","left_weeks_remaining","left_crop_type","right_current_height","right_weeks_remaining","right_crop_type","mean_left_growth_given_left","sd_left_growth_given_left","mean_left_growth_given_middle","sd_left_growth_given_middle","mean_left_growth_given_right","sd_left_growth_given_right","mean_right_growth_given_left","sd_right_growth_given_left","mean_right_growth_given_middle","sd_right_growth_given_middle","mean_right_growth_given_right","sd_right_growth_given_right","response","response_time","left_growth","right_growth","other_key_pressed","mouse_clicked"
"2624899","77","text","0","0","2624965","0-0","","","","","","","","","","","","","","","","","","","","","","","","","","","","","","","","","","","","",""
"7741","","survey-text","0","1","2633730","0-0","{""Q0"":""19""}","","","","","","","","","","","","","","","","","","","","","","","","","","","","","","","","","","","",""
"3252","86","text","0","2","3330","0-0","","","","","","","","","","","","","","","","","","","","","","","","","","","","","","","","","","","","",""
"","","plant-game","0","3","80307","0-0","","200","120","8","WHEAT CROP","Left","200","120","8","NETTLE WEED","practice","1","1,2,3,4,5,6,7,8","120,161.14789766287538,147.7929657588049,167.9372945960181,199.7003464277262,195.3793368093685,212.06329329053446,179.58902880721828","8,7,6,5,4,3,2,1","WHEAT CROP,WHEAT CROP,WHEAT CROP,WHEAT CROP,WHEAT CROP,WHEAT CROP,WHEAT CROP,WHEAT CROP","120,156.84034170834752,168.4967869021554,147.34733733256883,152.49287073730346,181.34457550624293,148.75166250111516,164.54854625656424","8,7,6,5,4,3,2,1","NETTLE WEED,NETTLE WEED,NETTLE WEED,NETTLE WEED,NETTLE WEED,NETTLE WEED,NETTLE WEED,NETTLE WEED","20,20,20,20,20,20,20,20","20,20,20,20,20,20,20,20","10,10,10,10,10,10,10,10","20,20,20,20,20,20,20,20","0,0,0,0,0,0,0,0","20,20,20,20,20,20,20,20","20,20,20,20,20,20,20,20","20,20,20,20,20,20,20,20","10,10,10,10,10,10,10,10","20,20,20,20,20,20,20,20","0,0,0,0,0,0,0,0","20,20,20,20,20,20,20,20","1,1,1,0,0,1,1,0","7905,8172,5127,5079,3766,3498,4504,3595","41.147897662875394,-13.35493190407046,20.144328837213173,31.76305183170812,-4.321009618357682,16.68395648116594,-32.474264483316176,17.591280220395006","36.84034170834754,11.65644519380788,-21.149449569586587,5.145533404734637,28.851704768939467,-32.59291300512777,15.796883755449066,39.60164443828711","0","0"
"1268","86","text","0","4","81615","0-0","","","","","","","","","","","","","","","","","","","","","","","","","","","","","","","","","","","","",""
"","","plant-game","0","5","120051","0-0","","200","160","4","CORN CROP","Right","200","160","4","THISTLE WEED","practice","2","1,2,3,4","160,144.28328094557094,182.58938487762055,171.83026790238407","4,3,2,1","THISTLE WEED,THISTLE WEED,THISTLE WEED,THISTLE WEED","160,146.17261727392545,173.62541783817173,187.6279217193928","4,3,2,1","CORN CROP,CORN CROP,CORN CROP,CORN CROP","0,0,0,0","20,20,20,20","10,10,10,10","20,20,20,20","20,20,20,20","20,20,20,20","0,0,0,0","20,20,20,20","10,10,10,10","20,20,20,20","20,20,20,20","20,20,20,20","0,1,0,1","7820,3259,2116,4029","-15.716719054429078,38.30610393204962,-10.75911697523648,34.11157095674071","-13.827382726074557,27.45280056424627,14.002503881221065,33.35504983940021","0","0"
"693","86","text","0","6","120824","0-0","","","","","","","","","","","","","","","","","","","","","","","","","","","","","","","","","","","","",""
"","","plant-game","0","7","145938","0-0","","200","180","2","WHEAT CROP","Right","200","180","2","THISTLE WEED","practice","3","1,2","180,162.48742008510325","2,1","THISTLE WEED,THISTLE WEED","180,183.93651877383024","2,1","WHEAT CROP,WHEAT CROP","0,0","20,20","10,10","20,20","20,20","20,20","0,0","20,20","10,10","20,20","20,20","20,20","0,1","8467,1756","-17.51257991489675,46.81549756397719","3.9365187738302394,15.298635001660102","0","0"
"708","86","text","0","8","146746","0-0","","","","","","","","","","","","","","","","","","","","","","","","","","","","","","","","","","","","",""
"","","plant-game","0","9","165466","0-0","","200","190","1","WHEAT CROP","Right","200","190","1","THISTLE WEED","practice","4","1","190","1","THISTLE WEED","190","1","WHEAT CROP","0","20","10","20","20","20","0","20","10","20","20","20","0","3262","-44.4428439787315","33.63107458685644","0","0"
"771","86","text","0","10","166367","0-0","","","","","","","","","","","","","","","","","","","","","","","","","","","","","","","","","","","","",""
"","","plant-game","0","11","195431","0-0","","200","120","8","CORN CROP","Left","200","160","8","THISTLE WEED","practice","5","1,2,3,4,5,6,7,8","120,104.74871342122103,114.44786428864118,107.9075993010175,87.30668065027714,81.80529114875932,91.12945598565335,86.09634686321523","8,7,6,5,4,3,2,1","CORN CROP,CORN CROP,CORN CROP,CORN CROP,CORN CROP,CORN CROP,CORN CROP,CORN CROP","160,155.8536946581461,169.47638130594837,138.81758927449533,143.56669798359982,157.82111509394548,159.33590360225938,174.9524555292157","8,7,6,5,4,3,2,1","THISTLE WEED,THISTLE WEED,THISTLE WEED,THISTLE WEED,THISTLE WEED,THISTLE WEED,THISTLE WEED,THISTLE WEED","20,20,20,20,20,20,20,20","20,20,20,20,20,20,20,20","10,10,10,10,10,10,10,10","20,20,20,20,20,20,20,20","0,0,0,0,0,0,0,0","20,20,20,20,20,20,20,20","20,20,20,20,20,20,20,20","20,20,20,20,20,20,20,20","10,10,10,10,10,10,10,10","20,20,20,20,20,20,20,20","0,0,0,0,0,0,0,0","20,20,20,20,20,20,20,20","1,1,1,0,0,1,1,0","4217,2592,1115,1579,1831,3260,1552,702","-15.251286578778966,9.699150867420164,-6.540264987623688,-20.60091865074036,-5.501389501517817,9.324164836894022,-5.03310912243812,40.17863330941061","-4.1463053418539015,13.62268664780226,-30.658792031453025,4.749108709104494,14.254417110345647,1.5147885083138974,15.61655192695634,28.400307131790033","0","0"
"738","86","text","0","12","196339","0-0","","","","","","","","","","","","","","","","","","","","","","","","","","","","","","","","","","","","",""
"","","plant-game","0","13","222311","0-0","","200","180","4","CORN CROP","Left","200","160","4","THISTLE WEED","practice","6","1,2,3,4","180,195.94534063630246,189.51421971049578,230.77735264066254","4,3,2,1","CORN CROP,CORN CROP,CORN CROP,CORN CROP","160,174.8613313834768,195.1546649354156,153.79906746137814","4,3,2,1","THISTLE WEED,THISTLE WEED,THISTLE WEED,THISTLE WEED","20,20,20,20","20,20,20,20","10,10,10,10","20,20,20,20","0,0,0,0","20,20,20,20","20,20,20,20","20,20,20,20","10,10,10,10","20,20,20,20","0,0,0,0","20,20,20,20","1,1,1,1","6743,2105,4279,2139","15.945340636302454,-6.431120925806684,41.263132930166755,-53.44040207723195","14.86133138347679,20.29333355193883,-41.35559747403746,16.130967028424468","0","0"
"990","86","text","0","14","223491","0-0","","","","","","","","","","","","","","","","","","","","","","","","","","","","","","","","","","","","",""
"","","plant-game","0","15","247802","0-0","","200","180","2","CORN CROP","Left","200","190","2","NETTLE WEED","practice","7","1,2","180,181.40609164251123","2,1","CORN CROP,CORN CROP","190,218.68789754723736","2,1","NETTLE WEED,NETTLE WEED","20,20","20,20","10,10","20,20","0,0","20,20","20,20","20,20","10,10","20,20","0,0","20,20","0,1","4802,12422","1.4060916425112389,-1.6139320887184612","28.687897547237366,16.377664415428796","4","0"
"737","86","text","0","16","248590","0-0","","","","","","","","","","","","","","","","","","","","","","","","","","","","","","","","","","","","",""
"","","plant-game","0","17","285763","0-0","","200","120","4","CORN CROP","Right","200","120","8","THISTLE WEED","practice","8","1,2,3,4,5,6,7,8","120,87.11063129604634,101.40022056480268,101.49506676956622,137.93211391872006,125.93039360645292,101.75290542509356,131.94608271871826","8,7,6,5,4,3,2,1","THISTLE WEED,THISTLE WEED,THISTLE WEED,THISTLE WEED,THISTLE WEED,THISTLE WEED,THISTLE WEED,THISTLE WEED","120,136.2449808414964,124.19905516156508,144.35593894448834,160,165.48762138137783,149.54028742486798,178.20109549048425","4,3,2,1,4,3,2,1","CORN CROP,CORN CROP,CORN CROP,CORN CROP,WHEAT CROP,WHEAT CROP,WHEAT CROP,WHEAT CROP","0,0,0,0,0,0,0,0","20,20,20,20,20,20,20,20","10,10,10,10,10,10,10,10","20,20,20,20,20,20,20,20","20,20,20,20,20,20,20,20","20,20,20,20,20,20,20,20","0,0,0,0,0,0,0,0","20,20,20,20,20,20,20,20","10,10,10,10,10,10,10,10","20,20,20,20,20,20,20,20","20,20,20,20,20,20,20,20","20,20,20,20,20,20,20,20","0,0,1,1,0,0,1,1","3356,1699,2536,1473,6992,1135,3100,1193","-32.889368703953664,14.289589268756345,0.09484620476353811,36.437047149153855,-12.001720312267139,-24.177488181359372,30.193177293624696,12.966094852193455","16.244980841496403,-12.045925679931324,20.15688378292326,35.194811050465546,5.48762138137784,-15.947333956509855,28.66080806561626,8.70260487160985","0","0"
"533","86","text","0","18","286421","0-0","","","","","","","","","","","","","","","","","","","","","","","","","","","","","","","","","","","","",""
"","","plant-game","0","19","327886","0-0","","200","160","4","WHEAT CROP","Right","200","160","2","THISTLE WEED","practice","9","1,2,3,4","160,167.0713511554423,180,182.99800110426156","2,1,2,1","THISTLE WEED,THISTLE WEED,NETTLE WEED,NETTLE WEED","160,165.02477508860002,199.72201058868777,189.43047565673572","4,3,2,1","WHEAT CROP,WHEAT CROP,WHEAT CROP,WHEAT CROP","0,0,0,0","20,20,20,20","10,10,10,10","20,20,20,20","20,20,20,20","20,20,20,20","0,0,0,0","20,20,20,20","10,10,10,10","20,20,20,20","20,20,20,20","20,20,20,20","0,0,1,0","6811,2211,6566,2922","7.07135115544231,15.685987824964617,2.9980011042615544,7.037579076668657","5.024775088600013,34.69723550008774,-10.29153493195205,11.338282949333706","2","0"
"617","86","text","0","20","328593","0-0","","","","","","","","","","","","","","","","","","","","","","","","","","","","","","","","","","","","",""
"","","plant-game","0","21","359487","0-0","","200","180","2","CORN CROP","Right","200","180","1","NETTLE WEED","practice","10","1,2","180,190","1,1","NETTLE WEED,THISTLE WEED","180,171.04753373271495","2,1","CORN CROP,CORN CROP","0,0","20,20","10,10","20,20","20,20","20,20","0,0","20,20","10,10","20,20","20,20","20,20","0,1","6316,913","34.51353600653239,-17.648617812113514","-8.952466267285061,0.9688103672951485","1","0"
"649","86","text","0","22","360214","0-0","","","","","","","","","","","","","","","","","","","","","","","","","","","","","","","","","","","","",""
"","","plant-game","0","23","404912","0-0","","200","120","8","WHEAT CROP","Left","200","160","4","THISTLE WEED","practice","11","1,2,3,4,5,6,7,8","120,154.1811606126431,131.27675809384522,115.81115415983562,156.01333740829259,188.0371264566194,179.02255780879284,156.37586026112132","8,7,6,5,4,3,2,1","WHEAT CROP,WHEAT CROP,WHEAT CROP,WHEAT CROP,WHEAT CROP,WHEAT CROP,WHEAT CROP,WHEAT CROP","160,192.46377588087856,190.2363260895086,205.2703713910583,160,149.36017661808168,211.94557294464647,225.94366653961242","4,3,2,1,4,3,2,1","THISTLE WEED,THISTLE WEED,THISTLE WEED,THISTLE WEED,NETTLE WEED,NETTLE WEED,NETTLE WEED,NETTLE WEED","20,20,20,20,20,20,20,20","20,20,20,20,20,20,20,20","10,10,10,10,10,10,10,10","20,20,20,20,20,20,20,20","0,0,0,0,0,0,0,0","20,20,20,20,20,20,20,20","20,20,20,20,20,20,20,20","20,20,20,20,20,20,20,20","10,10,10,10,10,10,10,10","20,20,20,20,20,20,20,20","0,0,0,0,0,0,0,0","20,20,20,20,20,20,20,20","0,1,1,1,0,0,1,0","4986,3860,1143,4216,4451,1361,2452,4812","34.18116061264312,-22.904402518797895,-15.46560393400959,40.20218324845697,32.023789048326826,-9.014568647826557,-22.64669754767151,-15.498395659529564","32.46377588087856,-2.2274497913699722,15.03404530154971,28.343269207007857,-10.639823381918308,62.585396326564776,13.998093594965937,16.270724710394017","0","0"
"481","86","text","0","24","405483","0-0","","","","","","","","","","","","","","","","","","","","","","","","","","","","","","","","","","","","",""
"","","plant-game","0","25","432681","0-0","","200","180","2","WHEAT CROP","Right","200","160","4","THISTLE WEED","practice","12","1,2,3,4","160,130.35238164415546,155.3855985602541,143.57957061122056","4,3,2,1","THISTLE WEED,THISTLE WEED,THISTLE WEED,THISTLE WEED","180,195.36843036428291,180,162.11027665231285","2,1,2,1","WHEAT CROP,WHEAT CROP,CORN CROP,CORN CROP","0,0,0,0","20,20,20,20","10,10,10,10","20,20,20,20","20,20,20,20","20,20,20,20","0,0,0,0","20,20,20,20","10,10,10,10","20,20,20,20","20,20,20,20","20,20,20,20","1,1,0,1","5724,1811,5236,1144","-29.64761835584453,25.033216916098628,-11.806027949033522,28.46061553291068","15.3684303642829,32.810093825966604,-17.88972334768716,17.345327430135697","0","0"
"93","86","text","0","26","432854","0-0","","","","","","","","","","","","","","","","","","","","","","","","","","","","","","","","","","","","",""
"7550","86","text","0","27","441567","0-0","","","","","","","","","","","","","","","","","","","","","","","","","","","","","","","","","","","","",""
"","","plant-game","0","28","471279","0-0","","200","160","4","CORN CROP","Left","200","190","2","NETTLE WEED","experimental","1","1,2,3,4","160,146.68842355144793,190.73237318332107,203.50770021477683","4,3,2,1","CORN CROP,CORN CROP,CORN CROP,CORN CROP","190,192.3641591137297,180,180.00208598700848","2,1,2,1","NETTLE WEED,NETTLE WEED,THISTLE WEED,THISTLE WEED","20,20,20,20","20,20,20,20","10,10,10,10","20,20,20,20","0,0,0,0","20,20,20,20","20,20,20,20","20,20,20,20","10,10,10,10","20,20,20,20","0,0,0,0","20,20,20,20","1,1,1,1","8522,3680,6931,2601","-13.311576448552064,44.04394963187315,12.77532703145577,18.65221444605003","2.364159113729703,-22.80757648090458,0.002085987008493199,45.172831481442365","0","0"
"614","86","text","0","29","471970","0-0","","","","","","","","","","","","","","","","","","","","","","","","","","","","","","","","","","","","",""
"","","plant-game","0","30","492130","0-0","","200","160","8","CORN CROP","Left","200","180","8","NETTLE WEED","experimental","2","1,2,3,4,5,6,7,8","160,131.9956203510411,128.48789833656454,137.01624371390173,140.9319187755973,160.60105267115458,121.08580442935545,126.50612141698124","8,7,6,5,4,3,2,1","CORN CROP,CORN CROP,CORN CROP,CORN CROP,CORN CROP,CORN CROP,CORN CROP,CORN CROP","180,206.68427605234615,175.1955399273285,153.00974204462312,112.97038416517103,155.99447334535225,165.79282044802588,156.7830268628989","8,7,6,5,4,3,2,1","NETTLE WEED,NETTLE WEED,NETTLE WEED,NETTLE WEED,NETTLE WEED,NETTLE WEED,NETTLE WEED,NETTLE WEED","20,20,20,20,20,20,20,20","20,20,20,20,20,20,20,20","10,10,10,10,10,10,10,10","20,20,20,20,20,20,20,20","0,0,0,0,0,0,0,0","20,20,20,20,20,20,20,20","20,20,20,20,20,20,20,20","20,20,20,20,20,20,20,20","10,10,10,10,10,10,10,10","20,20,20,20,20,20,20,20","0,0,0,0,0,0,0,0","20,20,20,20,20,20,20,20","1,1,1,1,0,1,1,0","5156,1584,1731,1219,1998,2121,738,1209","-28.00437964895889,-3.5077220144765695,8.528345377337182,3.9156750616955716,19.669133895557273,-39.515248241799135,5.420316987625799,52.992314074188116","26.684276052346142,-31.488736125017663,-22.18579788270538,-40.03935787945209,43.024089180181214,9.798347102673628,-9.009793585126975,23.66788450926202","0","0"
"728","86","text","0","31","492948","0-0","","","","","","","","","","","","","","","","","","","","","","","","","","","","","","","","","","","","",""
"","","plant-game","0","32","511352","0-0","","200","160","2","CORN CROP","Right","200","190","1","THISTLE WEED","experimental","3","1,2","190,190","1,1","THISTLE WEED,NETTLE WEED","160,191.86253080326168","2,1","CORN CROP,CORN CROP","0,0","20,20","10,10","20,20","20,20","20,20","0,0","20,20","10,10","20,20","20,20","20,20","0,1","8526,2425","32.42838354738153,22.998242197216815","31.862530803261663,17.786000300288904","0","0"
"1256","86","text","0","33","512693","0-0","","","","","","","","","","","","","","","","","","","","","","","","","","","","","","","","","","","","",""
"","","plant-game","0","34","534091","0-0","","200","190","4","CORN CROP","Right","200","190","1","THISTLE WEED","experimental","4","1,2,3,4","190,170,200.83542853777004,190.68455703301035","1,3,2,1","THISTLE WEED,NETTLE WEED,NETTLE WEED,NETTLE WEED","190,195.45560850458122,186.46530495912936,150.7462344142552","4,3,2,1","CORN CROP,CORN CROP,CORN CROP,CORN CROP","0,0,0,0","20,20,20,20","10,10,10,10","20,20,20,20","20,20,20,20","20,20,20,20","0,0,0,0","20,20,20,20","10,10,10,10","20,20,20,20","20,20,20,20","20,20,20,20","0,0,0,1","6766,4025,1605,1939","-24.91223401645832,30.835428537770042,-10.150871504759685,19.328635244627765","5.455608504581212,-8.99030354545186,-35.719070544874135,20.973290807485103","0","0"
"100","86","text","0","35","534281","0-0","","","","","","","","","","","","","","","","","","","","","","","","","","","","","","","","","","","","",""
"","","plant-game","0","36","556331","0-0","","200","180","8","CORN CROP","Right","200","120","1","NETTLE WEED","experimental","5","1,2,3,4,5,6,7,8","120,130,171.1261576139832,147.59367514168088,188.97526198091794,186.44462730810466,153.01444014739064,154.4592096029912","1,7,6,5,4,3,2,1","NETTLE WEED,THISTLE WEED,THISTLE WEED,THISTLE WEED,THISTLE WEED,THISTLE WEED,THISTLE WEED,THISTLE WEED","180,148.24809264241821,169.23682837021784,164.55512125812078,197.55742787454645,176.48251033058227,171.51714124614088,184.06016439780996","8,7,6,5,4,3,2,1","CORN CROP,CORN CROP,CORN CROP,CORN CROP,CORN CROP,CORN CROP,CORN CROP,CORN CROP","0,0,0,0,0,0,0,0","20,20,20,20,20,20,20,20","10,10,10,10,10,10,10,10","20,20,20,20,20,20,20,20","20,20,20,20,20,20,20,20","20,20,20,20,20,20,20,20","0,0,0,0,0,0,0,0","20,20,20,20,20,20,20,20","10,10,10,10,10,10,10,10","20,20,20,20,20,20,20,20","20,20,20,20,20,20,20,20","20,20,20,20,20,20,20,20","0,1,0,1,0,0,1,1","4637,3965,1198,822,860,1420,662,1048","-4.755048954764258,41.12615761398318,-23.53248247230232,41.381586839237045,-2.5306346728132842,-33.43018716071403,1.4447694556005466,14.644000634951789","-31.75190735758177,20.98873572779963,-4.681707112097061,33.00230661642568,-21.074917543964165,-4.9653690844413925,12.543023151669082,28.408855649373955","0","0"
"602","86","text","0","37","557011","0-0","","","","","","","","","","","","","","","","","","","","","","","","","","","","","","","","","","","","",""
"","","plant-game","0","38","581595","0-0","","200","160","8","CORN CROP","Left","200","160","1","NETTLE WEED","experimental","6","1,2,3,4,5,6,7,8","160,206.9093499588272,248.4277105453629,238.48478557568424,238.55042162457198,229.79181084467865,262.16602603752887,272.84095634320585","8,7,6,5,4,3,2,1","CORN CROP,CORN CROP,CORN CROP,CORN CROP,CORN CROP,CORN CROP,CORN CROP,CORN CROP","160,130,126.180005212398,116.05315600840827,135.08028574013812,155.95969204279666,174.7730558049583,180.08630639145102","1,7,6,5,4,3,2,1","NETTLE WEED,THISTLE WEED,THISTLE WEED,THISTLE WEED,THISTLE WEED,THISTLE WEED,THISTLE WEED,THISTLE WEED","20,20,20,20,20,20,20,20","20,20,20,20,20,20,20,20","10,10,10,10,10,10,10,10","20,20,20,20,20,20,20,20","0,0,0,0,0,0,0,0","20,20,20,20,20,20,20,20","20,20,20,20,20,20,20,20","20,20,20,20,20,20,20,20","10,10,10,10,10,10,10,10","20,20,20,20,20,20,20,20","0,0,0,0,0,0,0,0","20,20,20,20,20,20,20,20","0,0,0,0,0,0,0,0","6338,4354,1374,887,831,551,569,868","46.90934995882718,41.51836058653571,-9.942924969678671,0.06563604888775387,-8.758610779893338,32.374215192850215,10.674930305676959,35.69595039647864","13.564562776218322,-3.819994787601999,-10.126849203989732,19.02712973172986,20.879406302658534,18.813363762161615,5.313250586492719,25.024845087658584","0","0"
"87","86","text","0","39","581802","0-0","","","","","","","","","","","","","","","","","","","","","","","","","","","","","","","","","","","","",""
"","","plant-game","0","40","599853","0-0","","200","120","2","CORN CROP","Right","200","160","1","NETTLE WEED","experimental","7","1,2","160,190","1,1","NETTLE WEED,THISTLE WEED","120,98.15679403133859","2,1","CORN CROP,CORN CROP","0,0","20,20","10,10","20,20","20,20","20,20","0,0","20,20","10,10","20,20","20,20","20,20","0,0","5642,5477","-1.2967484450378812,8.980366002591841","-21.843205968661415,8.818238394613436","0","0"
"2153","86","text","0","41","602100","0-0","","","","","","","","","","","","","","","","","","","","","","","","","","","","","","","","","","","","",""
"","","plant-game","0","42","632166","0-0","","200","160","4","CORN CROP","Left","200","190","8","THISTLE WEED","experimental","8","1,2,3,4,5,6,7,8","160,185.10534387095885,201.50769157136853,186.2980125358767,160,225.5246274466263,285.8074234658874,262.3619770616419","4,3,2,1,4,3,2,1","CORN CROP,CORN CROP,CORN CROP,CORN CROP,WHEAT CROP,WHEAT CROP,WHEAT CROP,WHEAT CROP","190,203.079296495195,245.57111083922845,249.53881609123076,272.74807238391355,311.43449533803215,331.7332194622085,303.66079667982945","8,7,6,5,4,3,2,1","THISTLE WEED,THISTLE WEED,THISTLE WEED,THISTLE WEED,THISTLE WEED,THISTLE WEED,THISTLE WEED,THISTLE WEED","20,20,20,20,20,20,20,20","20,20,20,20,20,20,20,20","10,10,10,10,10,10,10,10","20,20,20,20,20,20,20,20","0,0,0,0,0,0,0,0","20,20,20,20,20,20,20,20","20,20,20,20,20,20,20,20","20,20,20,20,20,20,20,20","10,10,10,10,10,10,10,10","20,20,20,20,20,20,20,20","0,0,0,0,0,0,0,0","20,20,20,20,20,20,20,20","1,1,1,0,0,0,1,1","7555,2450,3350,1447,4621,751,2730,298","25.105343870958844,16.40234770040969,-15.209679035491817,23.64645438715683,65.52462744662631,60.2827960192611,-23.445446404245494,11.725317943570271","13.079296495195,42.491814344033465,3.9677052520023133,23.209256292682802,38.68642295411861,20.298724124176395,-28.07242278237907,32.34580544290836","1","0"
"37","86","text","0","43","632356","0-0","","","","","","","","","","","","","","","","","","","","","","","","","","","","","","","","","","","","",""
"","","plant-game","0","44","671511","0-0","","200","180","4","CORN CROP","Right","200","160","8","THISTLE WEED","experimental","9","1,2,3,4,5,6,7,8","160,181.79170287990374,163.5651577523032,158.09760726341707,165.1060282846887,166.3984324878921,186.97689308491908,211.96339139904867","8,7,6,5,4,3,2,1","THISTLE WEED,THISTLE WEED,THISTLE WEED,THISTLE WEED,THISTLE WEED,THISTLE WEED,THISTLE WEED,THISTLE WEED","180,213.30028588171913,228.6472020590888,203.8402097794442,160,156.0612474642343,173.19871367511658,185.70129804984938","4,3,2,1,4,3,2,1","CORN CROP,CORN CROP,CORN CROP,CORN CROP,WHEAT CROP,WHEAT CROP,WHEAT CROP,WHEAT CROP","0,0,0,0,0,0,0,0","20,20,20,20,20,20,20,20","10,10,10,10,10,10,10,10","20,20,20,20,20,20,20,20","20,20,20,20,20,20,20,20","20,20,20,20,20,20,20,20","0,0,0,0,0,0,0,0","20,20,20,20,20,20,20,20","10,10,10,10,10,10,10,10","20,20,20,20,20,20,20,20","20,20,20,20,20,20,20,20","20,20,20,20,20,20,20,20","1,0,0,1,0,0,0,0","12104,3505,1353,1352,6991,2093,1781,1616","21.791702879903735,-18.226545127600517,-5.467550488886137,7.0084210212716425,1.2924042032033933,20.57846059702697,24.986498314129584,-4.0538401955843115","33.30028588171914,15.346916177369675,-24.806992279644618,28.616399207094613,-3.9387525357656887,17.137466210882287,12.502584374732814,11.016419694292896","0","0"
"833","86","text","0","45","672574","0-0","","","","","","","","","","","","","","","","","","","","","","","","","","","","","","","","","","","","",""
"","","plant-game","0","46","694044","0-0","","200","120","1","CORN CROP","Right","200","180","2","THISTLE WEED","experimental","10","1,2","180,185.03361707031405","2,1","THISTLE WEED,THISTLE WEED","120,190","1,1","CORN CROP,WHEAT CROP","0,0","20,20","10,10","20,20","20,20","20,20","0,0","20,20","10,10","20,20","20,20","20,20","0,0","7649,6219","5.033617070314058,5.251937295985904","7.036305743186338,-0.43476436465101786","0","0"
"618","86","text","0","47","694833","0-0","","","","","","","","","","","","","","","","","","","","","","","","","","","","","","","","","","","","",""
"","","plant-game","0","48","729809","0-0","","200","180","4","CORN CROP","Right","200","120","8","THISTLE WEED","experimental","11","1,2,3,4,5,6,7,8","120,103.18777387078555,172.53459359544314,174.90284692565928,149.97535511247105,151.6131145481911,135.5017213900763,157.54652584083055","8,7,6,5,4,3,2,1","THISTLE WEED,THISTLE WEED,THISTLE WEED,THISTLE WEED,THISTLE WEED,THISTLE WEED,THISTLE WEED,THISTLE WEED","180,226.1522880701364,250.35184376513112,231.25094824918818,160,168.7830657516261,227.05477236242558,253.33025916179523","4,3,2,1,4,3,2,1","CORN CROP,CORN CROP,CORN CROP,CORN CROP,WHEAT CROP,WHEAT CROP,WHEAT CROP,WHEAT CROP","0,0,0,0,0,0,0,0","20,20,20,20,20,20,20,20","10,10,10,10,10,10,10,10","20,20,20,20,20,20,20,20","20,20,20,20,20,20,20,20","20,20,20,20,20,20,20,20","0,0,0,0,0,0,0,0","20,20,20,20,20,20,20,20","10,10,10,10,10,10,10,10","20,20,20,20,20,20,20,20","20,20,20,20,20,20,20,20","20,20,20,20,20,20,20,20","1,1,0,0,1,1,1,0","6977,4359,2034,1471,4008,1360,1915,5179","-16.812226129214444,69.34681972465759,2.3682533302161395,-24.92749181318823,1.6377594357200422,-16.1113931581148,22.044804450754242,-36.339535223771435","46.1522880701364,24.199555694994725,-19.10089551594295,-16.517819420459666,8.783065751626102,58.27170661079948,26.27548679936964,-12.582254739508098","0","0"
"113","86","text","0","49","730062","0-0","","","","","","","","","","","","","","","","","","","","","","","","","","","","","","","","","","","","",""
"","","plant-game","0","50","751118","0-0","","200","190","1","WHEAT CROP","Left","200","160","4","THISTLE WEED","experimental","12","1,2,3,4","190,170,177.65685461753074,196.60536526450673","1,3,2,1","WHEAT CROP,CORN CROP,CORN CROP,CORN CROP","160,172.63068592220432,150.32225729044808,104.49079369536554","4,3,2,1","THISTLE WEED,THISTLE WEED,THISTLE WEED,THISTLE WEED","20,20,20,20","20,20,20,20","10,10,10,10","20,20,20,20","0,0,0,0","20,20,20,20","20,20,20,20","20,20,20,20","10,10,10,10","20,20,20,20","0,0,0,0","20,20,20,20","1,1,1,1","5817,3836,1364,1068","-21.536775394376054,7.656854617530746,18.948510646976,-22.794062109814476","12.63068592220433,-22.308428631756247,-45.831463595082546,20.40096947343113","0","0"
"92","86","text","0","51","751319","0-0","","","","","","","","","","","","","","","","","","","","","","","","","","","","","","","","","","","","",""
"","","plant-game","0","52","780191","0-0","","200","180","4","CORN CROP","Right","200","160","1","NETTLE WEED","experimental","13","1,2,3,4","160,170,201.63317705897978,169.40840298617474","1,3,2,1","NETTLE WEED,THISTLE WEED,THISTLE WEED,THISTLE WEED","180,178.97665449483506,134.48943562629148,117.18634399181133","4,3,2,1","CORN CROP,CORN CROP,CORN CROP,CORN CROP","0,0,0,0","20,20,20,20","10,10,10,10","20,20,20,20","20,20,20,20","20,20,20,20","0,0,0,0","20,20,20,20","10,10,10,10","20,20,20,20","20,20,20,20","20,20,20,20","0,0,0,1","5450,4711,10249,1205","-16.602699396537783,31.63317705897978,-32.22477407280503,43.81821749423568","-1.023345505164942,-44.48721886854357,-17.30309163448016,3.2629143263682927","0","0"
"87","86","text","0","53","780413","0-0","","","","","","","","","","","","","","","","","","","","","","","","","","","","","","","","","","","","",""
"","","plant-game","0","54","808934","0-0","","200","190","4","CORN CROP","Left","200","120","8","THISTLE WEED","experimental","14","1,2,3,4,5,6,7,8","190,170.82518969013677,185.86599069870059,233.24408348019693,160,135.34061995421618,136.68937246488176,144.38360878719368","4,3,2,1,4,3,2,1","CORN CROP,CORN CROP,CORN CROP,CORN CROP,WHEAT CROP,WHEAT CROP,WHEAT CROP,WHEAT CROP","120,144.85392370594465,168.80940479911584,178.75063044195917,212.777045866349,225.96699338656518,239.16842208840302,233.56724502787372","8,7,6,5,4,3,2,1","THISTLE WEED,THISTLE WEED,THISTLE WEED,THISTLE WEED,THISTLE WEED,THISTLE WEED,THISTLE WEED,THISTLE WEED","20,20,20,20,20,20,20,20","20,20,20,20,20,20,20,20","10,10,10,10,10,10,10,10","20,20,20,20,20,20,20,20","0,0,0,0,0,0,0,0","20,20,20,20,20,20,20,20","20,20,20,20,20,20,20,20","20,20,20,20,20,20,20,20","10,10,10,10,10,10,10,10","20,20,20,20,20,20,20,20","0,0,0,0,0,0,0,0","20,20,20,20,20,20,20,20","0,0,0,0,1,1,1,1","8346,850,657,2136,7451,817,410,379","-19.17481030986322,15.040801008563829,47.378092781496356,3.953081794302012,-24.659380045783813,1.3487525106655722,7.6942363223119346,19.138464202898998","24.853923705944656,23.955481093171183,9.941225642843332,34.02641542438981,13.18994752021619,13.201428701837827,-5.601177060529307,-13.115534946692014","0","0"
"133","86","text","0","55","809237","0-0","","","","","","","","","","","","","","","","","","","","","","","","","","","","","","","","","","","","",""
"","","plant-game","0","56","830303","0-0","","200","180","8","WHEAT CROP","Left","200","120","4","NETTLE WEED","experimental","15","1,2,3,4,5,6,7,8","180,180.62265139260404,201.22573583186883,200.88629490905004,193.91830238471778,209.3758197951547,230.65316042178796,255.67327448165221","8,7,6,5,4,3,2,1","WHEAT CROP,WHEAT CROP,WHEAT CROP,WHEAT CROP,WHEAT CROP,WHEAT CROP,WHEAT CROP,WHEAT CROP","120,131.97665597675112,122.30501519742637,105.99561988034952,160,172.41555580833923,169.7276082361452,176.94256186333982","4,3,2,1,4,3,2,1","NETTLE WEED,NETTLE WEED,NETTLE WEED,NETTLE WEED,THISTLE WEED,THISTLE WEED,THISTLE WEED,THISTLE WEED","20,20,20,20,20,20,20,20","20,20,20,20,20,20,20,20","10,10,10,10,10,10,10,10","20,20,20,20,20,20,20,20","0,0,0,0,0,0,0,0","20,20,20,20,20,20,20,20","20,20,20,20,20,20,20,20","20,20,20,20,20,20,20,20","10,10,10,10,10,10,10,10","20,20,20,20,20,20,20,20","0,0,0,0,0,0,0,0","20,20,20,20,20,20,20,20","1,1,1,1,1,1,1,1","3482,1516,1057,1326,2047,1480,760,956","0.6226513926040368,20.603084439264798,-0.33944092281880894,-6.967992524332265,15.457517410436921,21.277340626633247,25.020114059864266,-26.091543077281973","11.976655976751108,-9.671640779324754,-16.30939531707685,-17.152693262140183,12.41555580833923,-2.6879475721940405,7.2149536271946415,1.598334412749138","0","0"
"809","86","text","0","57","831282","0-0","","","","","","","","","","","","","","","","","","","","","","","","","","","","","","","","","","","","",""
"","","plant-game","0","58","841373","0-0","","200","190","2","CORN CROP","Right","200","120","2","THISTLE WEED","experimental","16","1,2","120,126.07134966286252","2,1","THISTLE WEED,THISTLE WEED","190,170.18118059052887","2,1","CORN CROP,CORN CROP","0,0","20,20","10,10","20,20","20,20","20,20","0,0","20,20","10,10","20,20","20,20","20,20","0,0","5274,751","6.071349662862515,-23.555450182365565","-19.81881940947113,-11.700875364795227","0","0"
"79","86","text","0","59","841592","0-0","","","","","","","","","","","","","","","","","","","","","","","","","","","","","","","","","","","","",""
"","","plant-game","0","60","854866","0-0","","200","120","4","WHEAT CROP","Right","200","160","4","THISTLE WEED","experimental","17","1,2,3,4","160,148.87768557635172,125.31980622782474,123.48552891413317","4,3,2,1","THISTLE WEED,THISTLE WEED,THISTLE WEED,THISTLE WEED","120,131.2166959058781,138.78423857669918,146.75785070948666","4,3,2,1","WHEAT CROP,WHEAT CROP,WHEAT CROP,WHEAT CROP","0,0,0,0","20,20,20,20","10,10,10,10","20,20,20,20","20,20,20,20","20,20,20,20","0,0,0,0","20,20,20,20","10,10,10,10","20,20,20,20","20,20,20,20","20,20,20,20","0,0,1,1","3155,1810,2769,1483","-11.122314423648286,-23.55787934852698,-1.834277313691576,-0.8839512080333911","11.216695905878113,7.567542670821056,7.973612132787469,18.493384348058004","0","0"
"205","86","text","0","61","855164","0-0","","","","","","","","","","","","","","","","","","","","","","","","","","","","","","","","","","","","",""
"","","plant-game","0","62","883022","0-0","","200","180","4","CORN CROP","Left","200","190","1","NETTLE WEED","experimental","18","1,2,3,4","180,194.79607812241238,222.85800788512745,190.8905498233365","4,3,2,1","CORN CROP,CORN CROP,CORN CROP,CORN CROP","190,170,155.68316559446154,184.48223929217852","1,3,2,1","NETTLE WEED,THISTLE WEED,THISTLE WEED,THISTLE WEED","20,20,20,20","20,20,20,20","10,10,10,10","20,20,20,20","0,0,0,0","20,20,20,20","20,20,20,20","20,20,20,20","10,10,10,10","20,20,20,20","0,0,0,0","20,20,20,20","1,1,1,1","5731,3918,1837,9780","14.796078122412393,28.061929762715067,-31.967458061790943,9.8903261023873","9.756778945725326,-14.316834405538462,28.799073697716977,18.88123590191536","0","0"
"67","86","text","0","63","883219","0-0","","","","","","","","","","","","","","","","","","","","","","","","","","","","","","","","","","","","",""
"","","plant-game","0","64","908678","0-0","","200","120","8","WHEAT CROP","Left","200","190","4","THISTLE WEED","experimental","19","1,2,3,4,5,6,7,8","120,122.44684843271081,116.56198505585284,89.02593363394625,91.20899221062575,129.22566876192695,146.59412449714188,168.0094951175296","8,7,6,5,4,3,2,1","WHEAT CROP,WHEAT CROP,WHEAT CROP,WHEAT CROP,WHEAT CROP,WHEAT CROP,WHEAT CROP,WHEAT CROP","190,195.08487703241693,161.80763310960583,177.13517922820083,160,157.89902563549992,166.4224767440009,195.93286025901867","4,3,2,1,4,3,2,1","THISTLE WEED,THISTLE WEED,THISTLE WEED,THISTLE WEED,NETTLE WEED,NETTLE WEED,NETTLE WEED,NETTLE WEED","20,20,20,20,20,20,20,20","20,20,20,20,20,20,20,20","10,10,10,10,10,10,10,10","20,20,20,20,20,20,20,20","0,0,0,0,0,0,0,0","20,20,20,20,20,20,20,20","20,20,20,20,20,20,20,20","20,20,20,20,20,20,20,20","10,10,10,10,10,10,10,10","20,20,20,20,20,20,20,20","0,0,0,0,0,0,0,0","20,20,20,20,20,20,20,20","1,1,1,1,0,0,0,0","2959,2397,1495,1024,4381,892,1767,1900","2.446848432710806,-5.884863376857968,-27.536051421906592,2.1830585766794988,38.0166765513012,17.36845573521492,21.41537062038773,4.761567192266575","5.084877032416934,-33.27724392281111,15.327546118595006,15.214474471662193,-2.1009743645000682,8.523451108500986,29.510383515017768,-8.408390260601912","0","0"
"61","86","text","0","65","908942","0-0","","","","","","","","","","","","","","","","","","","","","","","","","","","","","","","","","","","","",""
"","","plant-game","0","66","923525","0-0","","200","160","1","CORN CROP","Right","200","160","2","THISTLE WEED","experimental","20","1,2","160,225.903181354928","2,1","THISTLE WEED,THISTLE WEED","160,190","1,1","CORN CROP,WHEAT CROP","0,0","20,20","10,10","20,20","20,20","20,20","0,0","20,20","10,10","20,20","20,20","20,20","1,0","2735,4361","65.903181354928,1.7172876874119072","3.413874424839104,23.32995007701441","0","0"
"70","86","text","0","67","923735","0-0","","","","","","","","","","","","","","","","","","","","","","","","","","","","","","","","","","","","",""
"","","plant-game","0","68","945994","0-0","","200","190","8","WHEAT CROP","Right","200","120","4","NETTLE WEED","experimental","21","1,2,3,4,5,6,7,8","120,141.45317675694258,135.36842892001874,136.81969660041744,160,182.63441427927094,158.16337661839532,165.13489015569937","4,3,2,1,4,3,2,1","NETTLE WEED,NETTLE WEED,NETTLE WEED,NETTLE WEED,THISTLE WEED,THISTLE WEED,THISTLE WEED,THISTLE WEED","190,223.84772454241858,214.00045187996466,246.6174504543725,220.6307338355814,295.13461753372155,276.64494825831616,253.8603282303195","8,7,6,5,4,3,2,1","WHEAT CROP,WHEAT CROP,WHEAT CROP,WHEAT CROP,WHEAT CROP,WHEAT CROP,WHEAT CROP,WHEAT CROP","0,0,0,0,0,0,0,0","20,20,20,20,20,20,20,20","10,10,10,10,10,10,10,10","20,20,20,20,20,20,20,20","20,20,20,20,20,20,20,20","20,20,20,20,20,20,20,20","0,0,0,0,0,0,0,0","20,20,20,20,20,20,20,20","10,10,10,10,10,10,10,10","20,20,20,20,20,20,20,20","20,20,20,20,20,20,20,20","20,20,20,20,20,20,20,20","0,0,0,0,1,0,0,0","3348,1497,1082,858,3434,1694,1057,1989","21.453176756942586,-6.08474783692385,1.4512676803987035,7.574701769177791,22.63441427927093,-24.471037660875634,6.971513537304053,30.363815122858572","33.847724542418575,-9.84727266245392,32.616998574407845,-25.986716618791096,74.50388369814019,-18.48966927540539,-22.784620027996667,-8.794760284456771","0","0"
"61","86","text","0","69","946149","0-0","","","","","","","","","","","","","","","","","","","","","","","","","","","","","","","","","","","","",""
"","","plant-game","0","70","982743","0-0","","200","120","2","CORN CROP","Left","200","180","8","NETTLE WEED","experimental","22","1,2,3,4,5,6,7,8","120,128.43952097514273,140,173.35477784968148,158.58150993784685,160.74964191149922,179.2251989605777,174.60251010102382","2,1,6,5,4,3,2,1","CORN CROP,CORN CROP,WHEAT CROP,WHEAT CROP,WHEAT CROP,WHEAT CROP,WHEAT CROP,WHEAT CROP","180,149.24556138598115,172.91535755854645,200.0386449288616,180.04804900546557,188.13789601595212,217.22737271913388,216.66943214892098","8,7,6,5,4,3,2,1","NETTLE WEED,NETTLE WEED,NETTLE WEED,NETTLE WEED,NETTLE WEED,NETTLE WEED,NETTLE WEED,NETTLE WEED","20,20,20,20,20,20,20,20","20,20,20,20,20,20,20,20","10,10,10,10,10,10,10,10","20,20,20,20,20,20,20,20","0,0,0,0,0,0,0,0","20,20,20,20,20,20,20,20","20,20,20,20,20,20,20,20","20,20,20,20,20,20,20,20","10,10,10,10,10,10,10,10","20,20,20,20,20,20,20,20","0,0,0,0,0,0,0,0","20,20,20,20,20,20,20,20","0,0,0,1,1,1,1,1","21409,879,1932,1989,838,1005,729,388","8.43952097514272,19.7161862352684,33.35477784968148,-14.773267911834642,2.168131973652372,18.47555704907846,-4.622688859553879,0.7813252124535525","-30.754438614018838,23.669796172565295,27.123287370315147,-19.990595923396018,8.08984701048656,29.08947670318177,-0.5579405702128932,11.264995335134842","0","0"
"100","86","text","0","71","982953","0-0","","","","","","","","","","","","","","","","","","","","","","","","","","","","","","","","","","","","",""
"","","plant-game","0","72","995330","0-0","","200","190","2","CORN CROP","Left","200","160","2","THISTLE WEED","experimental","23","1,2","190,190.3487870469386","2,1","CORN CROP,CORN CROP","160,186.23872289793297","2,1","THISTLE WEED,THISTLE WEED","20,20","20,20","10,10","20,20","0,0","20,20","20,20","20,20","10,10","20,20","0,0","20,20","0,0","7113,1849","0.34878704693861806,59.511409450447005","26.23872289793298,51.42151338512925","0","0"
"111","86","text","0","73","995581","0-0","","","","","","","","","","","","","","","","","","","","","","","","","","","","","","","","","","","","",""
"","","plant-game","0","74","1019956","0-0","","200","180","8","CORN CROP","Right","200","190","2","NETTLE WEED","experimental","24","1,2,3,4,5,6,7,8","190,182.7574691644476,140,131.88875689419356,107.87181304371883,114.95784256836909,109.94987634009522,89.59076814457785","2,1,6,5,4,3,2,1","NETTLE WEED,NETTLE WEED,THISTLE WEED,THISTLE WEED,THISTLE WEED,THISTLE WEED,THISTLE WEED,THISTLE WEED","180,177.06157197720356,194.0243545307307,209.9995032272067,204.92160133091878,235.0634370649733,227.0383991364283,258.72984597226616","8,7,6,5,4,3,2,1","CORN CROP,CORN CROP,CORN CROP,CORN CROP,CORN CROP,CORN CROP,CORN CROP,CORN CROP","0,0,0,0,0,0,0,0","20,20,20,20,20,20,20,20","10,10,10,10,10,10,10,10","20,20,20,20,20,20,20,20","20,20,20,20,20,20,20,20","20,20,20,20,20,20,20,20","0,0,0,0,0,0,0,0","20,20,20,20,20,20,20,20","10,10,10,10,10,10,10,10","20,20,20,20,20,20,20,20","20,20,20,20,20,20,20,20","20,20,20,20,20,20,20,20","0,0,0,0,1,1,1,1","7502,793,3105,1010,984,629,931,642","-7.242530835552388,2.1222696108974244,-8.111243105806444,-24.016943850474732,7.086029524650261,-5.0079662282738795,-20.359108195517365,41.884863551033035","-2.9384280227964457,16.96278255352716,15.975148696475985,-5.077901896287919,30.141835734054517,-8.02503792854501,31.69144683583785,29.790081277980697","0","0"
"911","86","text","0","75","1020987","0-0","","","","","","","","","","","","","","","","","","","","","","","","","","","","","","","","","","","","",""
"","","plant-game","0","76","1042830","0-0","","200","120","4","WHEAT CROP","Left","200","160","2","NETTLE WEED","experimental","25","1,2,3,4","120,161.15506561855025,161.4380214880977,151.45123136481806","4,3,2,1","WHEAT CROP,WHEAT CROP,WHEAT CROP,WHEAT CROP","160,122.41451978565037,180,206.49822746414713","2,1,2,1","NETTLE WEED,NETTLE WEED,THISTLE WEED,THISTLE WEED","20,20,20,20","20,20,20,20","10,10,10,10","20,20,20,20","0,0,0,0","20,20,20,20","20,20,20,20","20,20,20,20","10,10,10,10","20,20,20,20","0,0,0,0","20,20,20,20","1,1,0,0","9321,890,3464,1099","41.15506561855025,0.2829558695474481,-9.986790123279622,-5.412088621570653","-37.58548021434963,-8.190929205583746,26.498227464147142,18.41301762790357","0","0"
"750","86","text","0","77","1043837","0-0","","","","","","","","","","","","","","","","","","","","","","","","","","","","","","","","","","","","",""
"","","plant-game","0","78","1058424","0-0","","200","120","4","WHEAT CROP","Right","200","180","2","NETTLE WEED","experimental","26","1,2,3,4","180,159.56926966583669,180,225.3216348005193","2,1,2,1","NETTLE WEED,NETTLE WEED,THISTLE WEED,THISTLE WEED","120,124.4320030706996,122.34004693440586,139.97041453464342","4,3,2,1","WHEAT CROP,WHEAT CROP,WHEAT CROP,WHEAT CROP","0,0,0,0","20,20,20,20","10,10,10,10","20,20,20,20","20,20,20,20","20,20,20,20","0,0,0,0","20,20,20,20","10,10,10,10","20,20,20,20","20,20,20,20","20,20,20,20","0,0,1,1","4380,746,1333,1451","-20.430730334163325,3.7596163456505822,45.32163480051929,6.712545625363775","4.432003070699599,-2.0919561362937293,17.630367600237562,14.401183816443107","0","0"
"97","86","text","0","79","1058641","0-0","","","","","","","","","","","","","","","","","","","","","","","","","","","","","","","","","","","","",""
"","","plant-game","0","80","1078713","0-0","","200","180","2","CORN CROP","Left","200","180","4","THISTLE WEED","experimental","27","1,2,3,4","180,172.45590041882622,180,158.5085202873517","2,1,2,1","CORN CROP,CORN CROP,WHEAT CROP,WHEAT CROP","180,183.22529982843122,166.2462443462721,196.41623064845493","4,3,2,1","THISTLE WEED,THISTLE WEED,THISTLE WEED,THISTLE WEED","20,20,20,20","20,20,20,20","10,10,10,10","20,20,20,20","0,0,0,0","20,20,20,20","20,20,20,20","20,20,20,20","10,10,10,10","20,20,20,20","0,0,0,0","20,20,20,20","1,1,1,1","9726,564,2663,1511","-7.544099581173783,-18.182519463754694,-21.4914797126483,31.132165750770525","3.225299828431229,-16.979055482159104,30.169986302182824,0.4253386290053884","0","0"
"659","86","text","0","81","1079528","0-0","","","","","","","","","","","","","","","","","","","","","","","","","","","","","","","","","","","","",""
"","","plant-game","0","82","1094664","0-0","","200","120","2","WHEAT CROP","Right","200","180","4","NETTLE WEED","experimental","28","1,2,3,4","180,218.8217234291369,237.6019111435892,228.53514203955612","4,3,2,1","NETTLE WEED,NETTLE WEED,NETTLE WEED,NETTLE WEED","120,120.63846550888064,180,190.35401291766783","2,1,2,1","WHEAT CROP,WHEAT CROP,CORN CROP,CORN CROP","0,0,0,0","20,20,20,20","10,10,10,10","20,20,20,20","20,20,20,20","20,20,20,20","0,0,0,0","20,20,20,20","10,10,10,10","20,20,20,20","20,20,20,20","20,20,20,20","1,0,0,0","2688,2478,2222,707","38.821723429136924,18.78018771445229,-9.066769104033082,3.1856442170386683","0.6384655088806426,-9.608411577608898,10.35401291766782,-2.49267689359749","0","0"
"624","86","text","0","83","1095478","0-0","","","","","","","","","","","","","","","","","","","","","","","","","","","","","","","","","","","","",""
"","","plant-game","0","84","1119977","0-0","","200","180","2","WHEAT CROP","Right","200","160","8","THISTLE WEED","experimental","29","1,2,3,4,5,6,7,8","160,156.98814344549342,157.68620526956389,175.11979833780833,179.7783350083469,210.93343379563248,203.70469046789594,187.76686086892738","8,7,6,5,4,3,2,1","THISTLE WEED,THISTLE WEED,THISTLE WEED,THISTLE WEED,THISTLE WEED,THISTLE WEED,THISTLE WEED,THISTLE WEED","180,155.56470949531123,140,153.78022748968894,180.01062913696353,173.07733978399074,163.8260526298883,164.47298438885875","2,1,6,5,4,3,2,1","WHEAT CROP,WHEAT CROP,CORN CROP,CORN CROP,CORN CROP,CORN CROP,CORN CROP,CORN CROP","0,0,0,0,0,0,0,0","20,20,20,20,20,20,20,20","10,10,10,10,10,10,10,10","20,20,20,20,20,20,20,20","20,20,20,20,20,20,20,20","20,20,20,20,20,20,20,20","0,0,0,0,0,0,0,0","20,20,20,20,20,20,20,20","10,10,10,10,10,10,10,10","20,20,20,20,20,20,20,20","20,20,20,20,20,20,20,20","20,20,20,20,20,20,20,20","0,1,0,0,1,0,0,0","6005,2004,1996,620,1858,2236,416,1820","-3.0118565545065925,0.6980618240704715,17.433593068244456,4.658536670538561,31.15509878728561,-7.228743327736533,-15.937829598968566,-6.934857633623467","-24.435290504688766,27.530761633348796,13.780227489688928,26.230401647274597,-6.933289352972789,-9.251287154102434,0.6469317589704509,14.906644169130637","0","0"
"96","86","text","0","85","1120243","0-0","","","","","","","","","","","","","","","","","","","","","","","","","","","","","","","","","","","","",""
"","","plant-game","0","86","1136580","0-0","","200","120","4","WHEAT CROP","Left","200","190","1","THISTLE WEED","experimental","30","1,2,3,4","120,152.8966292954379,177.3029246354162,203.02820778458994","4,3,2,1","WHEAT CROP,WHEAT CROP,WHEAT CROP,WHEAT CROP","190,170,171.92675066202486,175.71733246380174","1,3,2,1","THISTLE WEED,NETTLE WEED,NETTLE WEED,NETTLE WEED","20,20,20,20","20,20,20,20","10,10,10,10","20,20,20,20","0,0,0,0","20,20,20,20","20,20,20,20","20,20,20,20","10,10,10,10","20,20,20,20","0,0,0,0","20,20,20,20","0,0,0,0","4387,1784,927,615","32.89662929543789,24.406295339978303,25.725283149173762,17.506530299005526","7.61758304263628,1.9267506620248724,3.7905818017768773,20.547826441384508","0","0"
"760","86","text","0","87","1137450","0-0","","","","","","","","","","","","","","","","","","","","","","","","","","","","","","","","","","","","",""
"","","plant-game","0","88","1157219","0-0","","200","180","8","CORN CROP","Right","200","180","4","NETTLE WEED","experimental","31","1,2,3,4,5,6,7,8","180,213.13266023740428,207.77798114684077,246.95229326431752,160,187.36973860126878,195.54271978764362,184.74655418394275","4,3,2,1,4,3,2,1","NETTLE WEED,NETTLE WEED,NETTLE WEED,NETTLE WEED,THISTLE WEED,THISTLE WEED,THISTLE WEED,THISTLE WEED","180,157.79389858688901,145.38532218198148,152.16963124240868,167.5753842068336,196.31605127412487,217.65692761493494,209.8209641361058","8,7,6,5,4,3,2,1","CORN CROP,CORN CROP,CORN CROP,CORN CROP,CORN CROP,CORN CROP,CORN CROP,CORN CROP","0,0,0,0,0,0,0,0","20,20,20,20,20,20,20,20","10,10,10,10,10,10,10,10","20,20,20,20,20,20,20,20","20,20,20,20,20,20,20,20","20,20,20,20,20,20,20,20","0,0,0,0,0,0,0,0","20,20,20,20,20,20,20,20","10,10,10,10,10,10,10,10","20,20,20,20,20,20,20,20","20,20,20,20,20,20,20,20","20,20,20,20,20,20,20,20","0,1,1,1,0,1,0,1","2135,3289,718,872,2484,1797,1484,1072","33.13266023740428,-5.354679090563508,39.174312117476745,22.33615047786467,27.36973860126878,8.17298118637484,-10.796165603700862,5.185598640365331","-22.206101413110993,-12.408576404907528,6.7843090604272085,15.405752964424927,28.74066706729128,21.340876340810066,-7.835963478829139,21.175344936340565","0","0"
"847","86","text","0","89","1158186","0-0","","","","","","","","","","","","","","","","","","","","","","","","","","","","","","","","","","","","",""
"","","plant-game","0","90","1171322","0-0","","200","160","4","CORN CROP","Right","200","180","1","THISTLE WEED","experimental","32","1,2,3,4","180,170,189.57252558246927,175.21658506010573","1,3,2,1","THISTLE WEED,NETTLE WEED,NETTLE WEED,NETTLE WEED","160,131.5442035723405,168.0420539787066,163.98874717455422","4,3,2,1","CORN CROP,CORN CROP,CORN CROP,CORN CROP","0,0,0,0","20,20,20,20","10,10,10,10","20,20,20,20","20,20,20,20","20,20,20,20","0,0,0,0","20,20,20,20","10,10,10,10","20,20,20,20","20,20,20,20","20,20,20,20","0,1,0,1","1455,1361,877,1121","14.898791226135726,19.572525582469265,-14.355940522363536,44.472447170516546","-28.45579642765948,36.4978504063661,-4.053306804152382,40.724447447334995","0","0"
"38346","86","text","0","91","1209793","0-0","","","","","","","","","","","","","","","","","","","","","","","","","","","","","","","","","","","","",""
"","","plant-game","0","92","1251492","0-0","","200","160","2","CORN CROP","Left","200","160","1","THISTLE WEED","experimental","33","1,2","160,160.87178832436902","2,1","CORN CROP,CORN CROP","160,190","1,1","THISTLE WEED,NETTLE WEED","20,20","20,20","10,10","20,20","0,0","20,20","20,20","20,20","10,10","20,20","0,0","20,20","0,0","34212,713","0.8717883243690316,30.74773182205866","28.974268868673,27.223851442583033","0","0"
"621","86","text","0","93","1252280","0-0","","","","","","","","","","","","","","","","","","","","","","","","","","","","","","","","","","","","",""
"","","plant-game","0","94","1257301","0-0","","200","120","4","WHEAT CROP","Left","200","190","4","THISTLE WEED","experimental","34","1,2,3,4","120,139.68087289261754,123.99491317395645,120.51850513369023","4,3,2,1","WHEAT CROP,WHEAT CROP,WHEAT CROP,WHEAT CROP","190,218.9232401290064,213.40070183673396,209.101627100931","4,3,2,1","THISTLE WEED,THISTLE WEED,THISTLE WEED,THISTLE WEED","20,20,20,20","20,20,20,20","10,10,10,10","20,20,20,20","0,0,0,0","20,20,20,20","20,20,20,20","20,20,20,20","10,10,10,10","20,20,20,20","0,0,0,0","20,20,20,20","0,1,1,1","807,898,338,161","19.680872892617547,-15.685959718661099,-3.476408040266217,15.792412569709793","28.923240129006373,-5.522538292272441,-4.299074735802934,17.992595506442207","0","0"
"520","86","text","0","95","1257955","0-0","","","","","","","","","","","","","","","","","","","","","","","","","","","","","","","","","","","","",""
"","","plant-game","0","96","1268877","0-0","","200","180","4","CORN CROP","Right","200","120","1","THISTLE WEED","experimental","35","1,2,3,4","120,170,143.47661276687924,142.7786832483134","1,3,2,1","THISTLE WEED,NETTLE WEED,NETTLE WEED,NETTLE WEED","180,166.686216040949,173.94132896813187,175.02054523586617","4,3,2,1","CORN CROP,CORN CROP,CORN CROP,CORN CROP","0,0,0,0","20,20,20,20","10,10,10,10","20,20,20,20","20,20,20,20","20,20,20,20","0,0,0,0","20,20,20,20","10,10,10,10","20,20,20,20","20,20,20,20","20,20,20,20","0,0,0,1","1190,833,589,589","-13.57489464652862,-26.523387233120754,-0.6979295185658312,32.961907544950904","-13.313783959050998,7.255112927182853,1.0792162677342907,25.653768069671095","0","0"
"829","86","text","0","97","1269866","0-0","","","","","","","","","","","","","","","","","","","","","","","","","","","","","","","","","","","","",""
"","","plant-game","0","98","1281803","0-0","","200","160","2","CORN CROP","Right","200","180","1","NETTLE WEED","experimental","36","1,2","180,190","1,1","NETTLE WEED,THISTLE WEED","160,147.74123695465744","2,1","CORN CROP,CORN CROP","0,0","20,20","10,10","20,20","20,20","20,20","0,0","20,20","10,10","20,20","20,20","20,20","0,1","1488,3673","3.7782440422163504,29.062184912475693","-12.258763045342569,11.692168333553601","0","0"
"117","86","text","0","99","1282060","0-0","","","","","","","","","","","","","","","","","","","","","","","","","","","","","","","","","","","","",""
"","","plant-game","0","100","1293544","0-0","","200","160","2","CORN CROP","Right","200","190","4","NETTLE WEED","experimental","37","1,2,3,4","190,189.96538964845504,189.08487151746195,195.2868349186169","4,3,2,1","NETTLE WEED,NETTLE WEED,NETTLE WEED,NETTLE WEED","160,179.76423129296398,180,179.38794114619236","2,1,2,1","CORN CROP,CORN CROP,WHEAT CROP,WHEAT CROP","0,0,0,0","20,20,20,20","10,10,10,10","20,20,20,20","20,20,20,20","20,20,20,20","0,0,0,0","20,20,20,20","10,10,10,10","20,20,20,20","20,20,20,20","20,20,20,20","0,0,0,0","1342,521,974,2155","-0.03461035154495343,-0.8805181309930818,6.201963401154968,15.742134813105505","19.764231292963977,5.437851978511807,-0.6120588538076505,-18.14039079212109","0","0"
"4957","86","text","0","101","1298681","0-0","","","","","","","","","","","","","","","","","","","","","","","","","","","","","","","","","","","","",""
"","","plant-game","0","102","1313834","0-0","","200","180","1","WHEAT CROP","Left","200","190","2","THISTLE WEED","experimental","38","1,2","180,190","1,1","WHEAT CROP,CORN CROP","190,211.18808791345907","2,1","THISTLE WEED,THISTLE WEED","20,20","20,20","10,10","20,20","0,0","20,20","20,20","20,20","10,10","20,20","0,0","20,20","0,1","9633,903","16.394916416098024,8.137838592841698","21.188087913459068,-22.654454044602097","0","0"
"596","86","text","0","103","1314644","0-0","","","","","","","","","","","","","","","","","","","","","","","","","","","","","","","","","","","","",""
"","","plant-game","0","104","1322932","0-0","","200","120","2","CORN CROP","Left","200","160","2","NETTLE WEED","experimental","39","1,2","120,162.9190680381261","2,1","CORN CROP,CORN CROP","160,153.3240362353672","2,1","NETTLE WEED,NETTLE WEED","20,20","20,20","10,10","20,20","0,0","20,20","20,20","20,20","10,10","20,20","0,0","20,20","0,0","2185,434","42.919068038126106,31.398339753330852","-6.675963764632783,-22.978481732235053","0","0"
"814","86","text","0","105","1323876","0-0","","","","","","","","","","","","","","","","","","","","","","","","","","","","","","","","","","","","",""
"","","plant-game","0","106","1336247","0-0","","200","160","1","CORN CROP","Left","200","160","4","THISTLE WEED","experimental","40","1,2,3,4","160,170,179.10725277613892,150.00157614077295","1,3,2,1","CORN CROP,WHEAT CROP,WHEAT CROP,WHEAT CROP","160,194.3121082953434,195.60807502427906,198.79667850774317","4,3,2,1","THISTLE WEED,THISTLE WEED,THISTLE WEED,THISTLE WEED","20,20,20,20","20,20,20,20","10,10,10,10","20,20,20,20","0,0,0,0","20,20,20,20","20,20,20,20","20,20,20,20","10,10,10,10","20,20,20,20","0,0,0,0","20,20,20,20","0,1,1,0","908,1960,1189,866","47.916836317221254,9.107252776138907,-29.105676635365967,18.296029288116543","34.3121082953434,1.295966728935674,3.188603483464099,-2.729508920076693","0","0"
"647","86","text","0","107","1337064","0-0","","","","","","","","","","","","","","","","","","","","","","","","","","","","","","","","","","","","",""
"","","plant-game","0","108","1355253","0-0","","200","190","8","CORN CROP","Left","200","160","2","THISTLE WEED","experimental","41","1,2,3,4,5,6,7,8","190,219.32693203714234,243.83408013408237,261.9916444073547,315.99944152282177,363.5897331724852,336.1443892573519,318.20309906888264","8,7,6,5,4,3,2,1","CORN CROP,CORN CROP,CORN CROP,CORN CROP,CORN CROP,CORN CROP,CORN CROP,CORN CROP","160,192.4075367507409,140,150.84850381880477,171.7134657173294,181.88602545232735,168.92885410641918,181.3366416431478","2,1,6,5,4,3,2,1","THISTLE WEED,THISTLE WEED,NETTLE WEED,NETTLE WEED,NETTLE WEED,NETTLE WEED,NETTLE WEED,NETTLE WEED","20,20,20,20,20,20,20,20","20,20,20,20,20,20,20,20","10,10,10,10,10,10,10,10","20,20,20,20,20,20,20,20","0,0,0,0,0,0,0,0","20,20,20,20,20,20,20,20","20,20,20,20,20,20,20,20","20,20,20,20,20,20,20,20","10,10,10,10,10,10,10,10","20,20,20,20,20,20,20,20","0,0,0,0,0,0,0,0","20,20,20,20,20,20,20,20","0,1,0,0,0,1,1,1","1916,3509,1783,584,382,910,813,1249","29.32693203714235,24.507148096940018,18.157564273272353,54.007797115467035,47.59029164966343,-27.445343915133286,-17.941290188469306,-7.568488184072828","32.40753675074089,9.935347781209229,10.848503818804758,20.864961898524633,10.172559734997948,-12.95717134590818,12.407787536728613,4.503716122164857","0","0"
"91","86","text","0","109","1355484","0-0","","","","","","","","","","","","","","","","","","","","","","","","","","","","","","","","","","","","",""
"","","plant-game","0","110","1363831","0-0","","200","180","1","CORN CROP","Right","200","180","2","THISTLE WEED","experimental","42","1,2","180,141.53296384228412","2,1","THISTLE WEED,THISTLE WEED","180,190","1,1","CORN CROP,WHEAT CROP","0,0","20,20","10,10","20,20","20,20","20,20","0,0","20,20","10,10","20,20","20,20","20,20","0,0","766,991","-38.46703615771587,-5.884759850542637","6.1028584504884185,-7.556619034917031","0","0"
"551","86","text","0","111","1364523","0-0","","","","","","","","","","","","","","","","","","","","","","","","","","","","","","","","","","","","",""
"","","plant-game","0","112","1374312","0-0","","200","190","1","CORN CROP","Left","200","180","4","NETTLE WEED","experimental","43","1,2,3,4","190,170,179.7707817457351,206.79796457527848","1,3,2,1","CORN CROP,WHEAT CROP,WHEAT CROP,WHEAT CROP","180,159.48811853585335,158.37487473155255,203.49972785757421","4,3,2,1","NETTLE WEED,NETTLE WEED,NETTLE WEED,NETTLE WEED","20,20,20,20","20,20,20,20","10,10,10,10","20,20,20,20","0,0,0,0","20,20,20,20","20,20,20,20","20,20,20,20","10,10,10,10","20,20,20,20","0,0,0,0","20,20,20,20","1,0,0,1","1225,764,339,1410","-11.981931551305099,9.770781745735103,27.02718282954338,-25.29202874112883","-20.51188146414666,-1.1132438043008044,45.12485312602168,8.499899283786847","0","0"
"144","86","text","0","113","1374602","0-0","","","","","","","","","","","","","","","","","","","","","","","","","","","","","","","","","","","","",""
"","","plant-game","0","114","1384846","0-0","","200","160","8","CORN CROP","Left","200","190","2","NETTLE WEED","experimental","44","1,2,3,4,5,6,7,8","160,143.54434202047028,181.47842541784368,174.75651240626678,183.5549212072853,178.225946061513,188.0828517575234,220.89437452538422","8,7,6,5,4,3,2,1","CORN CROP,CORN CROP,CORN CROP,CORN CROP,CORN CROP,CORN CROP,CORN CROP,CORN CROP","190,198.447296532891,140,133.76488185849234,195.80823242591046,219.90688642692126,242.93133489376746,223.38958599196582","2,1,6,5,4,3,2,1","NETTLE WEED,NETTLE WEED,THISTLE WEED,THISTLE WEED,THISTLE WEED,THISTLE WEED,THISTLE WEED,THISTLE WEED","20,20,20,20,20,20,20,20","20,20,20,20,20,20,20,20","10,10,10,10,10,10,10,10","20,20,20,20,20,20,20,20","0,0,0,0,0,0,0,0","20,20,20,20,20,20,20,20","20,20,20,20,20,20,20,20","20,20,20,20,20,20,20,20","10,10,10,10,10,10,10,10","20,20,20,20,20,20,20,20","0,0,0,0,0,0,0,0","20,20,20,20,20,20,20,20","1,0,1,0,0,1,0,0","416,620,777,436,228,564,1020,138","-16.455657979529718,37.9340833973734,-6.721913011576897,8.798408801018518,-5.328975145772294,9.85690569601038,32.811522767860815,30.590501738457647","8.447296532890984,21.289409136334854,-6.235118141507666,62.04335056741812,24.098654001010807,23.024448466846195,-19.541748901801625,-14.584246236814934","0","0"
"188","86","text","0","115","1385184","0-0","","","","","","","","","","","","","","","","","","","","","","","","","","","","","","","","","","","","",""
"","","plant-game","0","116","1392373","0-0","","200","160","4","WHEAT CROP","Right","200","120","1","NETTLE WEED","experimental","45","1,2,3,4","120,170,230.02027436139355,282.80234847175586","1,3,2,1","NETTLE WEED,THISTLE WEED,THISTLE WEED,THISTLE WEED","160,157.41775476393366,176.7192270167714,167.07486854252753","4,3,2,1","WHEAT CROP,WHEAT CROP,WHEAT CROP,WHEAT CROP","0,0,0,0","20,20,20,20","10,10,10,10","20,20,20,20","20,20,20,20","20,20,20,20","0,0,0,0","20,20,20,20","10,10,10,10","20,20,20,20","20,20,20,20","20,20,20,20","0,1,1,1","359,643,227,744","-2.2097766526499947,60.02027436139355,52.78207411036234,2.932957997491968","-2.5822452360663317,19.301472252837765,-9.644358474243898,21.94046943789459","0","0"
"121","86","text","0","117","1392661","0-0","","","","","","","","","","","","","","","","","","","","","","","","","","","","","","","","","","","","",""
"","","plant-game","0","118","1403192","0-0","","200","190","2","WHEAT CROP","Right","200","120","8","NETTLE WEED","experimental","46","1,2,3,4,5,6,7,8","120,119.66593027540996,117.23978395661644,154.07726541678082,159.00507672340896,146.542138480988,174.97778550693818,204.95892537266013","8,7,6,5,4,3,2,1","NETTLE WEED,NETTLE WEED,NETTLE WEED,NETTLE WEED,NETTLE WEED,NETTLE WEED,NETTLE WEED,NETTLE WEED","190,166.58348515621915,140,165.10228277580543,196.19420687116477,209.38351353592392,256.64118238290666,307.16344948091415","2,1,6,5,4,3,2,1","WHEAT CROP,WHEAT CROP,CORN CROP,CORN CROP,CORN CROP,CORN CROP,CORN CROP,CORN CROP","0,0,0,0,0,0,0,0","20,20,20,20,20,20,20,20","10,10,10,10,10,10,10,10","20,20,20,20,20,20,20,20","20,20,20,20,20,20,20,20","20,20,20,20,20,20,20,20","0,0,0,0,0,0,0,0","20,20,20,20,20,20,20,20","10,10,10,10,10,10,10,10","20,20,20,20,20,20,20,20","20,20,20,20,20,20,20,20","20,20,20,20,20,20,20,20","0,0,1,1,1,1,1,1","515,932,947,387,334,312,314,420","-0.33406972459003115,-2.4261463187935237,36.83748146016439,4.927811306628131,-12.462938242420975,28.435647025950164,29.98113986572195,15.905093797140964","-23.416514843780835,-2.065393541296307,25.102282775805435,31.09192409535934,13.18930666475917,47.25766884698275,50.52226709800749,18.25349067710534","0","0"
"40","86","text","0","119","1403479","0-0","","","","","","","","","","","","","","","","","","","","","","","","","","","","","","","","","","","","",""
"","","plant-game","0","120","1413905","0-0","","200","190","1","WHEAT CROP","Right","200","120","8","THISTLE WEED","experimental","47","1,2,3,4,5,6,7,8","120,145.08255398296734,147.42478708233156,182.05644942886715,213.7057385624381,238.62657234717113,255.42707582797127,229.20594986193603","8,7,6,5,4,3,2,1","THISTLE WEED,THISTLE WEED,THISTLE WEED,THISTLE WEED,THISTLE WEED,THISTLE WEED,THISTLE WEED,THISTLE WEED","190,130,138.98300855631234,147.07775405898715,146.2338736157,199.54614353994234,216.91461332209045,203.21417629819933","1,7,6,5,4,3,2,1","WHEAT CROP,CORN CROP,CORN CROP,CORN CROP,CORN CROP,CORN CROP,CORN CROP,CORN CROP","0,0,0,0,0,0,0,0","20,20,20,20,20,20,20,20","10,10,10,10,10,10,10,10","20,20,20,20,20,20,20,20","20,20,20,20,20,20,20,20","20,20,20,20,20,20,20,20","0,0,0,0,0,0,0,0","20,20,20,20,20,20,20,20","10,10,10,10,10,10,10,10","20,20,20,20,20,20,20,20","20,20,20,20,20,20,20,20","20,20,20,20,20,20,20,20","0,0,0,0,1,1,1,1","951,940,374,171,1252,316,202,93","25.08255398296734,2.3422330993642353,34.63166234653558,31.649289133570967,24.920833784733034,16.800503480800124,-26.221125966035224,14.784819784266881","23.28745779043382,8.98300855631233,8.094745502674801,-0.8438804432871752,53.31226992424234,17.368469782148104,-13.70043702389112,19.0278511399599","0","0"
"93","86","text","0","121","1414168","0-0","","","","","","","","","","","","","","","","","","","","","","","","","","","","","","","","","","","","",""
"","","plant-game","0","122","1424100","0-0","","200","120","2","CORN CROP","Left","200","160","8","NETTLE WEED","experimental","48","1,2,3,4,5,6,7,8","120,107.94104861502517,140,143.11070684524728,158.62839632588907,178.0107324862614,179.8057361621858,199.75103644138346","2,1,6,5,4,3,2,1","CORN CROP,CORN CROP,WHEAT CROP,WHEAT CROP,WHEAT CROP,WHEAT CROP,WHEAT CROP,WHEAT CROP","160,143.40148046934465,169.35099011737702,177.78374317862662,186.7908822737075,165.5426453984515,182.88334714497532,190.6035359717085","8,7,6,5,4,3,2,1","NETTLE WEED,NETTLE WEED,NETTLE WEED,NETTLE WEED,NETTLE WEED,NETTLE WEED,NETTLE WEED,NETTLE WEED","20,20,20,20,20,20,20,20","20,20,20,20,20,20,20,20","10,10,10,10,10,10,10,10","20,20,20,20,20,20,20,20","0,0,0,0,0,0,0,0","20,20,20,20,20,20,20,20","20,20,20,20,20,20,20,20","20,20,20,20,20,20,20,20","10,10,10,10,10,10,10,10","20,20,20,20,20,20,20,20","0,0,0,0,0,0,0,0","20,20,20,20,20,20,20,20","1,1,0,0,1,1,0,1","491,162,824,216,333,383,831,693","-12.058951384974836,-30.290859808814922,3.1107068452472717,15.517689480641785,19.382336160372326,1.7950036759244177,19.945300279197653,11.837854500841642","-16.59851953065535,25.949509648032386,8.432753061249612,9.007139095080865,-21.248236875256012,17.340701746523827,7.7201888267331995,-9.397284712026009","0","0"
"180","86","text","0","123","1424500","0-0","","","","","","","","","","","","","","","","","","","","","","","","","","","","","","","","","","","","",""
"","","plant-game","0","124","1431246","0-0","","200","120","1","WHEAT CROP","Right","200","120","2","NETTLE WEED","experimental","49","1,2","120,119.07202548627048","2,1","NETTLE WEED,NETTLE WEED","120,190","1,1","WHEAT CROP,CORN CROP","0,0","20,20","10,10","20,20","20,20","20,20","0,0","20,20","10,10","20,20","20,20","20,20","0,0","466,594","-0.9279745137295239,24.162032433752763","-36.950321685373936,-6.413726208608724","0","0"
"753","86","text","0","125","1432139","0-0","","","","","","","","","","","","","","","","","","","","","","","","","","","","","","","","","","","","",""
"","","plant-game","0","126","1437775","0-0","","200","190","4","WHEAT CROP","Right","200","160","4","NETTLE WEED","experimental","50","1,2,3,4","160,145.7503903876367,169.92083513021706,146.19913414440134","4,3,2,1","NETTLE WEED,NETTLE WEED,NETTLE WEED,NETTLE WEED","190,223.56704129845525,187.8678579373405,233.55827402264458","4,3,2,1","WHEAT CROP,WHEAT CROP,WHEAT CROP,WHEAT CROP","0,0,0,0","20,20,20,20","10,10,10,10","20,20,20,20","20,20,20,20","20,20,20,20","0,0,0,0","20,20,20,20","10,10,10,10","20,20,20,20","20,20,20,20","20,20,20,20","0,0,0,0","838,447,337,575","-14.249609612363281,24.170444742580344,-23.721700985815723,15.136524586783683","33.567041298455266,-35.69918336111476,45.690416085304086,0.8743114920743722","0","0"
"102","86","text","0","127","1437998","0-0","","","","","","","","","","","","","","","","","","","","","","","","","","","","","","","","","","","","",""
"","","plant-game","0","128","1442655","0-0","","200","180","4","WHEAT CROP","Right","200","160","4","THISTLE WEED","experimental","51","1,2,3,4","160,135.7177892718279,127.10577136242898,113.56614260120392","4,3,2,1","THISTLE WEED,THISTLE WEED,THISTLE WEED,THISTLE WEED","180,220.35129047828022,219.31812179773084,226.1976308164564","4,3,2,1","WHEAT CROP,WHEAT CROP,WHEAT CROP,WHEAT CROP","0,0,0,0","20,20,20,20","10,10,10,10","20,20,20,20","20,20,20,20","20,20,20,20","0,0,0,0","20,20,20,20","10,10,10,10","20,20,20,20","20,20,20,20","20,20,20,20","0,0,0,0","478,720,344,167","-24.282210728172096,-8.612017909398924,-13.539628761225067,33.885671547901424","40.35129047828021,-1.0331686805493794,6.879509018725577,11.49523935702933","0","0"
"159","86","text","0","129","1442895","0-0","","","","","","","","","","","","","","","","","","","","","","","","","","","","","","","","","","","","",""
"","","plant-game","0","130","1452120","0-0","","200","180","2","CORN CROP","Left","200","180","1","THISTLE WEED","experimental","52","1,2","180,208.86718448622892","2,1","CORN CROP,CORN CROP","180,190","1,1","THISTLE WEED,NETTLE WEED","20,20","20,20","10,10","20,20","0,0","20,20","20,20","20,20","10,10","20,20","0,0","20,20","0,0","375,4040","28.867184486228922,10.603014033350131","14.016899155559393,59.28450986251683","0","0"
"93","86","text","0","131","1452323","0-0","","","","","","","","","","","","","","","","","","","","","","","","","","","","","","","","","","","","",""
"","","plant-game","0","132","1468549","0-0","","200","180","8","WHEAT CROP","Right","200","160","2","THISTLE WEED","experimental","53","1,2,3,4,5,6,7,8","160,167.9796388540731,140,142.92510986520494,121.87099170848184,97.85038222599829,66.74577315461661,84.33764666184369","2,1,6,5,4,3,2,1","THISTLE WEED,THISTLE WEED,NETTLE WEED,NETTLE WEED,NETTLE WEED,NETTLE WEED,NETTLE WEED,NETTLE WEED","180,194.11453397082644,172.31520371510524,172.20776806636937,172.67011494688455,190.51082830783852,205.52057482002022,224.02864616215965","8,7,6,5,4,3,2,1","WHEAT CROP,WHEAT CROP,WHEAT CROP,WHEAT CROP,WHEAT CROP,WHEAT CROP,WHEAT CROP,WHEAT CROP","0,0,0,0,0,0,0,0","20,20,20,20,20,20,20,20","10,10,10,10,10,10,10,10","20,20,20,20,20,20,20,20","20,20,20,20,20,20,20,20","20,20,20,20,20,20,20,20","0,0,0,0,0,0,0,0","20,20,20,20,20,20,20,20","10,10,10,10,10,10,10,10","20,20,20,20,20,20,20,20","20,20,20,20,20,20,20,20","20,20,20,20,20,20,20,20","0,0,0,0,0,0,0,0","859,631,757,1444,595,974,453,485","7.979638854073113,-10.590638080571788,2.9251098652049534,-21.054118156723106,-24.020609482483554,-31.104609071381674,17.591873507227078,-17.998251892435903","14.114533970826441,-21.799330255721205,-0.10743564873586092,0.4623468805151748,17.840713360953977,15.009746512181707,18.50807134213942,-21.634496163314118","1","0"
"624","86","text","0","133","1469323","0-0","","","","","","","","","","","","","","","","","","","","","","","","","","","","","","","","","","","","",""
"","","plant-game","0","134","1476370","0-0","","200","180","2","CORN CROP","Right","200","160","1","THISTLE WEED","experimental","54","1,2","160,190","1,1","THISTLE WEED,NETTLE WEED","180,217.55880852546142","2,1","CORN CROP,CORN CROP","0,0","20,20","10,10","20,20","20,20","20,20","0,0","20,20","10,10","20,20","20,20","20,20","0,0","604,979","2.434233888334968,-7.98390928352707","37.55880852546141,-2.8135801661631357","0","0"
"726","86","text","0","135","1477246","0-0","","","","","","","","","","","","","","","","","","","","","","","","","","","","","","","","","","","","",""
"","","plant-game","0","136","1486199","0-0","","200","180","8","WHEAT CROP","Left","200","120","8","THISTLE WEED","experimental","55","1,2,3,4,5,6,7,8","180,190.96177993691325,230.15055644628072,269.2291294554734,289.15907546766783,300.30637838259173,303.2068064868648,313.1581138263685","8,7,6,5,4,3,2,1","WHEAT CROP,WHEAT CROP,WHEAT CROP,WHEAT CROP,WHEAT CROP,WHEAT CROP,WHEAT CROP,WHEAT CROP","120,140.4187329564527,154.98177667698147,179.8120611631506,158.1717742128869,216.39365056102537,238.7245512408873,270.18500969394455","8,7,6,5,4,3,2,1","THISTLE WEED,THISTLE WEED,THISTLE WEED,THISTLE WEED,THISTLE WEED,THISTLE WEED,THISTLE WEED,THISTLE WEED","20,20,20,20,20,20,20,20","20,20,20,20,20,20,20,20","10,10,10,10,10,10,10,10","20,20,20,20,20,20,20,20","0,0,0,0,0,0,0,0","20,20,20,20,20,20,20,20","20,20,20,20,20,20,20,20","20,20,20,20,20,20,20,20","10,10,10,10,10,10,10,10","20,20,20,20,20,20,20,20","0,0,0,0,0,0,0,0","20,20,20,20,20,20,20,20","0,0,0,0,0,0,1,0","574,1206,423,157,527,367,722,649","10.96177993691325,39.18877650936747,39.0785730091927,19.929946012194428,11.147302914923877,2.900428104273061,9.951307339503687,23.508796820049312","20.418732956452693,14.56304372052878,24.830284486169127,-21.64028695026368,58.22187634813846,22.330900679861955,31.460458453057264,27.863871676741937","0","0"
"612","86","text","0","137","1486974","0-0","","","","","","","","","","","","","","","","","","","","","","","","","","","","","","","","","","","","",""
"","","plant-game","0","138","1496736","0-0","","200","180","4","WHEAT CROP","Right","200","180","2","THISTLE WEED","experimental","56","1,2,3,4","180,192.3761631308787,180,202.43466274038633","2,1,2,1","THISTLE WEED,THISTLE WEED,NETTLE WEED,NETTLE WEED","180,187.95800300914084,205.43235208965677,209.9529389836992","4,3,2,1","WHEAT CROP,WHEAT CROP,WHEAT CROP,WHEAT CROP","0,0,0,0","20,20,20,20","10,10,10,10","20,20,20,20","20,20,20,20","20,20,20,20","0,0,0,0","20,20,20,20","10,10,10,10","20,20,20,20","20,20,20,20","20,20,20,20","0,0,0,1","992,348,852,755","12.376163130878709,9.677600915519633,22.43466274038632,47.98169647428736","7.958003009140836,17.474349080515946,4.520586894042435,26.355812217345232","0","0"
"197","86","text","0","139","1497053","0-0","","","","","","","","","","","","","","","","","","","","","","","","","","","","","","","","","","","","",""
"","","plant-game","0","140","1503138","0-0","","200","120","8","WHEAT CROP","Right","200","180","8","NETTLE WEED","experimental","57","1,2,3,4,5,6,7,8","180,198.67829928807228,210.94087044908207,196.48500615729424,219.48951392810437,218.51592407543328,231.96965627483695,258.35897479066506","8,7,6,5,4,3,2,1","NETTLE WEED,NETTLE WEED,NETTLE WEED,NETTLE WEED,NETTLE WEED,NETTLE WEED,NETTLE WEED,NETTLE WEED","120,113.5401032722891,120.08079561744145,151.88738269431158,163.93550232009267,183.5432756752333,214.1700986013351,212.2168977240573","8,7,6,5,4,3,2,1","WHEAT CROP,WHEAT CROP,WHEAT CROP,WHEAT CROP,WHEAT CROP,WHEAT CROP,WHEAT CROP,WHEAT CROP","0,0,0,0,0,0,0,0","20,20,20,20,20,20,20,20","10,10,10,10,10,10,10,10","20,20,20,20,20,20,20,20","20,20,20,20,20,20,20,20","20,20,20,20,20,20,20,20","0,0,0,0,0,0,0,0","20,20,20,20,20,20,20,20","10,10,10,10,10,10,10,10","20,20,20,20,20,20,20,20","20,20,20,20,20,20,20,20","20,20,20,20,20,20,20,20","0,0,1,1,1,1,1,1","603,168,577,222,142,306,214,484","18.678299288072274,12.26257116100978,-14.45586429178784,23.00450777081015,-0.9735898526710969,13.453732199403682,26.38931851582811,0.31493832337684324","-6.459896727710892,6.540692345152355,31.80658707687013,12.048119625781094,19.60777335514064,30.626822926101802,-1.9532008772777942,1.7228923999684014","0","0"
"76","86","text","0","141","1503354","0-0","","","","","","","","","","","","","","","","","","","","","","","","","","","","","","","","","","","","",""
"","","plant-game","0","142","1506637","0-0","","200","190","1","WHEAT CROP","Right","200","190","1","NETTLE WEED","experimental","58","1","190","1","NETTLE WEED","190","1","WHEAT CROP","0","20","10","20","20","20","0","20","10","20","20","20","1","429","13.805069462553059","25.794818258687613","0","0"
"95","86","text","0","143","1506862","0-0","","","","","","","","","","","","","","","","","","","","","","","","","","","","","","","","","","","","",""
"","","plant-game","0","144","1515149","0-0","","200","180","4","WHEAT CROP","Left","200","120","2","NETTLE WEED","experimental","59","1,2,3,4","180,213.97082910516727,213.51228472139886,199.80333012258671","4,3,2,1","WHEAT CROP,WHEAT CROP,WHEAT CROP,WHEAT CROP","120,124.13681915466437,180,219.1284193396216","2,1,2,1","NETTLE WEED,NETTLE WEED,THISTLE WEED,THISTLE WEED","20,20,20,20","20,20,20,20","10,10,10,10","20,20,20,20","0,0,0,0","20,20,20,20","20,20,20,20","20,20,20,20","10,10,10,10","20,20,20,20","0,0,0,0","20,20,20,20","0,0,0,1","567,760,581,589","33.970829105167276,-0.45854438376841955,-13.708954598812142,-2.64353611289285","4.136819154664362,-3.72567635502633,39.128419339621594,-3.499643134224406","0","0"
"664","86","text","0","145","1515888","0-0","","","","","","","","","","","","","","","","","","","","","","","","","","","","","","","","","","","","",""
"","","plant-game","0","146","1523661","0-0","","200","180","2","WHEAT CROP","Right","200","160","4","THISTLE WEED","experimental","60","1,2,3,4","160,179.05770866577848,195.3018036895143,213.4037216755598","4,3,2,1","THISTLE WEED,THISTLE WEED,THISTLE WEED,THISTLE WEED","180,195.83012639641964,180,152.68556977477152","2,1,2,1","WHEAT CROP,WHEAT CROP,CORN CROP,CORN CROP","0,0,0,0","20,20,20,20","10,10,10,10","20,20,20,20","20,20,20,20","20,20,20,20","0,0,0,0","20,20,20,20","10,10,10,10","20,20,20,20","20,20,20,20","20,20,20,20","0,0,1,0","851,207,1233,559","19.057708665778478,16.244095023735817,18.10191798604553,-1.4229579634289786","15.83012639641964,-19.602879115990056,-27.31443022522849,-13.794729814370445","0","0"
"2712","86","text","0","147","1526535","0-0","","","","","","","","","","","","","","","","","","","","","","","","","","","","","","","","","","","","",""
"","","plant-game","0","148","1531991","0-0","","200","160","2","CORN CROP","Left","200","180","2","THISTLE WEED","experimental","61","1,2","160,184.2673201990247","2,1","CORN CROP,CORN CROP","180,209.99797225816633","2,1","THISTLE WEED,THISTLE WEED","20,20","20,20","10,10","20,20","0,0","20,20","20,20","20,20","10,10","20,20","0,0","20,20","0,0","511,433","24.267320199024716,17.468344278688225","29.997972258166342,39.86304686502355","0","0"
"71","86","text","0","149","1532190","0-0","","","","","","","","","","","","","","","","","","","","","","","","","","","","","","","","","","","","",""
"","","plant-game","0","150","1546486","0-0","","200","120","2","CORN CROP","Left","200","190","8","THISTLE WEED","experimental","62","1,2,3,4,5,6,7,8","120,113.37091504335022,140,157.37411550487133,168.0631171156485,185.46920939081852,197.96780778738608,221.33515946163715","2,1,6,5,4,3,2,1","CORN CROP,CORN CROP,WHEAT CROP,WHEAT CROP,WHEAT CROP,WHEAT CROP,WHEAT CROP,WHEAT CROP","190,209.86983501986083,251.20670247977347,236.08853821031184,256.37395462654666,264.7530565079043,262.7414451309726,249.32978467189272","8,7,6,5,4,3,2,1","THISTLE WEED,THISTLE WEED,THISTLE WEED,THISTLE WEED,THISTLE WEED,THISTLE WEED,THISTLE WEED,THISTLE WEED","20,20,20,20,20,20,20,20","20,20,20,20,20,20,20,20","10,10,10,10,10,10,10,10","20,20,20,20,20,20,20,20","0,0,0,0,0,0,0,0","20,20,20,20,20,20,20,20","20,20,20,20,20,20,20,20","20,20,20,20,20,20,20,20","10,10,10,10,10,10,10,10","20,20,20,20,20,20,20,20","0,0,0,0,0,0,0,0","20,20,20,20,20,20,20,20","0,1,1,1,1,1,1,1","661,463,2007,291,602,262,190,543","-6.629084956649773,4.112174686064077,17.374115504871316,10.689001610777172,17.40609227517,12.498598396567566,23.367351674251083,22.227803048938583","19.869835019860822,41.33686745991264,-15.11816426946163,20.285416416234835,8.379101881357633,-2.011611376931754,-13.411660459079842,14.127634313763703","3","0"
"32","86","text","0","151","1546688","0-0","","","","","","","","","","","","","","","","","","","","","","","","","","","","","","","","","","","","",""
"","","plant-game","0","152","1550960","0-0","","200","180","2","CORN CROP","Right","200","160","2","NETTLE WEED","experimental","63","1,2","160,166.43619149229076","2,1","NETTLE WEED,NETTLE WEED","180,178.6118939305114","2,1","CORN CROP,CORN CROP","0,0","20,20","10,10","20,20","20,20","20,20","0,0","20,20","10,10","20,20","20,20","20,20","0,0","698,483","6.436191492290756,-0.6219883227616616","-1.3881060694885972,-6.0184927890748865","0","0"
"290","86","text","0","153","1551350","0-0","","","","","","","","","","","","","","","","","","","","","","","","","","","","","","","","","","","","",""
"","","plant-game","0","154","1554933","0-0","","200","190","1","CORN CROP","Right","200","160","1","NETTLE WEED","experimental","64","1","160","1","NETTLE WEED","190","1","CORN CROP","0","20","10","20","20","20","0","20","10","20","20","20","0","801","-12.050001319590466","4.63444232520612","0","0"
"187","86","text","0","155","1555180","0-0","","","","","","","","","","","","","","","","","","","","","","","","","","","","","","","","","","","","",""
"","","plant-game","0","156","1558293","0-0","","200","180","1","CORN CROP","Left","200","180","1","NETTLE WEED","experimental","65","1","180","1","CORN CROP","180","1","NETTLE WEED","20","20","10","20","0","20","20","20","10","20","0","20","0","354","0.8407099449598974","42.22394173220971","0","0"
"140","86","text","0","157","1558634","0-0","","","","","","","","","","","","","","","","","","","","","","","","","","","","","","","","","","","","",""
"","","plant-game","0","158","1569128","0-0","","200","120","4","WHEAT CROP","Left","200","190","8","THISTLE WEED","experimental","66","1,2,3,4,5,6,7,8","120,175.5352828748956,207.5930132277759,256.7957604888649,160,184.8493936198542,223.4280414716643,235.2933257447646","4,3,2,1,4,3,2,1","WHEAT CROP,WHEAT CROP,WHEAT CROP,WHEAT CROP,CORN CROP,CORN CROP,CORN CROP,CORN CROP","190,178.26766158062924,192.66465482368795,218.42273003194055,215.40084533814962,194.11973692999248,211.03043124667562,208.42443492643352","8,7,6,5,4,3,2,1","THISTLE WEED,THISTLE WEED,THISTLE WEED,THISTLE WEED,THISTLE WEED,THISTLE WEED,THISTLE WEED,THISTLE WEED","20,20,20,20,20,20,20,20","20,20,20,20,20,20,20,20","10,10,10,10,10,10,10,10","20,20,20,20,20,20,20,20","0,0,0,0,0,0,0,0","20,20,20,20,20,20,20,20","20,20,20,20,20,20,20,20","20,20,20,20,20,20,20,20","10,10,10,10,10,10,10,10","20,20,20,20,20,20,20,20","0,0,0,0,0,0,0,0","20,20,20,20,20,20,20,20","0,0,0,1,0,0,1,1","416,899,642,483,869,481,644,338","55.5352828748956,32.05773035288033,49.20274726108901,-24.103299561117574,24.849393619854204,38.57864785181012,11.865284273100293,3.843516994409521","-11.732338419370748,14.396993243058724,25.758075208252603,-3.0218846937909145,-21.281108408157145,16.910694316683127,-2.605996320242085,39.59464434194722","0","0"
"87","86","text","0","159","1569365","0-0","","","","","","","","","","","","","","","","","","","","","","","","","","","","","","","","","","","","",""
"","","plant-game","0","160","1574734","0-0","","200","160","4","CORN CROP","Left","200","160","4","THISTLE WEED","experimental","67","1,2,3,4","160,180.6477604668665,192.13993137362203,192.34478527816077","4,3,2,1","CORN CROP,CORN CROP,CORN CROP,CORN CROP","160,211.05698718737833,222.31554805745182,232.29504165163655","4,3,2,1","THISTLE WEED,THISTLE WEED,THISTLE WEED,THISTLE WEED","20,20,20,20","20,20,20,20","10,10,10,10","20,20,20,20","0,0,0,0","20,20,20,20","20,20,20,20","20,20,20,20","10,10,10,10","20,20,20,20","0,0,0,0","20,20,20,20","0,0,1,1","1146,168,381,207","20.647760466866487,11.492170906755543,0.2048539045387509,44.2600989686802","51.05698718737833,11.258560870073484,9.979493594184737,6.011021131394551","0","0"
"177","86","text","0","161","1575021","0-0","","","","","","","","","","","","","","","","","","","","","","","","","","","","","","","","","","","","",""
"","","plant-game","0","162","1585587","0-0","","200","190","8","WHEAT CROP","Right","200","180","2","THISTLE WEED","experimental","68","1,2,3,4,5,6,7,8","180,195.507140642187,140,129.86335997068915,156.68447686230527,153.46207857899293,192.2276049632628,232.18323033444847","2,1,6,5,4,3,2,1","THISTLE WEED,THISTLE WEED,NETTLE WEED,NETTLE WEED,NETTLE WEED,NETTLE WEED,NETTLE WEED,NETTLE WEED","190,190.0043850507736,193.41994187939883,188.35267558044345,207.00027562719134,236.84494655699004,264.667398680232,257.30555376295763","8,7,6,5,4,3,2,1","WHEAT CROP,WHEAT CROP,WHEAT CROP,WHEAT CROP,WHEAT CROP,WHEAT CROP,WHEAT CROP,WHEAT CROP","0,0,0,0,0,0,0,0","20,20,20,20,20,20,20,20","10,10,10,10,10,10,10,10","20,20,20,20,20,20,20,20","20,20,20,20,20,20,20,20","20,20,20,20,20,20,20,20","0,0,0,0,0,0,0,0","20,20,20,20,20,20,20,20","10,10,10,10,10,10,10,10","20,20,20,20,20,20,20,20","20,20,20,20,20,20,20,20","20,20,20,20,20,20,20,20","0,0,0,1,1,1,1,1","524,374,843,484,394,375,167,181","15.507140642187016,3.050860310306289,-10.13664002931084,26.82111689161612,-3.222398283312348,38.765526384269855,39.95562537118568,45.260721820279485","0.0043850507736189785,3.4155568286252187,-5.067266298955401,18.647600046747883,29.844670929798696,27.822452123241963,-7.361844917274389,4.268298651000418","0","0"
"84","86","text","0","163","1585801","0-0","","","","","","","","","","","","","","","","","","","","","","","","","","","","","","","","","","","","",""
"","","plant-game","0","164","1595772","0-0","","200","190","2","WHEAT CROP","Right","200","120","4","NETTLE WEED","experimental","69","1,2,3,4","120,140.01531469047598,171.53689809019656,168.1170798775166","4,3,2,1","NETTLE WEED,NETTLE WEED,NETTLE WEED,NETTLE WEED","190,199.12815243994697,180,206.92490508658355","2,1,2,1","WHEAT CROP,WHEAT CROP,CORN CROP,CORN CROP","0,0,0,0","20,20,20,20","10,10,10,10","20,20,20,20","20,20,20,20","20,20,20,20","0,0,0,0","20,20,20,20","10,10,10,10","20,20,20,20","20,20,20,20","20,20,20,20","1,1,1,1","541,98,778,397","20.015314690475982,31.52158339972059,-3.419818212679946,45.01113367445628","9.128152439946962,-10.074691166330531,26.924905086583554,34.250901233972435","0","0"
"247","86","text","0","165","1596122","0-0","","","","","","","","","","","","","","","","","","","","","","","","","","","","","","","","","","","","",""
"","","plant-game","0","166","1605427","0-0","","200","190","8","CORN CROP","Left","200","120","8","NETTLE WEED","experimental","70","1,2,3,4,5,6,7,8","190,246.68302055476175,214.28544369766456,211.7400054155393,259.1071084498807,311.04987652922927,316.89315608268663,379.0375672681231","8,7,6,5,4,3,2,1","CORN CROP,CORN CROP,CORN CROP,CORN CROP,CORN CROP,CORN CROP,CORN CROP,CORN CROP","120,113.51483217643853,165.2118021647584,148.58320291762396,186.00240524709352,236.38116000431197,255.71782707160492,269.05541096912975","8,7,6,5,4,3,2,1","NETTLE WEED,NETTLE WEED,NETTLE WEED,NETTLE WEED,NETTLE WEED,NETTLE WEED,NETTLE WEED,NETTLE WEED","20,20,20,20,20,20,20,20","20,20,20,20,20,20,20,20","10,10,10,10,10,10,10,10","20,20,20,20,20,20,20,20","0,0,0,0,0,0,0,0","20,20,20,20,20,20,20,20","20,20,20,20,20,20,20,20","20,20,20,20,20,20,20,20","10,10,10,10,10,10,10,10","20,20,20,20,20,20,20,20","0,0,0,0,0,0,0,0","20,20,20,20,20,20,20,20","0,0,0,0,0,1,0,0","615,911,856,610,413,594,829,299","56.68302055476175,-32.397576857097185,-2.545438282125282,47.3671030343414,51.94276807934858,5.843279553457349,62.14441118543648,-0.4614659873597695","-6.485167823561465,51.69696998831987,-16.628599247134446,37.419202329469556,50.378754757218445,19.336667067292964,13.33758389752484,16.996419654310024","0","0"
"563","86","text","0","167","1606120","0-0","","","","","","","","","","","","","","","","","","","","","","","","","","","","","","","","","","","","",""
"","","plant-game","0","168","1613070","0-0","","200","190","8","WHEAT CROP","Right","200","190","8","THISTLE WEED","experimental","71","1,2,3,4,5,6,7,8","190,205.996615060318,231.99789675292803,265.68248252855426,299.51975129731267,339.71859800644495,385.19639829614977,390.78373993694464","8,7,6,5,4,3,2,1","THISTLE WEED,THISTLE WEED,THISTLE WEED,THISTLE WEED,THISTLE WEED,THISTLE WEED,THISTLE WEED,THISTLE WEED","190,192.14366089582907,198.7309672547748,188.39868973715204,198.39794698888593,171.32584789421537,221.70881374557953,262.4763469281578","8,7,6,5,4,3,2,1","WHEAT CROP,WHEAT CROP,WHEAT CROP,WHEAT CROP,WHEAT CROP,WHEAT CROP,WHEAT CROP,WHEAT CROP","0,0,0,0,0,0,0,0","20,20,20,20,20,20,20,20","10,10,10,10,10,10,10,10","20,20,20,20,20,20,20,20","20,20,20,20,20,20,20,20","20,20,20,20,20,20,20,20","0,0,0,0,0,0,0,0","20,20,20,20,20,20,20,20","10,10,10,10,10,10,10,10","20,20,20,20,20,20,20,20","20,20,20,20,20,20,20,20","20,20,20,20,20,20,20,20","0,1,1,1,1,1,1,1","1174,889,272,414,437,147,137,127","15.996615060318,26.001281692610025,33.684585775626246,33.837268768758406,40.19884670913228,45.47780028970484,5.587341640794881,37.26122343961299","2.1436608958290666,6.587306358945739,-10.332277517622778,9.999257251733894,-27.07209909467055,50.38296585136417,40.76753318257829,-2.271049688861865","0","0"
"110","86","text","0","169","1613350","0-0","","","","","","","","","","","","","","","","","","","","","","","","","","","","","","","","","","","","",""
"","","plant-game","0","170","1619751","0-0","","200","180","1","WHEAT CROP","Right","200","160","2","THISTLE WEED","experimental","72","1,2","160,142.69718232102207","2,1","THISTLE WEED,THISTLE WEED","180,190","1,1","WHEAT CROP,CORN CROP","0,0","20,20","10,10","20,20","20,20","20,20","0,0","20,20","10,10","20,20","20,20","20,20","1,1","570,846","-17.302817678977938,10.60370641542442","16.33059327167116,-2.966665276825971","0","0"
"731","86","text","0","171","1620672","0-0","","","","","","","","","","","","","","","","","","","","","","","","","","","","","","","","","","","","",""
"","","plant-game","0","172","1625713","0-0","","200","160","1","WHEAT CROP","Left","200","180","1","THISTLE WEED","experimental","73","1","160","1","WHEAT CROP","180","1","THISTLE WEED","20","20","10","20","0","20","20","20","10","20","0","20","0","910","-3.829457866369559","6.918545542588419","0","0"
"160","86","text","0","173","1625983","0-0","","","","","","","","","","","","","","","","","","","","","","","","","","","","","","","","","","","","",""
"","","plant-game","0","174","1634664","0-0","","200","190","2","WHEAT CROP","Left","200","180","8","THISTLE WEED","experimental","74","1,2,3,4,5,6,7,8","190,185.80010905571098,140,183.88219631748763,168.8419999425674,143.15428109632566,122.70708584371481,105.92294395397246","2,1,6,5,4,3,2,1","WHEAT CROP,WHEAT CROP,CORN CROP,CORN CROP,CORN CROP,CORN CROP,CORN CROP,CORN CROP","180,212.73071601516477,186.69864434014946,245.58686958160607,205.923710474458,225.01435882252534,202.4880429144755,226.26975295019554","8,7,6,5,4,3,2,1","THISTLE WEED,THISTLE WEED,THISTLE WEED,THISTLE WEED,THISTLE WEED,THISTLE WEED,THISTLE WEED,THISTLE WEED","20,20,20,20,20,20,20,20","20,20,20,20,20,20,20,20","10,10,10,10,10,10,10,10","20,20,20,20,20,20,20,20","0,0,0,0,0,0,0,0","20,20,20,20,20,20,20,20","20,20,20,20,20,20,20,20","20,20,20,20,20,20,20,20","10,10,10,10,10,10,10,10","20,20,20,20,20,20,20,20","0,0,0,0,0,0,0,0","20,20,20,20,20,20,20,20","0,1,0,1,1,1,1,1","551,1037,900,620,131,99,250,136","-4.199890944289013,-37.49278453142993,43.88219631748761,-15.040196374920205,-25.68771884624176,-20.447195252610854,-16.78414188974235,-2.3320240819814506","32.73071601516479,-26.032071675015317,58.8882252414566,-39.66315910714806,19.09064834806734,-22.526315908049842,23.781710035720053,16.682748943882196","0","0"
"562","86","text","0","175","1635338","0-0","","","","","","","","","","","","","","","","","","","","","","","","","","","","","","","","","","","","",""
"","","plant-game","0","176","1646329","0-0","","200","120","8","CORN CROP","Left","200","180","2","THISTLE WEED","experimental","75","1,2,3,4,5,6,7,8","120,169.1423018341163,199.23194836420862,229.42015043800373,248.2924418865476,270.13062027613927,278.5767269107777,313.55625386591623","8,7,6,5,4,3,2,1","CORN CROP,CORN CROP,CORN CROP,CORN CROP,CORN CROP,CORN CROP,CORN CROP,CORN CROP","180,190.05695065683256,140,148.98335558540523,146.81455733889865,168.98538019821498,202.67628288338062,200.6077335493661","2,1,6,5,4,3,2,1","THISTLE WEED,THISTLE WEED,NETTLE WEED,NETTLE WEED,NETTLE WEED,NETTLE WEED,NETTLE WEED,NETTLE WEED","20,20,20,20,20,20,20,20","20,20,20,20,20,20,20,20","10,10,10,10,10,10,10,10","20,20,20,20,20,20,20,20","0,0,0,0,0,0,0,0","20,20,20,20,20,20,20,20","20,20,20,20,20,20,20,20","20,20,20,20,20,20,20,20","10,10,10,10,10,10,10,10","20,20,20,20,20,20,20,20","0,0,0,0,0,0,0,0","20,20,20,20,20,20,20,20","0,0,0,0,0,0,0,0","988,773,991,503,355,157,137,1108","49.1423018341163,30.08964653009231,30.188202073795107,18.872291448543884,21.83817838959164,8.446106634638465,34.9795269551385,26.81073483357112","10.05695065683254,47.55058977660637,8.983355585405231,-2.1687982465065723,22.170822859316342,33.69090268516565,-2.0685493340145378,16.702294533766366","0","0"
"87","86","text","0","177","1646546","0-0","","","","","","","","","","","","","","","","","","","","","","","","","","","","","","","","","","","","",""
"","","plant-game","0","178","1655617","0-0","","200","180","8","WHEAT CROP","Right","200","160","1","THISTLE WEED","experimental","76","1,2,3,4,5,6,7,8","160,130,107.24948996960319,99.8911881614385,85.34301788042121,84.10209347022297,115.37840159824529,145.38843250554172","1,7,6,5,4,3,2,1","THISTLE WEED,NETTLE WEED,NETTLE WEED,NETTLE WEED,NETTLE WEED,NETTLE WEED,NETTLE WEED,NETTLE WEED","180,212.85695847451206,240.0010003989379,209.55867870776135,178.5515150986268,205.5754291805655,213.26085326073473,198.50977595344324","8,7,6,5,4,3,2,1","WHEAT CROP,WHEAT CROP,WHEAT CROP,WHEAT CROP,WHEAT CROP,WHEAT CROP,WHEAT CROP,WHEAT CROP","0,0,0,0,0,0,0,0","20,20,20,20,20,20,20,20","10,10,10,10,10,10,10,10","20,20,20,20,20,20,20,20","20,20,20,20,20,20,20,20","20,20,20,20,20,20,20,20","0,0,0,0,0,0,0,0","20,20,20,20,20,20,20,20","10,10,10,10,10,10,10,10","20,20,20,20,20,20,20,20","20,20,20,20,20,20,20,20","20,20,20,20,20,20,20,20","0,0,0,0,1,1,1,1","453,676,475,137,490,371,226,182","0.5942114318714747,-22.750510030396818,-7.358301808164685,-14.548170281017295,-1.240924410198243,31.27630812802233,30.010030907296432,35.112871848146455","32.856958474512055,27.144041924425824,-30.442321691176538,-31.00716360913456,27.023914081938692,7.685424080169254,-14.751077307291496,18.069300184086696","0","0"
"2091","86","text","0","179","1657798","0-0","","","","","","","","","","","","","","","","","","","","","","","","","","","","","","","","","","","","",""
"","","plant-game","0","180","1669541","0-0","","200","160","8","CORN CROP","Left","200","160","4","THISTLE WEED","experimental","77","1,2,3,4,5,6,7,8","160,174.3671143889693,213.1064394728706,219.59865838241242,240.6171673505381,277.9231583945842,296.05689258165455,300.5517478893547","8,7,6,5,4,3,2,1","CORN CROP,CORN CROP,CORN CROP,CORN CROP,CORN CROP,CORN CROP,CORN CROP,CORN CROP","160,164.8900190775387,202.61090488978147,216.26590445217326,160,192.55051047511046,248.24633204396517,269.73406508956003","4,3,2,1,4,3,2,1","THISTLE WEED,THISTLE WEED,THISTLE WEED,THISTLE WEED,NETTLE WEED,NETTLE WEED,NETTLE WEED,NETTLE WEED","20,20,20,20,20,20,20,20","20,20,20,20,20,20,20,20","10,10,10,10,10,10,10,10","20,20,20,20,20,20,20,20","0,0,0,0,0,0,0,0","20,20,20,20,20,20,20,20","20,20,20,20,20,20,20,20","20,20,20,20,20,20,20,20","10,10,10,10,10,10,10,10","20,20,20,20,20,20,20,20","0,0,0,0,0,0,0,0","20,20,20,20,20,20,20,20","0,0,0,0,0,0,0,0","778,228,230,2399,712,198,155,1230","14.367114388969306,38.739325083901306,6.492218909541844,21.018508968125673,37.305991044046145,18.133734187070342,4.4948553077001385,22.261568939518796","4.890019077538717,37.72088581224277,13.654999562391792,16.45305905202681,32.550510475110464,55.695821568854704,21.487733045594858,27.66299488631029","0","0"
"240","86","text","0","181","1669949","0-0","","","","","","","","","","","","","","","","","","","","","","","","","","","","","","","","","","","","",""
"","","plant-game","0","182","1673628","0-0","","200","120","1","WHEAT CROP","Right","200","160","1","NETTLE WEED","experimental","78","1","160","1","NETTLE WEED","120","1","WHEAT CROP","0","20","10","20","20","20","0","20","10","20","20","20","1","554","27.96909690378594","16.612437740524047","0","0"
"163","86","text","0","183","1673961","0-0","","","","","","","","","","","","","","","","","","","","","","","","","","","","","","","","","","","","",""
"","","plant-game","0","184","1677661","0-0","","200","160","1","CORN CROP","Left","200","160","1","NETTLE WEED","experimental","79","1","160","1","CORN CROP","160","1","NETTLE WEED","20","20","10","20","0","20","20","20","10","20","0","20","0","433","25.05330994178113","25.739950705128244","0","0"
"167","86","text","0","185","1677948","0-0","","","","","","","","","","","","","","","","","","","","","","","","","","","","","","","","","","","","",""
"","","plant-game","0","186","1688372","0-0","","200","160","2","CORN CROP","Right","200","120","8","THISTLE WEED","experimental","80","1,2,3,4,5,6,7,8","120,125.51184713988839,140.86190248995402,125.18895014667412,143.0807122686723,132.31673251846618,137.0378970669923,188.80269854582275","8,7,6,5,4,3,2,1","THISTLE WEED,THISTLE WEED,THISTLE WEED,THISTLE WEED,THISTLE WEED,THISTLE WEED,THISTLE WEED,THISTLE WEED","160,135.84687480826742,140,174.05920685239266,174.03836674254546,188.58734136939492,167.37967801267882,144.25334584694437","2,1,6,5,4,3,2,1","CORN CROP,CORN CROP,WHEAT CROP,WHEAT CROP,WHEAT CROP,WHEAT CROP,WHEAT CROP,WHEAT CROP","0,0,0,0,0,0,0,0","20,20,20,20,20,20,20,20","10,10,10,10,10,10,10,10","20,20,20,20,20,20,20,20","20,20,20,20,20,20,20,20","20,20,20,20,20,20,20,20","0,0,0,0,0,0,0,0","20,20,20,20,20,20,20,20","10,10,10,10,10,10,10,10","20,20,20,20,20,20,20,20","20,20,20,20,20,20,20,20","20,20,20,20,20,20,20,20","0,1,0,0,0,0,0,0","727,631,710,401,306,256,249,778","5.511847139888393,15.350055350065631,-15.6729523432799,17.891762121998198,-10.763979750206122,4.721164548526106,51.76480147883045,3.0616217479387715","-24.153125191732595,21.660114559858417,34.05920685239265,-0.020840109847191257,14.54897462684945,-21.207663356716104,-23.126332165734453,29.443357157923913","0","0"
"3042","86","text","0","187","1691555","0-0","","","","","","","","","","","","","","","","","","","","","","","","","","","","","","","","","","","","",""
"","","plant-game","0","188","1710719","0-0","","200","190","2","CORN CROP","Right","200","180","4","NETTLE WEED","experimental","81","1,2,3,4","180,162.37364235692615,161.15165882985204,150.47695603645676","4,3,2,1","NETTLE WEED,NETTLE WEED,NETTLE WEED,NETTLE WEED","190,216.81672497778567,180,176.63987117868146","2,1,2,1","CORN CROP,CORN CROP,WHEAT CROP,WHEAT CROP","0,0,0,0","20,20,20,20","10,10,10,10","20,20,20,20","20,20,20,20","20,20,20,20","0,0,0,0","20,20,20,20","10,10,10,10","20,20,20,20","20,20,20,20","20,20,20,20","0,0,0,0","12199,354,597,231","-17.62635764307384,-1.2219835270741288,-10.674702793395287,1.338929616340784","26.81672497778568,13.845951637103743,-3.3601288213185256,22.338079729121915","0","0"
"900","86","text","0","189","1711769","0-0","","","","","","","","","","","","","","","","","","","","","","","","","","","","","","","","","","","","",""
"","","plant-game","0","190","1729365","0-0","","200","160","8","WHEAT CROP","Left","200","190","8","THISTLE WEED","experimental","82","1,2,3,4,5,6,7,8","160,180.12230349832302,210.87021924077135,244.58713377133935,258.66770028325806,263.33011083065355,259.49415560708104,283.80815775792394","8,7,6,5,4,3,2,1","WHEAT CROP,WHEAT CROP,WHEAT CROP,WHEAT CROP,WHEAT CROP,WHEAT CROP,WHEAT CROP,WHEAT CROP","190,233.4514633489831,253.75735688653765,252.46947890669298,311.9276036454012,340.92938782784483,344.5895274728793,348.8080843525749","8,7,6,5,4,3,2,1","THISTLE WEED,THISTLE WEED,THISTLE WEED,THISTLE WEED,THISTLE WEED,THISTLE WEED,THISTLE WEED,THISTLE WEED","20,20,20,20,20,20,20,20","20,20,20,20,20,20,20,20","10,10,10,10,10,10,10,10","20,20,20,20,20,20,20,20","0,0,0,0,0,0,0,0","20,20,20,20,20,20,20,20","20,20,20,20,20,20,20,20","20,20,20,20,20,20,20,20","10,10,10,10,10,10,10,10","20,20,20,20,20,20,20,20","0,0,0,0,0,0,0,0","20,20,20,20,20,20,20,20","0,0,0,0,0,0,0,0","12803,312,197,121,109,78,117,87","20.122303498323017,30.747915742448342,33.71691453056801,14.08056651191868,4.662410547395499,-3.835955223572533,24.314002150842907,24.23797882706866","43.45146334898312,20.305893537554546,-1.287877979844673,59.45812473870817,29.001784182443686,3.6601396450344694,4.218556879695608,57.030862132373606","0","0"
"1619","86","text","0","191","1731124","0-0","","","","","","","","","","","","","","","","","","","","","","","","","","","","","","","","","","","","",""
"","","plant-game","0","192","1734926","0-0","","200","160","2","CORN CROP","Right","200","190","2","NETTLE WEED","experimental","83","1,2","190,198.02105142619223","2,1","NETTLE WEED,NETTLE WEED","160,167.52950641736615","2,1","CORN CROP,CORN CROP","0,0","20,20","10,10","20,20","20,20","20,20","0,0","20,20","10,10","20,20","20,20","20,20","0,0","798,116","8.021051426192242,7.344353553322134","7.529506417366145,17.644980676452967","0","0"
"163","86","text","0","193","1735229","0-0","","","","","","","","","","","","","","","","","","","","","","","","","","","","","","","","","","","","",""
"","","plant-game","0","194","1742626","0-0","","200","180","1","WHEAT CROP","Left","200","120","8","THISTLE WEED","experimental","84","1,2,3,4,5,6,7,8","180,130,115.14757109562944,126.19014946992463,144.42880200483208,162.3895587164638,147.18629405867065,138.8094717547887","1,7,6,5,4,3,2,1","WHEAT CROP,CORN CROP,CORN CROP,CORN CROP,CORN CROP,CORN CROP,CORN CROP,CORN CROP","120,140.86318441960682,187.2741067863463,157.4240482799663,149.3712452110816,186.24529213025727,179.49169902192332,167.27666801219098","8,7,6,5,4,3,2,1","THISTLE WEED,THISTLE WEED,THISTLE WEED,THISTLE WEED,THISTLE WEED,THISTLE WEED,THISTLE WEED,THISTLE WEED","20,20,20,20,20,20,20,20","20,20,20,20,20,20,20,20","10,10,10,10,10,10,10,10","20,20,20,20,20,20,20,20","0,0,0,0,0,0,0,0","20,20,20,20,20,20,20,20","20,20,20,20,20,20,20,20","20,20,20,20,20,20,20,20","10,10,10,10,10,10,10,10","20,20,20,20,20,20,20,20","0,0,0,0,0,0,0,0","20,20,20,20,20,20,20,20","0,1,1,1,1,1,1,1","1102,761,35,141,339,102,113,133","18.089362011440087,-14.852428904370553,11.042578374295186,18.238652534907445,17.96075671163173,-15.203264657793143,-8.376822303881962,-22.025308585891437","20.86318441960683,46.410922366739456,-29.850058506379987,-8.052803068884701,36.87404691917567,-6.753593108333935,-12.215031009732334,-15.110494077909184","0","0"
"107","86","text","0","195","1742873","0-0","","","","","","","","","","","","","","","","","","","","","","","","","","","","","","","","","","","","",""
