"rt","key_press","trial_type","trial_index","trial_index_global","time_elapsed","internal_chunk_id","responses","experimental_goal_height","experimental_start_height","experimental_weeks_total","experimental_crop_type","experimental_crop_side","fixed_goal_height","fixed_start_height","fixed_weeks_total","fixed_crop_type","trial_kind","trial_number","stage","left_current_height","left_weeks_remaining","left_crop_type","right_current_height","right_weeks_remaining","right_crop_type","mean_left_growth_given_left","sd_left_growth_given_left","mean_left_growth_given_middle","sd_left_growth_given_middle","mean_left_growth_given_right","sd_left_growth_given_right","mean_right_growth_given_left","sd_right_growth_given_left","mean_right_growth_given_middle","sd_right_growth_given_middle","mean_right_growth_given_right","sd_right_growth_given_right","response","response_time","left_growth","right_growth","other_key_pressed","mouse_clicked"
"3286522","87","text","0","0","3286618","0-0","","","","","","","","","","","","","","","","","","","","","","","","","","","","","","","","","","","","",""
"4504","","survey-text","0","1","3292152","0-0","{""Q0"":""28""}","","","","","","","","","","","","","","","","","","","","","","","","","","","","","","","","","","","",""
"4468","86","text","0","2","4577","0-0","","","","","","","","","","","","","","","","","","","","","","","","","","","","","","","","","","","","",""
"","","plant-game","0","3","70562","0-0","","200","120","8","CORN CROP","Left","200","120","8","NETTLE WEED","practice","1","1,2,3,4,5,6,7,8","120,150.55405678903833,171.30370207200903,179.9177751642607,196.80084206844873,212.8880443695897,241.0082871556743,215.3307309802683","8,7,6,5,4,3,2,1","CORN CROP,CORN CROP,CORN CROP,CORN CROP,CORN CROP,CORN CROP,CORN CROP,CORN CROP","120,126.11042679840676,143.10766831605002,153.91825404810555,137.38763199529058,148.0335011171361,174.87203280423003,171.66587443416725","8,7,6,5,4,3,2,1","NETTLE WEED,NETTLE WEED,NETTLE WEED,NETTLE WEED,NETTLE WEED,NETTLE WEED,NETTLE WEED,NETTLE WEED","20,20,20,20,20,20,20,20","20,20,20,20,20,20,20,20","10,10,10,10,10,10,10,10","20,20,20,20,20,20,20,20","0,0,0,0,0,0,0,0","20,20,20,20,20,20,20,20","20,20,20,20,20,20,20,20","20,20,20,20,20,20,20,20","10,10,10,10,10,10,10,10","20,20,20,20,20,20,20,20","0,0,0,0,0,0,0,0","20,20,20,20,20,20,20,20","0,0,0,0,0,0,1,0","11579,2983,3593,2611,2810,3944,2990,2075","30.554056789038324,20.749645282970697,8.614073092251653,16.883066904188038,16.08720230114096,28.120242786084624,-25.67755617540602,15.014511531287614","6.110426798406756,16.99724151764327,10.810585732055538,-16.530622052814977,10.64586912184552,26.838531687093933,-3.2061583700627843,35.80578072401284","0","0"
"1228","86","text","0","4","71970","0-0","","","","","","","","","","","","","","","","","","","","","","","","","","","","","","","","","","","","",""
"","","plant-game","0","5","104140","0-0","","200","160","4","CORN CROP","Right","200","160","4","NETTLE WEED","practice","2","1,2,3,4","160,166.5746910872421,141.38412239354986,161.81248875502308","4,3,2,1","NETTLE WEED,NETTLE WEED,NETTLE WEED,NETTLE WEED","160,174.1655220554175,162.05759865605202,208.7968110064571","4,3,2,1","CORN CROP,CORN CROP,CORN CROP,CORN CROP","0,0,0,0","20,20,20,20","10,10,10,10","20,20,20,20","20,20,20,20","20,20,20,20","0,0,0,0","20,20,20,20","10,10,10,10","20,20,20,20","20,20,20,20","20,20,20,20","1,0,1,1","4993,1110,3426,3312","6.574691087242099,-25.19056869369223,20.42836636147321,31.008338211380842","14.165522055417512,-12.107923399365477,46.73921235040507,7.736574758192006","0","0"
"778","86","text","0","6","105098","0-0","","","","","","","","","","","","","","","","","","","","","","","","","","","","","","","","","","","","",""
"","","plant-game","0","7","125617","0-0","","200","180","2","CORN CROP","Left","200","180","2","NETTLE WEED","practice","3","1,2","180,186.91031432444368","2,1","CORN CROP,CORN CROP","180,208.35484229817607","2,1","NETTLE WEED,NETTLE WEED","20,20","20,20","10,10","20,20","0,0","20,20","20,20","20,20","10,10","20,20","0,0","20,20","1,0","1641,5617","6.910314324443663,22.92430338720068","28.354842298176074,65.19740775597907","1","0"
"634","86","text","0","8","126431","0-0","","","","","","","","","","","","","","","","","","","","","","","","","","","","","","","","","","","","",""
"","","plant-game","0","9","142807","0-0","","200","190","1","WHEAT CROP","Left","200","190","1","NETTLE WEED","practice","4","1","190","1","WHEAT CROP","190","1","NETTLE WEED","20","20","10","20","0","20","20","20","10","20","0","20","1","453","6.7532058378933275","54.77759929439603","0","0"
"579","86","text","0","10","143566","0-0","","","","","","","","","","","","","","","","","","","","","","","","","","","","","","","","","","","","",""
"","","plant-game","0","11","176160","0-0","","200","120","8","WHEAT CROP","Left","200","160","8","THISTLE WEED","practice","5","1,2,3,4,5,6,7,8","120,156.27521082783576,191.8036604784863,197.94985624419158,186.36017540514217,163.98648137412295,170.18891794988437,219.7912579825254","8,7,6,5,4,3,2,1","WHEAT CROP,WHEAT CROP,WHEAT CROP,WHEAT CROP,WHEAT CROP,WHEAT CROP,WHEAT CROP,WHEAT CROP","160,156.47929832946025,179.39479025138985,153.8496661958257,183.51218347749287,176.7031839730203,160.15073443015024,157.6091071175432","8,7,6,5,4,3,2,1","THISTLE WEED,THISTLE WEED,THISTLE WEED,THISTLE WEED,THISTLE WEED,THISTLE WEED,THISTLE WEED,THISTLE WEED","20,20,20,20,20,20,20,20","20,20,20,20,20,20,20,20","10,10,10,10,10,10,10,10","20,20,20,20,20,20,20,20","0,0,0,0,0,0,0,0","20,20,20,20,20,20,20,20","20,20,20,20,20,20,20,20","20,20,20,20,20,20,20,20","10,10,10,10,10,10,10,10","20,20,20,20,20,20,20,20","0,0,0,0,0,0,0,0","20,20,20,20,20,20,20,20","0,0,1,1,1,0,0,0","986,1114,3588,1684,859,904,527,1310","36.275210827835764,35.528449650650536,6.146195765705283,-11.589680839049398,-22.373694031019234,6.202436575761428,49.60234003264101,38.7994476348656","-3.52070167053974,22.915491921929608,-25.54512405556413,29.662517281667157,-6.80899950447257,-16.552449542870058,-2.54162731260703,34.359237383382904","0","0"
"694","86","text","0","12","177044","0-0","","","","","","","","","","","","","","","","","","","","","","","","","","","","","","","","","","","","",""
"","","plant-game","0","13","204398","0-0","","200","180","4","CORN CROP","Right","200","160","4","NETTLE WEED","practice","6","1,2,3,4","160,171.5769759398253,152.39870903790626,171.9271290220341","4,3,2,1","NETTLE WEED,NETTLE WEED,NETTLE WEED,NETTLE WEED","180,220.04103387585323,195.19519524590166,185.7744287561348","4,3,2,1","CORN CROP,CORN CROP,CORN CROP,CORN CROP","0,0,0,0","20,20,20,20","10,10,10,10","20,20,20,20","20,20,20,20","20,20,20,20","0,0,0,0","20,20,20,20","10,10,10,10","20,20,20,20","20,20,20,20","20,20,20,20","0,0,0,1","3576,3881,1953,787","11.57697593982531,-19.17826690191903,19.52841998412786,41.874122163110556","40.04103387585323,-24.84583862995157,-9.420766489766848,12.855889497539112","0","0"
"737","86","text","0","14","205335","0-0","","","","","","","","","","","","","","","","","","","","","","","","","","","","","","","","","","","","",""
"","","plant-game","0","15","230599","0-0","","200","180","2","WHEAT CROP","Left","200","190","2","THISTLE WEED","practice","7","1,2","180,175.0267946099186","2,1","WHEAT CROP,WHEAT CROP","190,213.3367864735036","2,1","THISTLE WEED,THISTLE WEED","20,20","20,20","10,10","20,20","0,0","20,20","20,20","20,20","10,10","20,20","0,0","20,20","1,1","14158,465","-4.973205390081395,-11.908674775184853","23.336786473503604,25.40276299971922","0","0"
"637","86","text","0","16","231366","0-0","","","","","","","","","","","","","","","","","","","","","","","","","","","","","","","","","","","","",""
"","","plant-game","0","17","288417","0-0","","200","120","4","WHEAT CROP","Left","200","120","8","NETTLE WEED","practice","8","1,2,3,4,5,6,7,8","120,113.64504954320732,105.08724062409163,110.54144665738845,160,197.19692671086634,183.46354297956313,214.30701249560204","4,3,2,1,4,3,2,1","WHEAT CROP,WHEAT CROP,WHEAT CROP,WHEAT CROP,CORN CROP,CORN CROP,CORN CROP,CORN CROP","120,134.39703224415356,115.98614003769596,136.21333209505994,159.6109128307325,172.8419147651925,194.97716134735546,187.55680735156068","8,7,6,5,4,3,2,1","NETTLE WEED,NETTLE WEED,NETTLE WEED,NETTLE WEED,NETTLE WEED,NETTLE WEED,NETTLE WEED,NETTLE WEED","20,20,20,20,20,20,20,20","20,20,20,20,20,20,20,20","10,10,10,10,10,10,10,10","20,20,20,20,20,20,20,20","0,0,0,0,0,0,0,0","20,20,20,20,20,20,20,20","20,20,20,20,20,20,20,20","20,20,20,20,20,20,20,20","10,10,10,10,10,10,10,10","20,20,20,20,20,20,20,20","0,0,0,0,0,0,0,0","20,20,20,20,20,20,20,20","0,1,1,1,0,0,0,0","11370,3859,3276,1420,523,453,903,756","-6.354950456792675,-8.557808919115686,5.454206033296815,-9.08377698700167,37.19692671086633,-13.733383731303213,30.84346951603891,16.636073297197264","14.397032244153571,-18.4108922064576,20.22719205736398,23.39758073567257,13.231001934460007,22.13524658216295,-7.420353995794791,18.00509832274577","0","0"
"787","86","text","0","18","289404","0-0","","","","","","","","","","","","","","","","","","","","","","","","","","","","","","","","","","","","",""
"","","plant-game","0","19","327467","0-0","","200","160","4","WHEAT CROP","Left","200","160","2","NETTLE WEED","practice","9","1,2,3,4","160,159.07406544955907,176.40045258059826,214.95419868149526","4,3,2,1","WHEAT CROP,WHEAT CROP,WHEAT CROP,WHEAT CROP","160,176.07540663768822,180,165.37760228515333","2,1,2,1","NETTLE WEED,NETTLE WEED,THISTLE WEED,THISTLE WEED","20,20,20,20","20,20,20,20","10,10,10,10","20,20,20,20","0,0,0,0","20,20,20,20","20,20,20,20","20,20,20,20","10,10,10,10","20,20,20,20","0,0,0,0","20,20,20,20","1,1,0,0","567,822,682,586","-0.9259345504409179,17.326387131039173,38.553746100897,22.585056992228775","16.075406637688218,4.569202262279932,-14.62239771484667,15.828409067990139","0","0"
"569","86","text","0","20","328206","0-0","","","","","","","","","","","","","","","","","","","","","","","","","","","","","","","","","","","","",""
"","","plant-game","0","21","362780","0-0","","200","180","2","WHEAT CROP","Right","200","180","1","THISTLE WEED","practice","10","1,2","180,190","1,1","THISTLE WEED,NETTLE WEED","180,156.96249327132844","2,1","WHEAT CROP,WHEAT CROP","0,0","20,20","10,10","20,20","20,20","20,20","0,0","20,20","10,10","20,20","20,20","20,20","0,0","4605,1288","-4.916260355290116,-31.82825415191196","-23.03750672867156,11.54573019382196","1","0"
"747","86","text","0","22","363730","0-0","","","","","","","","","","","","","","","","","","","","","","","","","","","","","","","","","","","","",""
"","","plant-game","0","23","393831","0-0","","200","120","8","WHEAT CROP","Right","200","160","4","NETTLE WEED","practice","11","1,2,3,4,5,6,7,8","160,121.98036401516768,107.92709098525324,115.78838456173972,160,141.22962462182562,141.625548258841,133.20007015913822","4,3,2,1,4,3,2,1","NETTLE WEED,NETTLE WEED,NETTLE WEED,NETTLE WEED,THISTLE WEED,THISTLE WEED,THISTLE WEED,THISTLE WEED","120,150.60452994833378,133.9612573981019,148.8947382035482,161.23163669960095,143.38486989241898,120.00657901181215,141.72254702149047","8,7,6,5,4,3,2,1","WHEAT CROP,WHEAT CROP,WHEAT CROP,WHEAT CROP,WHEAT CROP,WHEAT CROP,WHEAT CROP,WHEAT CROP","0,0,0,0,0,0,0,0","20,20,20,20,20,20,20,20","10,10,10,10,10,10,10,10","20,20,20,20,20,20,20,20","20,20,20,20,20,20,20,20","20,20,20,20,20,20,20,20","0,0,0,0,0,0,0,0","20,20,20,20,20,20,20,20","10,10,10,10,10,10,10,10","20,20,20,20,20,20,20,20","20,20,20,20,20,20,20,20","20,20,20,20,20,20,20,20","0,0,0,0,0,0,1,1","960,1239,1225,480,1363,618,1130,524","-38.01963598483232,-14.053273029914443,7.861293576486467,-1.9552347911395327,-18.770375378174368,0.39592363701538025,-8.425478099702794,51.36219910173203","30.604529948333777,-16.643272550231877,14.933480805446287,12.336898496052765,-17.846766807181993,-23.378290880606826,21.71596800967832,-30.00035632295527","0","0"
"787","86","text","0","24","394774","0-0","","","","","","","","","","","","","","","","","","","","","","","","","","","","","","","","","","","","",""
"","","plant-game","0","25","428426","0-0","","200","180","2","WHEAT CROP","Left","200","160","4","NETTLE WEED","practice","12","1,2,3,4","180,189.70570141968443,180,185.81618215956004","2,1,2,1","WHEAT CROP,WHEAT CROP,CORN CROP,CORN CROP","160,164.31584591970085,184.22095125996577,201.12677845744216","4,3,2,1","NETTLE WEED,NETTLE WEED,NETTLE WEED,NETTLE WEED","20,20,20,20","20,20,20,20","10,10,10,10","20,20,20,20","0,0,0,0","20,20,20,20","20,20,20,20","20,20,20,20","10,10,10,10","20,20,20,20","0,0,0,0","20,20,20,20","0,1,0,0","5081,1040,7151,1204","9.705701419684443,-17.968642753476637,5.816182159560054,25.02151741064607","4.315845919700848,19.905105340264917,16.90582719747638,71.57785710263673","0","0"
"564","86","text","0","26","429170","0-0","","","","","","","","","","","","","","","","","","","","","","","","","","","","","","","","","","","","",""
"11277","86","text","0","27","441637","0-0","","","","","","","","","","","","","","","","","","","","","","","","","","","","","","","","","","","","",""
"","","plant-game","0","28","474947","0-0","","200","120","8","CORN CROP","Left","200","190","2","NETTLE WEED","experimental","1","1,2,3,4,5,6,7,8","120,143.72839537669918,173.40831846476763,186.97218216125563,191.0223522317552,168.83752164235355,177.55434639220115,208.829323139562","8,7,6,5,4,3,2,1","CORN CROP,CORN CROP,CORN CROP,CORN CROP,CORN CROP,CORN CROP,CORN CROP,CORN CROP","190,209.25051626119227,140,167.87994129666032,168.8679000283079,147.94437059056986,136.0235485400032,165.36063636677747","2,1,6,5,4,3,2,1","NETTLE WEED,NETTLE WEED,THISTLE WEED,THISTLE WEED,THISTLE WEED,THISTLE WEED,THISTLE WEED,THISTLE WEED","20,20,20,20,20,20,20,20","20,20,20,20,20,20,20,20","10,10,10,10,10,10,10,10","20,20,20,20,20,20,20,20","0,0,0,0,0,0,0,0","20,20,20,20,20,20,20,20","20,20,20,20,20,20,20,20","20,20,20,20,20,20,20,20","10,10,10,10,10,10,10,10","20,20,20,20,20,20,20,20","0,0,0,0,0,0,0,0","20,20,20,20,20,20,20,20","0,0,0,1,1,1,0,0","6861,3184,4451,1969,2701,1625,1519,1323","23.728395376699172,29.67992308806846,13.56386369648799,4.050170070499571,-22.18483058940166,8.716824749847605,31.27497674736085,-8.173292388448456","19.25051626119226,36.80214711372452,27.87994129666032,0.9879587316475722,-20.923529437738033,-11.920822050566679,29.337087826774283,4.871034486071885","0","0"
"547","86","text","0","29","475644","0-0","","","","","","","","","","","","","","","","","","","","","","","","","","","","","","","","","","","","",""
"","","plant-game","0","30","488885","0-0","","200","190","4","WHEAT CROP","Right","200","160","4","THISTLE WEED","experimental","2","1,2,3,4","160,156.7210869259054,182.46874524944332,200.91346272483779","4,3,2,1","THISTLE WEED,THISTLE WEED,THISTLE WEED,THISTLE WEED","190,184.35399293036426,206.00021747377966,222.23995958923547","4,3,2,1","WHEAT CROP,WHEAT CROP,WHEAT CROP,WHEAT CROP","0,0,0,0","20,20,20,20","10,10,10,10","20,20,20,20","20,20,20,20","20,20,20,20","0,0,0,0","20,20,20,20","10,10,10,10","20,20,20,20","20,20,20,20","20,20,20,20","1,1,0,0","4220,1382,1278,446","-3.2789130740945893,25.747658323537905,18.444717475394462,13.295862647466322","-5.646007069635747,21.646224543415393,16.239742115455815,42.44313600883291","0","0"
"558","86","text","0","31","489613","0-0","","","","","","","","","","","","","","","","","","","","","","","","","","","","","","","","","","","","",""
"","","plant-game","0","32","507446","0-0","","200","120","4","CORN CROP","Left","200","160","4","NETTLE WEED","experimental","3","1,2,3,4","120,144.02240412445502,151.44072918030662,208.7390724015736","4,3,2,1","CORN CROP,CORN CROP,CORN CROP,CORN CROP","160,174.18799066870184,221.44265913556276,207.5132937335444","4,3,2,1","NETTLE WEED,NETTLE WEED,NETTLE WEED,NETTLE WEED","20,20,20,20","20,20,20,20","10,10,10,10","20,20,20,20","0,0,0,0","20,20,20,20","20,20,20,20","20,20,20,20","10,10,10,10","20,20,20,20","0,0,0,0","20,20,20,20","1,0,0,0","10333,669,1487,500","24.022404124455026,7.418325055851602,57.29834322126696,20.894679537501023","14.187990668701843,47.25466846686093,-13.929365402018348,27.137363053051182","0","0"
"243","86","text","0","33","507760","0-0","","","","","","","","","","","","","","","","","","","","","","","","","","","","","","","","","","","","",""
"","","plant-game","0","34","542623","0-0","","200","160","8","CORN CROP","Left","200","120","4","NETTLE WEED","experimental","4","1,2,3,4,5,6,7,8","160,169.71584348692735,184.9026446665294,213.63077197836608,197.02122264525775,212.64686722453268,219.5584361934445,212.49800837074773","8,7,6,5,4,3,2,1","CORN CROP,CORN CROP,CORN CROP,CORN CROP,CORN CROP,CORN CROP,CORN CROP,CORN CROP","120,131.60952153641995,146.75693568895204,166.0447614839321,160,181.01410836193796,200.10429550297118,230.2207637098782","4,3,2,1,4,3,2,1","NETTLE WEED,NETTLE WEED,NETTLE WEED,NETTLE WEED,THISTLE WEED,THISTLE WEED,THISTLE WEED,THISTLE WEED","20,20,20,20,20,20,20,20","20,20,20,20,20,20,20,20","10,10,10,10,10,10,10,10","20,20,20,20,20,20,20,20","0,0,0,0,0,0,0,0","20,20,20,20,20,20,20,20","20,20,20,20,20,20,20,20","20,20,20,20,20,20,20,20","10,10,10,10,10,10,10,10","20,20,20,20,20,20,20,20","0,0,0,0,0,0,0,0","20,20,20,20,20,20,20,20","1,1,1,1,0,1,1,1","5266,566,623,1555,9671,5712,756,806","9.715843486927348,15.186801179602057,28.72812731183668,-16.60954933310832,15.625644579274933,6.9115689689118085,-7.060427822696753,40.88096428730851","11.609521536419935,15.147414152532088,19.28782579498005,32.78597990562244,21.014108361937954,19.09018714103324,30.11646820690703,19.874318044106097","0","0"
"659","86","text","0","35","543432","0-0","","","","","","","","","","","","","","","","","","","","","","","","","","","","","","","","","","","","",""
"","","plant-game","0","36","560503","0-0","","200","160","2","CORN CROP","Left","200","120","1","NETTLE WEED","experimental","5","1,2","160,186.26393758967092","2,1","CORN CROP,CORN CROP","120,190","1,1","NETTLE WEED,THISTLE WEED","20,20","20,20","10,10","20,20","0,0","20,20","20,20","20,20","10,10","20,20","0,0","20,20","0,1","4645,3167","26.26393758967092,-41.67947252593028","25.421925188251244,-1.328204480274502","0","0"
"642","86","text","0","37","561317","0-0","","","","","","","","","","","","","","","","","","","","","","","","","","","","","","","","","","","","",""
"","","plant-game","0","38","578562","0-0","","200","180","1","WHEAT CROP","Right","200","180","1","NETTLE WEED","experimental","6","1","180","1","NETTLE WEED","180","1","WHEAT CROP","0","20","10","20","20","20","0","20","10","20","20","20","0","11396","1.8797443945737244","39.49116371879836","0","0"
"798","86","text","0","39","579510","0-0","","","","","","","","","","","","","","","","","","","","","","","","","","","","","","","","","","","","",""
"","","plant-game","0","40","601648","0-0","","200","190","1","WHEAT CROP","Right","200","120","4","NETTLE WEED","experimental","7","1,2,3,4","120,121.60283567010666,113.18156379393412,98.86746112184949","4,3,2,1","NETTLE WEED,NETTLE WEED,NETTLE WEED,NETTLE WEED","190,170,179.8111434498576,221.11999959642324","1,3,2,1","WHEAT CROP,CORN CROP,CORN CROP,CORN CROP","0,0,0,0","20,20,20,20","10,10,10,10","20,20,20,20","20,20,20,20","20,20,20,20","0,0,0,0","20,20,20,20","10,10,10,10","20,20,20,20","20,20,20,20","20,20,20,20","0,0,0,0","6628,6188,1825,1009","1.6028356701066588,-8.421271876172542,-14.314102672084623,-16.278685405116743","15.943144776934929,9.811143449857605,41.308856146565624,29.0775567965896","0","0"
"644","86","text","0","41","602472","0-0","","","","","","","","","","","","","","","","","","","","","","","","","","","","","","","","","","","","",""
"","","plant-game","0","42","624230","0-0","","200","180","8","CORN CROP","Left","200","160","8","THISTLE WEED","experimental","8","1,2,3,4,5,6,7,8","180,176.09381893538566,173.26841000087563,187.17907891932998,183.28911928934772,166.40168273485887,173.90558434961048,187.65859868758838","8,7,6,5,4,3,2,1","CORN CROP,CORN CROP,CORN CROP,CORN CROP,CORN CROP,CORN CROP,CORN CROP,CORN CROP","160,161.74462976330307,129.19266888596246,140.35810763560605,136.93208743361868,93.58870085092637,142.0618999187008,178.88066675476134","8,7,6,5,4,3,2,1","THISTLE WEED,THISTLE WEED,THISTLE WEED,THISTLE WEED,THISTLE WEED,THISTLE WEED,THISTLE WEED,THISTLE WEED","20,20,20,20,20,20,20,20","20,20,20,20,20,20,20,20","10,10,10,10,10,10,10,10","20,20,20,20,20,20,20,20","0,0,0,0,0,0,0,0","20,20,20,20,20,20,20,20","20,20,20,20,20,20,20,20","20,20,20,20,20,20,20,20","10,10,10,10,10,10,10,10","20,20,20,20,20,20,20,20","0,0,0,0,0,0,0,0","20,20,20,20,20,20,20,20","1,1,1,1,1,0,1,1","9027,732,1112,780,507,2261,815,1033","-3.906181064614351,-2.8254089345100364,13.910668918454355,-3.88995962998227,-16.887436554488865,7.503901614751623,13.753014337977902,12.458108711223922","1.7446297633030738,-32.55196087734059,11.165438749643588,-3.4260202019873742,-43.343386582692304,48.47319906777441,36.818766836060554,-11.703861840503919","0","0"
"629","86","text","0","43","625034","0-0","","","","","","","","","","","","","","","","","","","","","","","","","","","","","","","","","","","","",""
"","","plant-game","0","44","639569","0-0","","200","120","1","WHEAT CROP","Left","200","190","1","NETTLE WEED","experimental","9","1","120","1","WHEAT CROP","190","1","NETTLE WEED","20","20","10","20","0","20","20","20","10","20","0","20","0","9428","15.490397144533201","8.404925397918664","0","0"
"553","86","text","0","45","640293","0-0","","","","","","","","","","","","","","","","","","","","","","","","","","","","","","","","","","","","",""
"","","plant-game","0","46","660332","0-0","","200","120","4","CORN CROP","Left","200","190","8","NETTLE WEED","experimental","10","1,2,3,4,5,6,7,8","120,145.09036275840705,179.89057120891292,145.50580097807313,160,141.2174233013248,144.28291371158033,143.71802556399967","4,3,2,1,4,3,2,1","CORN CROP,CORN CROP,CORN CROP,CORN CROP,WHEAT CROP,WHEAT CROP,WHEAT CROP,WHEAT CROP","190,186.21212963074694,224.934632521798,251.3075501789522,271.93566601445286,291.0643622981729,274.4524827070831,315.37688642661954","8,7,6,5,4,3,2,1","NETTLE WEED,NETTLE WEED,NETTLE WEED,NETTLE WEED,NETTLE WEED,NETTLE WEED,NETTLE WEED,NETTLE WEED","20,20,20,20,20,20,20,20","20,20,20,20,20,20,20,20","10,10,10,10,10,10,10,10","20,20,20,20,20,20,20,20","0,0,0,0,0,0,0,0","20,20,20,20,20,20,20,20","20,20,20,20,20,20,20,20","20,20,20,20,20,20,20,20","10,10,10,10,10,10,10,10","20,20,20,20,20,20,20,20","0,0,0,0,0,0,0,0","20,20,20,20,20,20,20,20","0,0,1,1,1,1,1,1","5465,1613,692,418,903,1863,461,465","25.090362758407053,34.80020845050586,-34.3847702308398,31.6699015806849,-18.782576698675186,3.065490410255544,-0.5648881475806645,39.29069119846404","-3.7878703692530635,38.722502891051064,26.372917657154208,20.62811583550068,19.12869628372006,-16.611879591089803,40.92440371953644,-37.62893303993772","0","0"
"498","86","text","0","47","661020","0-0","","","","","","","","","","","","","","","","","","","","","","","","","","","","","","","","","","","","",""
"","","plant-game","0","48","669020","0-0","","200","190","1","WHEAT CROP","Right","200","120","1","THISTLE WEED","experimental","11","1","120","1","THISTLE WEED","190","1","WHEAT CROP","0","20","10","20","20","20","0","20","10","20","20","20","0","4265","-10.98390684873014","26.101544733791577","0","0"
"531","86","text","0","49","669732","0-0","","","","","","","","","","","","","","","","","","","","","","","","","","","","","","","","","","","","",""
"","","plant-game","0","50","698851","0-0","","200","180","2","CORN CROP","Left","200","160","4","THISTLE WEED","experimental","12","1,2,3,4","180,198.6729299739422,180,206.39176154131576","2,1,2,1","CORN CROP,CORN CROP,WHEAT CROP,WHEAT CROP","160,211.43169383686686,198.79812784240025,217.98264127850965","4,3,2,1","THISTLE WEED,THISTLE WEED,THISTLE WEED,THISTLE WEED","20,20,20,20","20,20,20,20","10,10,10,10","20,20,20,20","0,0,0,0","20,20,20,20","20,20,20,20","20,20,20,20","10,10,10,10","20,20,20,20","0,0,0,0","20,20,20,20","0,1,0,1","13083,1502,5460,904","18.672929973942185,15.985242974643176,26.391761541315766,-2.3072855184103687","51.431693836866856,-12.633565994466618,19.1845134361094,-22.375544785925634","0","0"
"674","86","text","0","51","699785","0-0","","","","","","","","","","","","","","","","","","","","","","","","","","","","","","","","","","","","",""
"","","plant-game","0","52","722835","0-0","","200","180","4","WHEAT CROP","Right","200","180","1","NETTLE WEED","experimental","13","1,2,3,4","180,170,199.30947681368525,206.14418200915193","1,3,2,1","NETTLE WEED,THISTLE WEED,THISTLE WEED,THISTLE WEED","180,219.65886644813577,211.77876194582694,212.0817533673165","4,3,2,1","WHEAT CROP,WHEAT CROP,WHEAT CROP,WHEAT CROP","0,0,0,0","20,20,20,20","10,10,10,10","20,20,20,20","20,20,20,20","20,20,20,20","0,0,0,0","20,20,20,20","10,10,10,10","20,20,20,20","20,20,20,20","20,20,20,20","0,0,1,0","4525,6224,2962,1074","-2.8093956732309637,29.309476813685258,6.834705195466693,-9.067228742136807","39.65886644813576,-7.880104502308821,0.3029914214895655,9.563878375311617","1","0"
"511","86","text","0","53","723516","0-0","","","","","","","","","","","","","","","","","","","","","","","","","","","","","","","","","","","","",""
"","","plant-game","0","54","753465","0-0","","200","160","1","WHEAT CROP","Right","200","120","8","THISTLE WEED","experimental","14","1,2,3,4,5,6,7,8","120,120.10233102497595,135.4399550928349,159.1254769667041,148.5784793649023,180.47001620623,195.66758647732158,178.95257563844797","8,7,6,5,4,3,2,1","THISTLE WEED,THISTLE WEED,THISTLE WEED,THISTLE WEED,THISTLE WEED,THISTLE WEED,THISTLE WEED,THISTLE WEED","160,130,152.04106578250136,166.4391279718916,168.75861868485708,191.26200026278627,206.65074919602498,198.28362619064296","1,7,6,5,4,3,2,1","WHEAT CROP,CORN CROP,CORN CROP,CORN CROP,CORN CROP,CORN CROP,CORN CROP,CORN CROP","0,0,0,0,0,0,0,0","20,20,20,20,20,20,20,20","10,10,10,10,10,10,10,10","20,20,20,20,20,20,20,20","20,20,20,20,20,20,20,20","20,20,20,20,20,20,20,20","0,0,0,0,0,0,0,0","20,20,20,20,20,20,20,20","10,10,10,10,10,10,10,10","20,20,20,20,20,20,20,20","20,20,20,20,20,20,20,20","20,20,20,20,20,20,20,20","1,1,1,0,0,1,0,0","9616,4895,959,1241,911,912,1096,2349","0.1023310249759497,15.33762406785894,23.68552187386918,-10.546997601801793,31.89153684132771,15.197570271091571,-16.71501083887362,-4.920391797212826","40.27087673084887,22.041065782501356,14.398062189390224,2.3194907129654783,22.503381577929176,15.388748933238698,-8.367123005382018,39.90334196402431","0","0"
"834","86","text","0","55","754480","0-0","","","","","","","","","","","","","","","","","","","","","","","","","","","","","","","","","","","","",""
"","","plant-game","0","56","765191","0-0","","200","190","1","WHEAT CROP","Right","200","160","1","NETTLE WEED","experimental","15","1","160","1","NETTLE WEED","190","1","WHEAT CROP","0","20","10","20","20","20","0","20","10","20","20","20","0","6181","-12.490135758453322","4.664765587285358","0","0"
"600","86","text","0","57","765961","0-0","","","","","","","","","","","","","","","","","","","","","","","","","","","","","","","","","","","","",""
"","","plant-game","0","58","788823","0-0","","200","160","8","CORN CROP","Right","200","190","4","THISTLE WEED","experimental","16","1,2,3,4,5,6,7,8","190,178.36069545373869,180.01028354231022,183.92376644178748,160,196.95921051438842,230.23254081691826,257.87736157531685","4,3,2,1,4,3,2,1","THISTLE WEED,THISTLE WEED,THISTLE WEED,THISTLE WEED,NETTLE WEED,NETTLE WEED,NETTLE WEED,NETTLE WEED","160,156.25410800503846,155.44261472846043,143.7111409755517,176.84281655914845,189.49296585537596,210.63770165114968,229.34793031017654","8,7,6,5,4,3,2,1","CORN CROP,CORN CROP,CORN CROP,CORN CROP,CORN CROP,CORN CROP,CORN CROP,CORN CROP","0,0,0,0,0,0,0,0","20,20,20,20,20,20,20,20","10,10,10,10,10,10,10,10","20,20,20,20,20,20,20,20","20,20,20,20,20,20,20,20","20,20,20,20,20,20,20,20","0,0,0,0,0,0,0,0","20,20,20,20,20,20,20,20","10,10,10,10,10,10,10,10","20,20,20,20,20,20,20,20","20,20,20,20,20,20,20,20","20,20,20,20,20,20,20,20","1,1,1,1,0,1,1,0","5645,943,775,954,4653,1217,623,641","-11.639304546261311,1.6495880885715195,3.9134828994772555,-15.155051683364341,36.9592105143884,33.27333030252984,27.64482075839861,-9.425715551583592","-3.7458919949615392,-0.8114932765780445,-11.731473752908723,33.131675583596746,12.650149296227513,21.144735795773737,18.71022865902684,-1.0885888199655716","0","0"
"417","86","text","0","59","789410","0-0","","","","","","","","","","","","","","","","","","","","","","","","","","","","","","","","","","","","",""
"","","plant-game","0","60","806560","0-0","","200","120","4","CORN CROP","Left","200","180","1","NETTLE WEED","experimental","17","1,2,3,4","120,136.74716183560938,155.24515525254998,195.52886498018665","4,3,2,1","CORN CROP,CORN CROP,CORN CROP,CORN CROP","180,170,191.55452146015264,172.64245603578948","1,3,2,1","NETTLE WEED,THISTLE WEED,THISTLE WEED,THISTLE WEED","20,20,20,20","20,20,20,20","10,10,10,10","20,20,20,20","0,0,0,0","20,20,20,20","20,20,20,20","20,20,20,20","10,10,10,10","20,20,20,20","0,0,0,0","20,20,20,20","0,0,1,1","3557,4398,927,1096","16.747161835609376,18.497993416940616,40.283709727636676,-21.12904583310285","24.957621588502615,21.55452146015265,-18.912065424363167,-34.39488822602321","0","0"
"500","86","text","0","61","807210","0-0","","","","","","","","","","","","","","","","","","","","","","","","","","","","","","","","","","","","",""
"","","plant-game","0","62","813733","0-0","","200","190","1","CORN CROP","Left","200","190","1","THISTLE WEED","experimental","18","1","190","1","CORN CROP","190","1","THISTLE WEED","20","20","10","20","0","20","20","20","10","20","0","20","0","2849","-14.173326574061427","19.852632032551938","0","0"
"610","86","text","0","63","814493","0-0","","","","","","","","","","","","","","","","","","","","","","","","","","","","","","","","","","","","",""
"","","plant-game","0","64","837325","0-0","","200","180","2","CORN CROP","Right","200","190","4","NETTLE WEED","experimental","19","1,2,3,4","190,205.0397154309089,215.6280650208551,219.74074638147601","4,3,2,1","NETTLE WEED,NETTLE WEED,NETTLE WEED,NETTLE WEED","180,227.80216316354228,180,174.45029642240988","2,1,2,1","CORN CROP,CORN CROP,WHEAT CROP,WHEAT CROP","0,0,0,0","20,20,20,20","10,10,10,10","20,20,20,20","20,20,20,20","20,20,20,20","0,0,0,0","20,20,20,20","10,10,10,10","20,20,20,20","20,20,20,20","20,20,20,20","1,0,0,1","11803,1160,2952,1255","15.039715430908892,10.588349589946194,4.112681360620911,36.02171315663303","47.80216316354229,-7.783771847761409,-5.549703577590133,2.1075291088460304","0","0"
"511","86","text","0","65","838006","0-0","","","","","","","","","","","","","","","","","","","","","","","","","","","","","","","","","","","","",""
"","","plant-game","0","66","859173","0-0","","200","190","8","WHEAT CROP","Right","200","120","4","THISTLE WEED","experimental","20","1,2,3,4,5,6,7,8","120,98.52274724064588,65.61369920739531,75.34009355956569,160,177.2611561295584,197.25708174677303,219.82069874119705","4,3,2,1,4,3,2,1","THISTLE WEED,THISTLE WEED,THISTLE WEED,THISTLE WEED,NETTLE WEED,NETTLE WEED,NETTLE WEED,NETTLE WEED","190,184.88814425885445,186.50594277040702,189.66291147648909,175.61103490423687,167.9887654377701,207.0056396607402,219.7534001923135","8,7,6,5,4,3,2,1","WHEAT CROP,WHEAT CROP,WHEAT CROP,WHEAT CROP,WHEAT CROP,WHEAT CROP,WHEAT CROP,WHEAT CROP","0,0,0,0,0,0,0,0","20,20,20,20,20,20,20,20","10,10,10,10,10,10,10,10","20,20,20,20,20,20,20,20","20,20,20,20,20,20,20,20","20,20,20,20,20,20,20,20","0,0,0,0,0,0,0,0","20,20,20,20,20,20,20,20","10,10,10,10,10,10,10,10","20,20,20,20,20,20,20,20","20,20,20,20,20,20,20,20","20,20,20,20,20,20,20,20","0,0,0,0,0,1,0,1","3654,1329,1103,1086,3161,1015,1276,1008","-21.477252759354112,-32.90904803325056,9.72639435217037,19.55366104008604,17.261156129558408,19.995925617214635,22.563616994424013,4.3570528677990765","-5.1118557411455505,1.6177985115525622,3.1569687060820706,-14.051876572252208,-7.6222694664667845,39.01687422297011,12.747760531573313,18.15651292395495","0","0"
"579","86","text","0","67","859920","0-0","","","","","","","","","","","","","","","","","","","","","","","","","","","","","","","","","","","","",""
"","","plant-game","0","68","889145","0-0","","200","160","2","WHEAT CROP","Left","200","120","8","THISTLE WEED","experimental","21","1,2,3,4,5,6,7,8","160,150.48813985850836,140,158.4525753525532,188.01307000264907,226.86545117938783,266.84445226210084,302.98917744886836","2,1,6,5,4,3,2,1","WHEAT CROP,WHEAT CROP,CORN CROP,CORN CROP,CORN CROP,CORN CROP,CORN CROP,CORN CROP","120,107.49564836530345,97.69916395061344,125.64155191753844,157.22886495629973,157.19784039382176,170.09000131278015,241.24351513988557","8,7,6,5,4,3,2,1","THISTLE WEED,THISTLE WEED,THISTLE WEED,THISTLE WEED,THISTLE WEED,THISTLE WEED,THISTLE WEED,THISTLE WEED","20,20,20,20,20,20,20,20","20,20,20,20,20,20,20,20","10,10,10,10,10,10,10,10","20,20,20,20,20,20,20,20","0,0,0,0,0,0,0,0","20,20,20,20,20,20,20,20","20,20,20,20,20,20,20,20","20,20,20,20,20,20,20,20","10,10,10,10,10,10,10,10","20,20,20,20,20,20,20,20","0,0,0,0,0,0,0,0","20,20,20,20,20,20,20,20","1,1,0,0,1,1,0,1","5154,1322,7006,3048,1600,1709,1369,715","-9.511860141491624,1.348552953248344,18.452575352553197,29.560494650095876,38.85238117673876,39.97900108271303,36.1447251867675,-17.035367036501913","-12.50435163469655,-9.79648441469001,27.94238796692499,31.58731303876131,-0.031024562477966783,12.892160918958389,71.15351382710543,-26.273162224894712","0","0"
"483","86","text","0","69","889815","0-0","","","","","","","","","","","","","","","","","","","","","","","","","","","","","","","","","","","","",""
"","","plant-game","0","70","915152","0-0","","200","160","8","WHEAT CROP","Left","200","120","8","THISTLE WEED","experimental","22","1,2,3,4,5,6,7,8","160,185.4616641755659,194.9767683132066,231.41322707165762,253.91785388883426,262.25648608971846,259.9889102661368,254.74948558451706","8,7,6,5,4,3,2,1","WHEAT CROP,WHEAT CROP,WHEAT CROP,WHEAT CROP,WHEAT CROP,WHEAT CROP,WHEAT CROP,WHEAT CROP","120,72.24499201438046,21.184375455478616,56.52505192795961,84.9566296199497,73.59015259108753,91.34390464921569,84.20490661828913","8,7,6,5,4,3,2,1","THISTLE WEED,THISTLE WEED,THISTLE WEED,THISTLE WEED,THISTLE WEED,THISTLE WEED,THISTLE WEED,THISTLE WEED","20,20,20,20,20,20,20,20","20,20,20,20,20,20,20,20","10,10,10,10,10,10,10,10","20,20,20,20,20,20,20,20","0,0,0,0,0,0,0,0","20,20,20,20,20,20,20,20","20,20,20,20,20,20,20,20","20,20,20,20,20,20,20,20","10,10,10,10,10,10,10,10","20,20,20,20,20,20,20,20","0,0,0,0,0,0,0,0","20,20,20,20,20,20,20,20","1,1,0,0,1,0,1,0","8169,960,2483,1003,1159,1137,727,948","25.461664175565875,9.515104137640728,36.436458758451025,22.50462681717663,8.338632200884232,-2.267575823581648,-5.239424681619753,16.212433160040767","-47.75500798561954,-51.06061655890184,35.34067647248099,28.431577691990093,-11.36647702886217,17.753752058128164,-7.138998030926552,-30.35063286360605","0","0"
"600","86","text","0","71","915932","0-0","","","","","","","","","","","","","","","","","","","","","","","","","","","","","","","","","","","","",""
"","","plant-game","0","72","938910","0-0","","200","120","1","WHEAT CROP","Left","200","120","8","NETTLE WEED","experimental","23","1,2,3,4,5,6,7,8","120,130,143.31052666113663,170.41387452487274,167.42553579015873,158.71974106902266,134.08086746906687,157.14838154856778","1,7,6,5,4,3,2,1","WHEAT CROP,CORN CROP,CORN CROP,CORN CROP,CORN CROP,CORN CROP,CORN CROP,CORN CROP","120,146.84720584877144,146.54984161551067,181.27476771657848,215.94267388637076,238.70173435320146,263.68942089423825,277.5093243564495","8,7,6,5,4,3,2,1","NETTLE WEED,NETTLE WEED,NETTLE WEED,NETTLE WEED,NETTLE WEED,NETTLE WEED,NETTLE WEED,NETTLE WEED","20,20,20,20,20,20,20,20","20,20,20,20,20,20,20,20","10,10,10,10,10,10,10,10","20,20,20,20,20,20,20,20","0,0,0,0,0,0,0,0","20,20,20,20,20,20,20,20","20,20,20,20,20,20,20,20","20,20,20,20,20,20,20,20","10,10,10,10,10,10,10,10","20,20,20,20,20,20,20,20","0,0,0,0,0,0,0,0","20,20,20,20,20,20,20,20","1,0,0,1,0,1,0,0","4919,4252,789,1108,712,442,720,363","13.113056102306048,13.310526661136642,27.1033478637361,-2.9883387347139956,-8.705794721136062,-24.638873599955794,23.067514079500917,20.37386772037758","26.847205848771438,-0.297364233260776,34.7249261010678,34.66790616979227,22.759060466830718,24.987686541036815,13.81990346221123,28.128190962969235","0","0"
"673","86","text","0","73","939763","0-0","","","","","","","","","","","","","","","","","","","","","","","","","","","","","","","","","","","","",""
"","","plant-game","0","74","955297","0-0","","200","190","4","WHEAT CROP","Left","200","190","2","THISTLE WEED","experimental","24","1,2,3,4","190,230.27491333918783,201.38687044525835,213.76369182705793","4,3,2,1","WHEAT CROP,WHEAT CROP,WHEAT CROP,WHEAT CROP","190,223.06550618623177,180,209.7336512052887","2,1,2,1","THISTLE WEED,THISTLE WEED,NETTLE WEED,NETTLE WEED","20,20,20,20","20,20,20,20","10,10,10,10","20,20,20,20","0,0,0,0","20,20,20,20","20,20,20,20","20,20,20,20","10,10,10,10","20,20,20,20","0,0,0,0","20,20,20,20","0,1,0,0","4064,792,1908,1357","40.27491333918785,-28.88804289392948,12.376821381799584,29.551233814155278","33.06550618623178,-33.45793508813594,29.733651205288712,16.735485709117476","0","0"
"570","86","text","0","75","956027","0-0","","","","","","","","","","","","","","","","","","","","","","","","","","","","","","","","","","","","",""
"","","plant-game","0","76","978122","0-0","","200","180","2","WHEAT CROP","Left","200","180","2","NETTLE WEED","experimental","25","1,2","180,210.4150188503516","2,1","WHEAT CROP,WHEAT CROP","180,206.01676169924335","2,1","NETTLE WEED,NETTLE WEED","20,20","20,20","10,10","20,20","0,0","20,20","20,20","20,20","10,10","20,20","0,0","20,20","0,0","16211,1174","30.415018850351604,48.52707391765223","26.016761699243336,-14.532937911367796","0","0"
"1718","86","text","0","77","980020","0-0","","","","","","","","","","","","","","","","","","","","","","","","","","","","","","","","","","","","",""
"","","plant-game","0","78","1001511","0-0","","200","160","2","CORN CROP","Left","200","180","2","NETTLE WEED","experimental","26","1,2","160,140.16166530367434","2,1","CORN CROP,CORN CROP","180,211.24246495339037","2,1","NETTLE WEED,NETTLE WEED","20,20","20,20","10,10","20,20","0,0","20,20","20,20","20,20","10,10","20,20","0,0","20,20","0,1","17143,871","-19.83833469632566,25.197512698909385","31.242464953390378,6.616589912741525","0","0"
"521","86","text","0","79","1002189","0-0","","","","","","","","","","","","","","","","","","","","","","","","","","","","","","","","","","","","",""
"","","plant-game","0","80","1009784","0-0","","200","120","1","CORN CROP","Right","200","120","1","NETTLE WEED","experimental","27","1","120","1","NETTLE WEED","120","1","CORN CROP","0","20","10","20","20","20","0","20","10","20","20","20","1","4057","6.539070442031985","10.96884353234228","0","0"
"304","86","text","0","81","1010288","0-0","","","","","","","","","","","","","","","","","","","","","","","","","","","","","","","","","","","","",""
"","","plant-game","0","82","1030541","0-0","","200","160","1","WHEAT CROP","Right","200","160","8","NETTLE WEED","experimental","28","1,2,3,4,5,6,7,8","160,150.02789290616343,139.29437535825235,163.3476442818466,196.94014853788957,256.16866857508484,245.84465466578234,247.71826082750223","8,7,6,5,4,3,2,1","NETTLE WEED,NETTLE WEED,NETTLE WEED,NETTLE WEED,NETTLE WEED,NETTLE WEED,NETTLE WEED,NETTLE WEED","160,130,130.9636878665139,156.34441114694374,181.3341706358645,208.85494032767446,202.62297531465686,208.63098345830167","1,7,6,5,4,3,2,1","WHEAT CROP,CORN CROP,CORN CROP,CORN CROP,CORN CROP,CORN CROP,CORN CROP,CORN CROP","0,0,0,0,0,0,0,0","20,20,20,20,20,20,20,20","10,10,10,10,10,10,10,10","20,20,20,20,20,20,20,20","20,20,20,20,20,20,20,20","20,20,20,20,20,20,20,20","0,0,0,0,0,0,0,0","20,20,20,20,20,20,20,20","10,10,10,10,10,10,10,10","20,20,20,20,20,20,20,20","20,20,20,20,20,20,20,20","20,20,20,20,20,20,20,20","0,0,0,0,1,0,0,0","4432,3454,754,561,1466,756,508,525","-9.972107093836572,-10.733517547911065,24.053268923594246,33.59250425604296,59.22852003719525,-10.324013909302483,1.873606161719903,-3.7358266653012424","10.47914385718725,0.9636878665139055,25.38072328042984,24.989759488920757,27.520769691809974,-6.231965013017602,6.008008143644824,8.379615350561675","0","0"
"154","86","text","0","83","1030855","0-0","","","","","","","","","","","","","","","","","","","","","","","","","","","","","","","","","","","","",""
"","","plant-game","0","84","1052966","0-0","","200","190","4","CORN CROP","Left","200","190","8","THISTLE WEED","experimental","29","1,2,3,4,5,6,7,8","190,231.73246832103573,262.70143285227203,295.531185207988,160,210.2665824952246,196.76737831606403,162.05138848927618","4,3,2,1,4,3,2,1","CORN CROP,CORN CROP,CORN CROP,CORN CROP,WHEAT CROP,WHEAT CROP,WHEAT CROP,WHEAT CROP","190,224.59936462383112,213.94957652987756,225.10928016399026,275.4487159044156,235.48912920234963,256.57928020848203,245.6515782328376","8,7,6,5,4,3,2,1","THISTLE WEED,THISTLE WEED,THISTLE WEED,THISTLE WEED,THISTLE WEED,THISTLE WEED,THISTLE WEED,THISTLE WEED","20,20,20,20,20,20,20,20","20,20,20,20,20,20,20,20","10,10,10,10,10,10,10,10","20,20,20,20,20,20,20,20","0,0,0,0,0,0,0,0","20,20,20,20,20,20,20,20","20,20,20,20,20,20,20,20","20,20,20,20,20,20,20,20","10,10,10,10,10,10,10,10","20,20,20,20,20,20,20,20","0,0,0,0,0,0,0,0","20,20,20,20,20,20,20,20","0,0,0,0,0,0,1,1","7451,383,344,397,2441,711,922,471","41.732468321035725,30.968964531236285,32.82975235571597,37.3820090561827,50.26658249522461,-13.4992041791606,-34.71598982678786,5.058087805076354","34.59936462383112,-10.649788093953546,11.159703634112706,50.33943574042537,-39.95958670206599,21.090151006132405,-10.927701975644428,13.399167312871807","0","0"
"617","86","text","0","85","1053763","0-0","","","","","","","","","","","","","","","","","","","","","","","","","","","","","","","","","","","","",""
"","","plant-game","0","86","1069211","0-0","","200","190","8","CORN CROP","Left","200","180","4","THISTLE WEED","experimental","30","1,2,3,4,5,6,7,8","190,223.52902182343882,264.2044931484494,256.56330606948427,253.416366221014,244.81475715615073,277.8734843927618,302.5895316953136","8,7,6,5,4,3,2,1","CORN CROP,CORN CROP,CORN CROP,CORN CROP,CORN CROP,CORN CROP,CORN CROP,CORN CROP","180,194.19161348673,250.26085022163966,245.94211350135595,160,184.6332209245685,213.96598414189793,243.15533730747816","4,3,2,1,4,3,2,1","THISTLE WEED,THISTLE WEED,THISTLE WEED,THISTLE WEED,NETTLE WEED,NETTLE WEED,NETTLE WEED,NETTLE WEED","20,20,20,20,20,20,20,20","20,20,20,20,20,20,20,20","10,10,10,10,10,10,10,10","20,20,20,20,20,20,20,20","0,0,0,0,0,0,0,0","20,20,20,20,20,20,20,20","20,20,20,20,20,20,20,20","20,20,20,20,20,20,20,20","10,10,10,10,10,10,10,10","20,20,20,20,20,20,20,20","0,0,0,0,0,0,0,0","20,20,20,20,20,20,20,20","1,0,1,1,0,0,0,0","3771,1158,695,296,1513,336,537,353","33.52902182343881,40.675471325010555,-7.641187078965114,-3.146939848470282,-8.601609064863247,33.05872723661107,24.71604730255183,24.193643583708486","14.191613486730017,56.06923673490965,-4.318736720283705,19.693476208635378,24.633220924568494,29.332763217329433,29.189353165580233,19.143552770819674","0","0"
"628","86","text","0","87","1069995","0-0","","","","","","","","","","","","","","","","","","","","","","","","","","","","","","","","","","","","",""
"","","plant-game","0","88","1081733","0-0","","200","160","1","CORN CROP","Left","200","160","1","NETTLE WEED","experimental","31","1","160","1","CORN CROP","160","1","NETTLE WEED","20","20","10","20","0","20","20","20","10","20","0","20","1","5843","24.82362013758227","2.576320888382905","0","0"
"689","86","text","0","89","1082582","0-0","","","","","","","","","","","","","","","","","","","","","","","","","","","","","","","","","","","","",""
"","","plant-game","0","90","1115169","0-0","","200","180","1","WHEAT CROP","Right","200","190","8","THISTLE WEED","experimental","32","1,2,3,4,5,6,7,8","190,152.84386823120235,171.3097900995324,195.30260169152086,202.43502864331035,169.61442156183068,171.34558907203,189.82629714637494","8,7,6,5,4,3,2,1","THISTLE WEED,THISTLE WEED,THISTLE WEED,THISTLE WEED,THISTLE WEED,THISTLE WEED,THISTLE WEED,THISTLE WEED","180,130,125.87447059564933,80.16526638002813,105.91716240411853,111.28060299800866,107.94450820936109,81.11368179937988","1,7,6,5,4,3,2,1","WHEAT CROP,CORN CROP,CORN CROP,CORN CROP,CORN CROP,CORN CROP,CORN CROP,CORN CROP","0,0,0,0,0,0,0,0","20,20,20,20,20,20,20,20","10,10,10,10,10,10,10,10","20,20,20,20,20,20,20,20","20,20,20,20,20,20,20,20","20,20,20,20,20,20,20,20","0,0,0,0,0,0,0,0","20,20,20,20,20,20,20,20","10,10,10,10,10,10,10,10","20,20,20,20,20,20,20,20","20,20,20,20,20,20,20,20","20,20,20,20,20,20,20,20","0,0,0,1,0,0,0,1","4512,10834,1055,839,791,742,820,602","-37.15613176879764,18.465921868330042,23.99281159198847,7.132426951789494,-32.82060708147967,1.7311675101993234,18.48070807434493,12.964066918274252","-21.659304725820334,-4.125529404350669,-45.7092042156212,25.7518960240904,5.36344059389013,-3.33609478864757,-26.83082640998121,4.448125048101204","0","0"
"197","86","text","0","91","1115506","0-0","","","","","","","","","","","","","","","","","","","","","","","","","","","","","","","","","","","","",""
"","","plant-game","0","92","1132208","0-0","","200","180","8","CORN CROP","Left","200","120","8","THISTLE WEED","experimental","33","1,2,3,4,5,6,7,8","180,202.96789755131908,228.6715416520797,229.74058651144819,153.63211320975577,180.23638771867365,192.33987618092257,197.9735835848738","8,7,6,5,4,3,2,1","CORN CROP,CORN CROP,CORN CROP,CORN CROP,CORN CROP,CORN CROP,CORN CROP,CORN CROP","120,143.2238483890776,131.48852964924816,146.9688095645015,142.02829225975012,140.68371054545545,154.71511019396843,193.12577360134816","8,7,6,5,4,3,2,1","THISTLE WEED,THISTLE WEED,THISTLE WEED,THISTLE WEED,THISTLE WEED,THISTLE WEED,THISTLE WEED,THISTLE WEED","20,20,20,20,20,20,20,20","20,20,20,20,20,20,20,20","10,10,10,10,10,10,10,10","20,20,20,20,20,20,20,20","0,0,0,0,0,0,0,0","20,20,20,20,20,20,20,20","20,20,20,20,20,20,20,20","20,20,20,20,20,20,20,20","10,10,10,10,10,10,10,10","20,20,20,20,20,20,20,20","0,0,0,0,0,0,0,0","20,20,20,20,20,20,20,20","0,0,0,1,0,0,0,0","5086,1144,589,839,901,500,448,561","22.967897551319073,25.703644100760613,1.069044859368482,-76.10847330169241,26.60427450891787,12.10348846224893,5.633707403951247,28.081802055426465","23.22384838907761,-11.735318739829449,15.480279915253334,-4.940517304751367,-1.3445817142946659,14.031399648512984,38.410663407379715,5.861059838950718","0","0"
"661","86","text","0","93","1133049","0-0","","","","","","","","","","","","","","","","","","","","","","","","","","","","","","","","","","","","",""
"","","plant-game","0","94","1150835","0-0","","200","190","8","WHEAT CROP","Right","200","120","8","NETTLE WEED","experimental","34","1,2,3,4,5,6,7,8","120,106.30982172859406,83.73141991797955,72.97949454060591,79.84991575375791,61.7544548466339,68.52053154926868,98.7851331364999","8,7,6,5,4,3,2,1","NETTLE WEED,NETTLE WEED,NETTLE WEED,NETTLE WEED,NETTLE WEED,NETTLE WEED,NETTLE WEED,NETTLE WEED","190,213.5488413409567,234.50733665365897,229.50604501300785,233.17710935617035,219.88638071032028,219.16491295018227,242.74117381597716","8,7,6,5,4,3,2,1","WHEAT CROP,WHEAT CROP,WHEAT CROP,WHEAT CROP,WHEAT CROP,WHEAT CROP,WHEAT CROP,WHEAT CROP","0,0,0,0,0,0,0,0","20,20,20,20,20,20,20,20","10,10,10,10,10,10,10,10","20,20,20,20,20,20,20,20","20,20,20,20,20,20,20,20","20,20,20,20,20,20,20,20","0,0,0,0,0,0,0,0","20,20,20,20,20,20,20,20","10,10,10,10,10,10,10,10","20,20,20,20,20,20,20,20","20,20,20,20,20,20,20,20","20,20,20,20,20,20,20,20","1,1,1,0,0,0,0,0","5595,680,703,1504,620,577,521,407","-13.69017827140594,-22.57840181061451,-10.751925377373631,6.870421213151994,-18.095460907124014,6.7660767026347814,30.26460158723122,-9.691950995035118","23.548841340956695,20.958495312702272,-5.001291640651107,3.6710643431625094,-13.290728645850056,-0.7214677601380006,23.576260865794882,22.763871467076136","0","0"
"529","86","text","0","95","1151514","0-0","","","","","","","","","","","","","","","","","","","","","","","","","","","","","","","","","","","","",""
"","","plant-game","0","96","1174373","0-0","","200","180","8","WHEAT CROP","Left","200","180","2","NETTLE WEED","experimental","35","1,2,3,4,5,6,7,8","180,188.04332226585714,167.13891438735536,182.4573234607115,213.26537760148616,223.62840943504688,224.25803005996346,216.63860754175244","8,7,6,5,4,3,2,1","WHEAT CROP,WHEAT CROP,WHEAT CROP,WHEAT CROP,WHEAT CROP,WHEAT CROP,WHEAT CROP,WHEAT CROP","180,166.36029744613666,140,179.08620857152974,154.863265248591,168.29966893950078,138.6230743497955,143.5159756750254","2,1,6,5,4,3,2,1","NETTLE WEED,NETTLE WEED,THISTLE WEED,THISTLE WEED,THISTLE WEED,THISTLE WEED,THISTLE WEED,THISTLE WEED","20,20,20,20,20,20,20,20","20,20,20,20,20,20,20,20","10,10,10,10,10,10,10,10","20,20,20,20,20,20,20,20","0,0,0,0,0,0,0,0","20,20,20,20,20,20,20,20","20,20,20,20,20,20,20,20","20,20,20,20,20,20,20,20","10,10,10,10,10,10,10,10","20,20,20,20,20,20,20,20","0,0,0,0,0,0,0,0","20,20,20,20,20,20,20,20","0,0,0,0,0,1,1,0","3425,779,4149,1622,1355,1418,1100,1331","8.043322265857151,-20.904407878501786,15.318409073356136,30.80805414077467,10.3630318335607,0.6296206249165746,-7.61942251821101,32.77479125431786","-13.639702553863359,44.22901628563736,39.086208571529745,-24.22294332293872,13.436403690909774,-29.67659458970527,4.892901325229902,-4.664380310664633","0","0"
"737","86","text","0","97","1175290","0-0","","","","","","","","","","","","","","","","","","","","","","","","","","","","","","","","","","","","",""
"","","plant-game","0","98","1207252","0-0","","200","190","2","CORN CROP","Left","200","120","4","THISTLE WEED","experimental","36","1,2,3,4","190,232.6737305278658,180,202.4270866973958","2,1,2,1","CORN CROP,CORN CROP,WHEAT CROP,WHEAT CROP","120,132.63820580137002,124.5440376492203,132.5623427235125","4,3,2,1","THISTLE WEED,THISTLE WEED,THISTLE WEED,THISTLE WEED","20,20,20,20","20,20,20,20","10,10,10,10","20,20,20,20","0,0,0,0","20,20,20,20","20,20,20,20","20,20,20,20","10,10,10,10","20,20,20,20","0,0,0,0","20,20,20,20","0,1,0,0","6564,744,16771,1282","42.67373052786582,-28.724861255467218,22.427086697395783,22.509839573139573","12.63820580137002,-8.094168152149726,8.018305074292213,-30.147495582621488","0","0"
"703","86","text","0","99","1208105","0-0","","","","","","","","","","","","","","","","","","","","","","","","","","","","","","","","","","","","",""
"","","plant-game","0","100","1225521","0-0","","200","120","2","WHEAT CROP","Left","200","190","2","NETTLE WEED","experimental","37","1,2","120,111.83752279611687","2,1","WHEAT CROP,WHEAT CROP","190,231.40311007523098","2,1","NETTLE WEED,NETTLE WEED","20,20","20,20","10,10","20,20","0,0","20,20","20,20","20,20","10,10","20,20","0,0","20,20","0,0","12040,1944","-8.162477203883128,25.409456821367392","41.403110075231,9.47026320476768","0","0"
"499","86","text","0","101","1226170","0-0","","","","","","","","","","","","","","","","","","","","","","","","","","","","","","","","","","","","",""
"","","plant-game","0","102","1242543","0-0","","200","160","1","CORN CROP","Left","200","160","2","THISTLE WEED","experimental","38","1,2","160,190","1,1","CORN CROP,WHEAT CROP","160,153.3897926552706","2,1","THISTLE WEED,THISTLE WEED","20,20","20,20","10,10","20,20","0,0","20,20","20,20","20,20","10,10","20,20","0,0","20,20","1,0","4348,4553","16.615792809929523,23.82633388231908","-6.610207344729383,24.415768604085507","0","0"
"539","86","text","0","103","1243233","0-0","","","","","","","","","","","","","","","","","","","","","","","","","","","","","","","","","","","","",""
"","","plant-game","0","104","1288950","0-0","","200","180","8","CORN CROP","Right","200","120","1","NETTLE WEED","experimental","39","1,2,3,4,5,6,7,8","120,130,101.89493597910149,121.02061307807453,117.64975522905685,117.47455566871542,121.48116208661479,116.35373555394098","1,7,6,5,4,3,2,1","NETTLE WEED,THISTLE WEED,THISTLE WEED,THISTLE WEED,THISTLE WEED,THISTLE WEED,THISTLE WEED,THISTLE WEED","180,179.45624705664676,195.47975273503286,159.6531742356539,153.37560270366407,155.25882991750342,159.59238215164999,174.77639566276892","8,7,6,5,4,3,2,1","CORN CROP,CORN CROP,CORN CROP,CORN CROP,CORN CROP,CORN CROP,CORN CROP,CORN CROP","0,0,0,0,0,0,0,0","20,20,20,20,20,20,20,20","10,10,10,10,10,10,10,10","20,20,20,20,20,20,20,20","20,20,20,20,20,20,20,20","20,20,20,20,20,20,20,20","0,0,0,0,0,0,0,0","20,20,20,20,20,20,20,20","10,10,10,10,10,10,10,10","20,20,20,20,20,20,20,20","20,20,20,20,20,20,20,20","20,20,20,20,20,20,20,20","0,0,0,0,1,0,0,0","5083,5944,753,7952,6760,4680,3855,1051","13.518623046894362,-28.105064020898514,19.125677098973043,-3.37085784901768,-0.17519956034143291,4.006606417899363,-5.127426532673812,34.63955955119219","-0.5437529433532328,16.0235056783861,-35.82657849937897,-6.2775715319898335,1.8832272138393336,4.333552234146573,15.184013511118941,-35.859767451299774","0","0"
"622","86","text","0","105","1289744","0-0","","","","","","","","","","","","","","","","","","","","","","","","","","","","","","","","","","","","",""
"","","plant-game","0","106","1329763","0-0","","200","120","2","WHEAT CROP","Right","200","180","8","THISTLE WEED","experimental","40","1,2,3,4,5,6,7,8","180,193.63451020095823,216.96051161459954,249.21334825495313,232.15570666252862,209.52075796147028,216.65670194424146,232.8107855774727","8,7,6,5,4,3,2,1","THISTLE WEED,THISTLE WEED,THISTLE WEED,THISTLE WEED,THISTLE WEED,THISTLE WEED,THISTLE WEED,THISTLE WEED","120,127.02332394763252,140,131.94917843467132,140.04532226204614,152.00634696407525,160.8920491499094,172.57778288380553","2,1,6,5,4,3,2,1","WHEAT CROP,WHEAT CROP,CORN CROP,CORN CROP,CORN CROP,CORN CROP,CORN CROP,CORN CROP","0,0,0,0,0,0,0,0","20,20,20,20,20,20,20,20","10,10,10,10,10,10,10,10","20,20,20,20,20,20,20,20","20,20,20,20,20,20,20,20","20,20,20,20,20,20,20,20","0,0,0,0,0,0,0,0","20,20,20,20,20,20,20,20","10,10,10,10,10,10,10,10","20,20,20,20,20,20,20,20","20,20,20,20,20,20,20,20","20,20,20,20,20,20,20,20","1,1,0,0,0,0,0,1","13951,6579,6685,1156,942,488,630,850","13.634510200958225,23.32600141364131,32.25283664035359,-17.057641592424517,-22.634948701058338,7.135943982771179,16.154083633231238,60.900246707399155","7.023323947632523,16.728050702706007,-8.050821565328679,8.096143827374828,11.961024702029103,8.885702185834164,11.6857337338961,8.840863234467577","0","0"
"536","86","text","0","107","1330439","0-0","","","","","","","","","","","","","","","","","","","","","","","","","","","","","","","","","","","","",""
"","","plant-game","0","108","1340614","0-0","","200","120","1","WHEAT CROP","Left","200","160","1","NETTLE WEED","experimental","41","1","120","1","WHEAT CROP","160","1","NETTLE WEED","20","20","10","20","0","20","20","20","10","20","0","20","0","6433","14.844171839662641","68.63480323834658","0","0"
"500","86","text","0","109","1341254","0-0","","","","","","","","","","","","","","","","","","","","","","","","","","","","","","","","","","","","",""
"","","plant-game","0","110","1374700","0-0","","200","180","4","CORN CROP","Right","200","160","2","THISTLE WEED","experimental","42","1,2,3,4","160,152.84672212061614,180,152.86500016906558","2,1,2,1","THISTLE WEED,THISTLE WEED,NETTLE WEED,NETTLE WEED","180,197.49134813444672,212.27807844293187,200.67757546353957","4,3,2,1","CORN CROP,CORN CROP,CORN CROP,CORN CROP","0,0,0,0","20,20,20,20","10,10,10,10","20,20,20,20","20,20,20,20","20,20,20,20","0,0,0,0","20,20,20,20","10,10,10,10","20,20,20,20","20,20,20,20","20,20,20,20","0,1,0,0","7821,6458,8029,4460","-7.153277879383876,44.90686077056672,-27.134999830934426,-13.11147919158666","17.491348134446728,14.78673030848514,-11.600502979392296,28.167459343933526","0","0"
"570","86","text","0","111","1375411","0-0","","","","","","","","","","","","","","","","","","","","","","","","","","","","","","","","","","","","",""
"","","plant-game","0","112","1406582","0-0","","200","120","1","CORN CROP","Right","200","190","8","NETTLE WEED","experimental","43","1,2,3,4,5,6,7,8","190,228.57190856766465,241.46363746034874,236.00791602206152,220.6966596664573,229.62020011283832,276.4905532332514,268.7599352056659","8,7,6,5,4,3,2,1","NETTLE WEED,NETTLE WEED,NETTLE WEED,NETTLE WEED,NETTLE WEED,NETTLE WEED,NETTLE WEED,NETTLE WEED","120,130,135.65056871689285,148.53299056947048,209.68094343092417,220.93575508895321,225.7556586353978,232.4191314055044","1,7,6,5,4,3,2,1","CORN CROP,WHEAT CROP,WHEAT CROP,WHEAT CROP,WHEAT CROP,WHEAT CROP,WHEAT CROP,WHEAT CROP","0,0,0,0,0,0,0,0","20,20,20,20,20,20,20,20","10,10,10,10,10,10,10,10","20,20,20,20,20,20,20,20","20,20,20,20,20,20,20,20","20,20,20,20,20,20,20,20","0,0,0,0,0,0,0,0","20,20,20,20,20,20,20,20","10,10,10,10,10,10,10,10","20,20,20,20,20,20,20,20","20,20,20,20,20,20,20,20","20,20,20,20,20,20,20,20","0,0,1,1,1,1,0,0","11418,6894,770,471,499,627,468,376","38.57190856766466,12.891728892684098,-5.455721438287213,-15.311256355604229,8.923540446381036,46.87035312041303,-7.730618027585486,-63.66741809774652","-42.040906223959695,5.650568716892858,12.882421852577648,61.147952861453675,11.25481165802903,4.819903546444573,6.663472770106606,-32.64950527957324","1","0"
"543","86","text","0","113","1407275","0-0","","","","","","","","","","","","","","","","","","","","","","","","","","","","","","","","","","","","",""
"","","plant-game","0","114","1423189","0-0","","200","180","1","WHEAT CROP","Left","200","180","2","THISTLE WEED","experimental","44","1,2","180,190","1,1","WHEAT CROP,CORN CROP","180,187.20391659383503","2,1","THISTLE WEED,THISTLE WEED","20,20","20,20","10,10","20,20","0,0","20,20","20,20","20,20","10,10","20,20","0,0","20,20","1,1","7212,957","-43.06824544317397,-24.422607860121445","7.203916593835046,37.139736173346904","0","0"
"488","86","text","0","115","1423877","0-0","","","","","","","","","","","","","","","","","","","","","","","","","","","","","","","","","","","","",""
"","","plant-game","0","116","1439403","0-0","","200","190","2","WHEAT CROP","Left","200","190","4","NETTLE WEED","experimental","45","1,2,3,4","190,186.78882474341145,180,229.9991804956242","2,1,2,1","WHEAT CROP,WHEAT CROP,CORN CROP,CORN CROP","190,199.04649989915126,242.97388002868007,255.16884714278928","4,3,2,1","NETTLE WEED,NETTLE WEED,NETTLE WEED,NETTLE WEED","20,20,20,20","20,20,20,20","10,10,10,10","20,20,20,20","0,0,0,0","20,20,20,20","20,20,20,20","20,20,20,20","10,10,10,10","20,20,20,20","0,0,0,0","20,20,20,20","0,0,0,0","5366,1453,1406,1811","-3.2111752565885574,-5.708353762938035,49.99918049562419,23.996717713409492","9.046499899151252,43.92738012952883,12.194967114109204,1.5847016268201628","2","0"
"610","86","text","0","117","1440255","0-0","","","","","","","","","","","","","","","","","","","","","","","","","","","","","","","","","","","","",""
"","","plant-game","0","118","1466078","0-0","","200","190","8","WHEAT CROP","Right","200","190","1","THISTLE WEED","experimental","46","1,2,3,4,5,6,7,8","190,130,153.01863963212875,204.80905560132845,229.01518425199544,226.46109517009876,254.60952812725668,283.5352327323151","1,7,6,5,4,3,2,1","THISTLE WEED,NETTLE WEED,NETTLE WEED,NETTLE WEED,NETTLE WEED,NETTLE WEED,NETTLE WEED,NETTLE WEED","190,176.11406777471873,200.30803250286206,202.58616489584455,212.20312514558933,267.65026847207645,290.20108268158714,310.4641288238176","8,7,6,5,4,3,2,1","WHEAT CROP,WHEAT CROP,WHEAT CROP,WHEAT CROP,WHEAT CROP,WHEAT CROP,WHEAT CROP,WHEAT CROP","0,0,0,0,0,0,0,0","20,20,20,20,20,20,20,20","10,10,10,10,10,10,10,10","20,20,20,20,20,20,20,20","20,20,20,20,20,20,20,20","20,20,20,20,20,20,20,20","0,0,0,0,0,0,0,0","20,20,20,20,20,20,20,20","10,10,10,10,10,10,10,10","20,20,20,20,20,20,20,20","20,20,20,20,20,20,20,20","20,20,20,20,20,20,20,20","0,1,1,0,1,1,1,1","7503,7504,836,772,511,412,469,362","32.58704505010525,23.01863963212876,51.79041596919971,24.20612865066699,-2.554089081896688,28.148432957157908,28.925704605058428,44.68907537151115","-13.885932225281257,24.193964728143317,2.2781323929824957,9.616960249744782,55.447143326487115,22.550814209510666,20.263046142230465,6.096444313797239","1","0"
"559","86","text","0","119","1466827","0-0","","","","","","","","","","","","","","","","","","","","","","","","","","","","","","","","","","","","",""
"","","plant-game","0","120","1492011","0-0","","200","190","2","WHEAT CROP","Right","200","180","8","NETTLE WEED","experimental","47","1,2,3,4,5,6,7,8","180,152.55358285439485,162.56230670273058,160.87223374823049,137.90612095674967,144.46181857933772,146.17175822484106,104.13071885152596","8,7,6,5,4,3,2,1","NETTLE WEED,NETTLE WEED,NETTLE WEED,NETTLE WEED,NETTLE WEED,NETTLE WEED,NETTLE WEED,NETTLE WEED","190,154.10246247083185,140,160.1596367720654,159.17750585388782,99.33522067849508,111.52039736495956,103.74825375212632","2,1,6,5,4,3,2,1","WHEAT CROP,WHEAT CROP,CORN CROP,CORN CROP,CORN CROP,CORN CROP,CORN CROP,CORN CROP","0,0,0,0,0,0,0,0","20,20,20,20,20,20,20,20","10,10,10,10,10,10,10,10","20,20,20,20,20,20,20,20","20,20,20,20,20,20,20,20","20,20,20,20,20,20,20,20","0,0,0,0,0,0,0,0","20,20,20,20,20,20,20,20","10,10,10,10,10,10,10,10","20,20,20,20,20,20,20,20","20,20,20,20,20,20,20,20","20,20,20,20,20,20,20,20","0,1,0,0,0,0,0,0","8025,3923,3125,542,462,1007,411,440","-27.44641714560515,10.008723848335743,-1.690072954500087,-22.96611279148081,6.555697622588052,1.7099396455033402,-42.041039373315094,8.929709109395462","-35.89753752916815,36.71543461406285,20.15963677206539,-0.982130918177586,-59.842285175392746,12.185176686464494,-7.7721436128332435,12.269561344041255","1","0"
"538","86","text","0","121","1492721","0-0","","","","","","","","","","","","","","","","","","","","","","","","","","","","","","","","","","","","",""
"","","plant-game","0","122","1508868","0-0","","200","180","2","WHEAT CROP","Right","200","180","4","THISTLE WEED","experimental","48","1,2,3,4","180,157.61561500514964,183.28707091606643,204.3790509694891","4,3,2,1","THISTLE WEED,THISTLE WEED,THISTLE WEED,THISTLE WEED","180,186.73695360176404,180,162.65505500305437","2,1,2,1","WHEAT CROP,WHEAT CROP,CORN CROP,CORN CROP","0,0,0,0","20,20,20,20","10,10,10,10","20,20,20,20","20,20,20,20","20,20,20,20","0,0,0,0","20,20,20,20","10,10,10,10","20,20,20,20","20,20,20,20","20,20,20,20","0,0,0,0","2821,1329,4146,1580","-22.38438499485037,25.6714559109168,21.091980053422663,-28.924255027604055","6.736953601764032,3.9356188929842113,-17.34494499694564,21.81922943937228","1","0"
"16375","86","text","0","123","1525478","0-0","","","","","","","","","","","","","","","","","","","","","","","","","","","","","","","","","","","","",""
"","","plant-game","0","124","1558089","0-0","","200","160","8","WHEAT CROP","Left","200","190","1","NETTLE WEED","experimental","49","1,2,3,4,5,6,7,8","160,148.81101702764155,193.07702589460627,183.17788167496477,226.42802541726996,184.01370692923126,240.65784032288963,296.0190663014036","8,7,6,5,4,3,2,1","WHEAT CROP,WHEAT CROP,WHEAT CROP,WHEAT CROP,WHEAT CROP,WHEAT CROP,WHEAT CROP,WHEAT CROP","190,130,155.7494354830842,161.40451275914802,159.10416802287446,130.80254148396074,127.95397254752741,154.3902402590707","1,7,6,5,4,3,2,1","NETTLE WEED,THISTLE WEED,THISTLE WEED,THISTLE WEED,THISTLE WEED,THISTLE WEED,THISTLE WEED,THISTLE WEED","20,20,20,20,20,20,20,20","20,20,20,20,20,20,20,20","10,10,10,10,10,10,10,10","20,20,20,20,20,20,20,20","0,0,0,0,0,0,0,0","20,20,20,20,20,20,20,20","20,20,20,20,20,20,20,20","20,20,20,20,20,20,20,20","10,10,10,10,10,10,10,10","20,20,20,20,20,20,20,20","0,0,0,0,0,0,0,0","20,20,20,20,20,20,20,20","0,0,1,1,1,0,0,0","7161,8831,2865,620,1050,1667,759,563","-11.188982972358438,44.266008866964704,-9.899144219641498,43.25014374230519,-42.41431848803869,56.644133393658365,55.361225978513986,22.99085459902389","7.320679444363131,25.74943548308421,5.655077276063819,-2.30034473627355,-28.301626538913716,-2.848568936433324,26.436267711543287,17.397372794726373","1","0"
"642","86","text","0","125","1558891","0-0","","","","","","","","","","","","","","","","","","","","","","","","","","","","","","","","","","","","",""
"","","plant-game","0","126","1580217","0-0","","200","160","8","WHEAT CROP","Right","200","160","4","THISTLE WEED","experimental","50","1,2,3,4,5,6,7,8","160,172.72518237022683,170.9577121531118,175.5544774883083,160,171.13801269695446,204.7894013834553,204.32948447906574","4,3,2,1,4,3,2,1","THISTLE WEED,THISTLE WEED,THISTLE WEED,THISTLE WEED,NETTLE WEED,NETTLE WEED,NETTLE WEED,NETTLE WEED","160,162.96423539065108,178.64969626426546,202.66648455026868,218.28145855264455,265.09289025594654,279.43074262428934,305.00708581256515","8,7,6,5,4,3,2,1","WHEAT CROP,WHEAT CROP,WHEAT CROP,WHEAT CROP,WHEAT CROP,WHEAT CROP,WHEAT CROP,WHEAT CROP","0,0,0,0,0,0,0,0","20,20,20,20,20,20,20,20","10,10,10,10,10,10,10,10","20,20,20,20,20,20,20,20","20,20,20,20,20,20,20,20","20,20,20,20,20,20,20,20","0,0,0,0,0,0,0,0","20,20,20,20,20,20,20,20","10,10,10,10,10,10,10,10","20,20,20,20,20,20,20,20","20,20,20,20,20,20,20,20","20,20,20,20,20,20,20,20","0,0,0,0,1,1,0,0","4416,715,664,1336,4571,659,599,483","12.725182370226843,-1.7674702171150327,4.596765335196506,9.575171977491921,11.138012696954458,33.65138868650082,-0.4599169043895567,-34.86484870775908","2.964235390651087,15.68546087361437,24.016788286003216,15.614974002375877,46.811431703302006,14.337852368342817,25.576343188275807,2.893137529826922","0","0"
"664","86","text","0","127","1581081","0-0","","","","","","","","","","","","","","","","","","","","","","","","","","","","","","","","","","","","",""
"","","plant-game","0","128","1593234","0-0","","200","160","1","CORN CROP","Right","200","180","4","NETTLE WEED","experimental","51","1,2,3,4","180,196.6252887450227,230.43792218074591,230.9303907595866","4,3,2,1","NETTLE WEED,NETTLE WEED,NETTLE WEED,NETTLE WEED","160,170,180.02053269289846,219.53003042087377","1,3,2,1","CORN CROP,WHEAT CROP,WHEAT CROP,WHEAT CROP","0,0,0,0","20,20,20,20","10,10,10,10","20,20,20,20","20,20,20,20","20,20,20,20","0,0,0,0","20,20,20,20","10,10,10,10","20,20,20,20","20,20,20,20","20,20,20,20","1,0,0,0","2890,1260,884,467","16.625288745022686,33.81263343572322,0.4924685788406795,22.439054248597454","33.348212735395194,10.020532692898465,39.509497727975315,3.258866392891526","0","0"
"648","86","text","0","129","1594122","0-0","","","","","","","","","","","","","","","","","","","","","","","","","","","","","","","","","","","","",""
"","","plant-game","0","130","1605429","0-0","","200","190","1","WHEAT CROP","Left","200","190","2","THISTLE WEED","experimental","52","1,2","190,190","1,1","WHEAT CROP,CORN CROP","190,223.2349928571653","2,1","THISTLE WEED,THISTLE WEED","20,20","20,20","10,10","20,20","0,0","20,20","20,20","20,20","10,10","20,20","0,0","20,20","0,0","3714,2013","20.281985073309723,-19.906827857746713","33.234992857165324,46.44164502981476","1","0"
"901","86","text","0","131","1606590","0-0","","","","","","","","","","","","","","","","","","","","","","","","","","","","","","","","","","","","",""
"","","plant-game","0","132","1623554","0-0","","200","190","4","CORN CROP","Right","200","190","1","THISTLE WEED","experimental","53","1,2,3,4","190,170,183.27874499394238,172.52063318540877","1,3,2,1","THISTLE WEED,NETTLE WEED,NETTLE WEED,NETTLE WEED","190,185.56945012785243,186.8922622161349,190.35627847539422","4,3,2,1","CORN CROP,CORN CROP,CORN CROP,CORN CROP","0,0,0,0","20,20,20,20","10,10,10,10","20,20,20,20","20,20,20,20","20,20,20,20","0,0,0,0","20,20,20,20","10,10,10,10","20,20,20,20","20,20,20,20","20,20,20,20","0,0,0,1","2986,3642,2062,1980","-12.881176378966412,13.278744993942372,-10.758111808533616,14.950418237317091","-4.430549872147568,1.322812088282466,3.4640162592593278,44.04418899033878","0","0"
"1028","86","text","0","133","1624815","0-0","","","","","","","","","","","","","","","","","","","","","","","","","","","","","","","","","","","","",""
"","","plant-game","0","134","1636718","0-0","","200","120","4","WHEAT CROP","Right","200","120","4","NETTLE WEED","experimental","54","1,2,3,4","120,137.19526896249744,161.59022853007605,162.9362085642225","4,3,2,1","NETTLE WEED,NETTLE WEED,NETTLE WEED,NETTLE WEED","120,162.76386234498716,186.0856379042314,202.11734636568437","4,3,2,1","WHEAT CROP,WHEAT CROP,WHEAT CROP,WHEAT CROP","0,0,0,0","20,20,20,20","10,10,10,10","20,20,20,20","20,20,20,20","20,20,20,20","0,0,0,0","20,20,20,20","10,10,10,10","20,20,20,20","20,20,20,20","20,20,20,20","1,1,1,1","4451,1152,661,1294","17.195268962497448,24.39495956757861,1.3459800341464785,7.986047720090156","42.763862344987146,23.32177555924424,16.031708461452986,87.9312405768048","0","0"
"637","86","text","0","135","1637545","0-0","","","","","","","","","","","","","","","","","","","","","","","","","","","","","","","","","","","","",""
"","","plant-game","0","136","1661319","0-0","","200","120","4","WHEAT CROP","Right","200","160","8","THISTLE WEED","experimental","55","1,2,3,4,5,6,7,8","160,212.5670569278936,243.9458824728369,268.9659102822217,267.55846560697495,221.07829547289822,174.99878461182522,194.9517453699879","8,7,6,5,4,3,2,1","THISTLE WEED,THISTLE WEED,THISTLE WEED,THISTLE WEED,THISTLE WEED,THISTLE WEED,THISTLE WEED,THISTLE WEED","120,128.6229408910385,184.99430881010116,235.12244961313985,160,155.09667989349032,149.93292833377674,132.8173419336937","4,3,2,1,4,3,2,1","WHEAT CROP,WHEAT CROP,WHEAT CROP,WHEAT CROP,CORN CROP,CORN CROP,CORN CROP,CORN CROP","0,0,0,0,0,0,0,0","20,20,20,20,20,20,20,20","10,10,10,10,10,10,10,10","20,20,20,20,20,20,20,20","20,20,20,20,20,20,20,20","20,20,20,20,20,20,20,20","0,0,0,0,0,0,0,0","20,20,20,20,20,20,20,20","10,10,10,10,10,10,10,10","20,20,20,20,20,20,20,20","20,20,20,20,20,20,20,20","20,20,20,20,20,20,20,20","1,1,1,0,0,0,0,0","10504,985,523,1159,962,542,1354,981","52.56705692789359,31.3788255449433,25.020027809384814,-1.4074446752467527,-46.48017013407674,-46.07951086107299,19.952960758162675,26.2381163464247","8.622940891038496,56.371367919062656,50.128140803038676,-16.083798978812823,-4.903320106509695,-5.163751559713563,-17.11558640008303,-40.339021231646726","0","0"
"469","86","text","0","137","1661928","0-0","","","","","","","","","","","","","","","","","","","","","","","","","","","","","","","","","","","","",""
"","","plant-game","0","138","1673687","0-0","","200","120","1","WHEAT CROP","Right","200","160","4","THISTLE WEED","experimental","56","1,2,3,4","160,191.81141880235168,186.1206479658509,214.52950105488344","4,3,2,1","THISTLE WEED,THISTLE WEED,THISTLE WEED,THISTLE WEED","120,170,141.54301333746272,134.6621276271588","1,3,2,1","WHEAT CROP,CORN CROP,CORN CROP,CORN CROP","0,0,0,0","20,20,20,20","10,10,10,10","20,20,20,20","20,20,20,20","20,20,20,20","0,0,0,0","20,20,20,20","10,10,10,10","20,20,20,20","20,20,20,20","20,20,20,20","1,0,0,0","3248,1279,622,747","31.811418802351696,-5.690770836500781,28.40885308903254,-43.21166488048824","53.12374113194742,-28.456986662537286,-6.880885710303928,-7.867837210647038","0","0"
"583","86","text","0","139","1674455","0-0","","","","","","","","","","","","","","","","","","","","","","","","","","","","","","","","","","","","",""
"","","plant-game","0","140","1681124","0-0","","200","120","2","WHEAT CROP","Left","200","180","2","THISTLE WEED","experimental","57","1,2","120,135.9522206152904","2,1","WHEAT CROP,WHEAT CROP","180,188.24108085488302","2,1","THISTLE WEED,THISTLE WEED","20,20","20,20","10,10","20,20","0,0","20,20","20,20","20,20","10,10","20,20","0,0","20,20","0,0","2501,1076","15.952220615290406,-14.357670885700728","8.24108085488303,0.3835795865997973","0","0"
"553","86","text","0","141","1681867","0-0","","","","","","","","","","","","","","","","","","","","","","","","","","","","","","","","","","","","",""
"","","plant-game","0","142","1695814","0-0","","200","120","8","WHEAT CROP","Left","200","160","8","THISTLE WEED","experimental","58","1,2,3,4,5,6,7,8","120,134.1628448416127,154.86127992093725,143.9680963020333,190.71059648663692,189.28885434309757,204.4759647231316,247.41462487665154","8,7,6,5,4,3,2,1","WHEAT CROP,WHEAT CROP,WHEAT CROP,WHEAT CROP,WHEAT CROP,WHEAT CROP,WHEAT CROP,WHEAT CROP","160,151.48679731647883,167.557765271704,135.2710622995673,151.10981731236373,176.69780921480975,159.3209844850259,175.28914499710433","8,7,6,5,4,3,2,1","THISTLE WEED,THISTLE WEED,THISTLE WEED,THISTLE WEED,THISTLE WEED,THISTLE WEED,THISTLE WEED,THISTLE WEED","20,20,20,20,20,20,20,20","20,20,20,20,20,20,20,20","10,10,10,10,10,10,10,10","20,20,20,20,20,20,20,20","0,0,0,0,0,0,0,0","20,20,20,20,20,20,20,20","20,20,20,20,20,20,20,20","20,20,20,20,20,20,20,20","10,10,10,10,10,10,10,10","20,20,20,20,20,20,20,20","0,0,0,0,0,0,0,0","20,20,20,20,20,20,20,20","0,0,1,0,0,1,0,0","2645,866,1097,1013,669,614,1092,940","14.162844841612689,20.69843507932456,-10.893183618903935,46.74250018460363,-1.4217421435393405,15.187110380034026,42.93866015351995,-9.815534746049043","-8.513202683521172,16.070967955225164,-32.28670297213672,15.83875501279644,25.587991902446024,-17.376824729783863,15.968160512078441,-15.262574426504926","0","0"
"557","86","text","0","143","1696541","0-0","","","","","","","","","","","","","","","","","","","","","","","","","","","","","","","","","","","","",""
"","","plant-game","0","144","1702908","0-0","","200","180","2","WHEAT CROP","Left","200","190","2","THISTLE WEED","experimental","59","1,2","180,176.84853542383715","2,1","WHEAT CROP,WHEAT CROP","190,242.49320971500492","2,1","THISTLE WEED,THISTLE WEED","20,20","20,20","10,10","20,20","0,0","20,20","20,20","20,20","10,10","20,20","0,0","20,20","0,1","2019,1151","-3.151464576162862,25.42649495465298","52.49320971500494,-20.424029888225643","0","0"
"608","86","text","0","145","1703656","0-0","","","","","","","","","","","","","","","","","","","","","","","","","","","","","","","","","","","","",""
"","","plant-game","0","146","1719054","0-0","","200","180","4","WHEAT CROP","Left","200","180","8","THISTLE WEED","experimental","60","1,2,3,4,5,6,7,8","180,217.0223196110265,230.59204119981626,248.1187539434674,160,193.21260681116027,210.48558858133742,226.317721919342","4,3,2,1,4,3,2,1","WHEAT CROP,WHEAT CROP,WHEAT CROP,WHEAT CROP,CORN CROP,CORN CROP,CORN CROP,CORN CROP","180,175.83156850662672,170.95168823761037,153.12315317436764,150.87188031622696,216.12129846335276,244.5628969435432,284.9868718832539","8,7,6,5,4,3,2,1","THISTLE WEED,THISTLE WEED,THISTLE WEED,THISTLE WEED,THISTLE WEED,THISTLE WEED,THISTLE WEED,THISTLE WEED","20,20,20,20,20,20,20,20","20,20,20,20,20,20,20,20","10,10,10,10,10,10,10,10","20,20,20,20,20,20,20,20","0,0,0,0,0,0,0,0","20,20,20,20,20,20,20,20","20,20,20,20,20,20,20,20","20,20,20,20,20,20,20,20","10,10,10,10,10,10,10,10","20,20,20,20,20,20,20,20","0,0,0,0,0,0,0,0","20,20,20,20,20,20,20,20","0,1,1,1,0,1,0,0","3107,1793,715,445,1028,951,619,457","37.022319611026475,13.569721588789786,17.52671274365114,1.2069302418841055,33.21260681116026,17.27298177017715,15.832133338004589,-5.468224033137183","-4.168431493373287,-4.8798802690163505,-17.82853506324272,-2.251272858140676,65.2494181471258,28.441598480190425,40.42397493971072,20.820930820047725","0","0"
"605","86","text","0","147","1719848","0-0","","","","","","","","","","","","","","","","","","","","","","","","","","","","","","","","","","","","",""
"","","plant-game","0","148","1731315","0-0","","200","190","1","WHEAT CROP","Right","200","180","4","NETTLE WEED","experimental","61","1,2,3,4","180,207.00984439541028,172.99474394829346,170.62161134049472","4,3,2,1","NETTLE WEED,NETTLE WEED,NETTLE WEED,NETTLE WEED","190,170,197.69953779811328,214.59065824843753","1,3,2,1","WHEAT CROP,CORN CROP,CORN CROP,CORN CROP","0,0,0,0","20,20,20,20","10,10,10,10","20,20,20,20","20,20,20,20","20,20,20,20","0,0,0,0","20,20,20,20","10,10,10,10","20,20,20,20","20,20,20,20","20,20,20,20","0,0,0,0","2181,1874,1956,622","27.009844395410276,-34.01510044711682,-2.3731326077987305,5.616394402210078","27.46924564179161,27.699537798113294,16.89112045032424,-2.698501280306992","0","0"
"537","86","text","0","149","1732035","0-0","","","","","","","","","","","","","","","","","","","","","","","","","","","","","","","","","","","","",""
"","","plant-game","0","150","1743516","0-0","","200","190","8","WHEAT CROP","Right","200","160","8","THISTLE WEED","experimental","62","1,2,3,4,5,6,7,8","160,176.96174045727318,216.07128269533882,201.01312240311344,191.99990378772523,163.55038238763512,167.82270351949404,167.3329534219324","8,7,6,5,4,3,2,1","THISTLE WEED,THISTLE WEED,THISTLE WEED,THISTLE WEED,THISTLE WEED,THISTLE WEED,THISTLE WEED,THISTLE WEED","190,191.78814107841296,235.46666037270717,240.3309122605174,240.36214918596693,235.5533153795082,196.50183924323844,204.84736264688394","8,7,6,5,4,3,2,1","WHEAT CROP,WHEAT CROP,WHEAT CROP,WHEAT CROP,WHEAT CROP,WHEAT CROP,WHEAT CROP,WHEAT CROP","0,0,0,0,0,0,0,0","20,20,20,20,20,20,20,20","10,10,10,10,10,10,10,10","20,20,20,20,20,20,20,20","20,20,20,20,20,20,20,20","20,20,20,20,20,20,20,20","0,0,0,0,0,0,0,0","20,20,20,20,20,20,20,20","10,10,10,10,10,10,10,10","20,20,20,20,20,20,20,20","20,20,20,20,20,20,20,20","20,20,20,20,20,20,20,20","1,1,0,0,0,0,0,0","2678,775,547,402,396,486,896,1160","16.961740457273187,39.10954223806563,-15.058160292225383,-9.013218615388222,-28.449521400090102,4.272321131858924,-0.4897500975616536,-11.831530101304992","1.7881410784129628,43.67851929429419,4.864251887810244,0.031236925449527768,-4.808833806458715,-39.05147613626978,8.345523403645497,8.091587333259291","0","0"
"584","86","text","0","151","1744292","0-0","","","","","","","","","","","","","","","","","","","","","","","","","","","","","","","","","","","","",""
"","","plant-game","0","152","1759275","0-0","","200","180","4","CORN CROP","Left","200","190","2","NETTLE WEED","experimental","63","1,2,3,4","180,213.40656814676993,187.64390247265214,199.19570018967315","4,3,2,1","CORN CROP,CORN CROP,CORN CROP,CORN CROP","190,177.03188781057884,180,193.26566164357106","2,1,2,1","NETTLE WEED,NETTLE WEED,THISTLE WEED,THISTLE WEED","20,20,20,20","20,20,20,20","10,10,10,10","20,20,20,20","0,0,0,0","20,20,20,20","20,20,20,20","20,20,20,20","10,10,10,10","20,20,20,20","0,0,0,0","20,20,20,20","0,1,0,1","3734,1314,3606,655","33.40656814676992,-25.762665674117784,11.551797717021016,13.970627119533532","-12.968112189421163,4.829657590341508,13.265661643571075,-7.708956624162338","0","0"
"551","86","text","0","153","1759986","0-0","","","","","","","","","","","","","","","","","","","","","","","","","","","","","","","","","","","","",""
"","","plant-game","0","154","1772731","0-0","","200","160","8","CORN CROP","Left","200","180","8","NETTLE WEED","experimental","64","1,2,3,4,5,6,7,8","160,161.76799592187226,142.9110737956545,125.07875845416265,128.77806038864682,157.8803002689878,130.168800203515,112.04666214660227","8,7,6,5,4,3,2,1","CORN CROP,CORN CROP,CORN CROP,CORN CROP,CORN CROP,CORN CROP,CORN CROP,CORN CROP","180,212.74431330776244,184.9236905925282,187.64283210591373,172.3367466272514,170.96608595005844,150.14140003764535,135.6043054766777","8,7,6,5,4,3,2,1","NETTLE WEED,NETTLE WEED,NETTLE WEED,NETTLE WEED,NETTLE WEED,NETTLE WEED,NETTLE WEED,NETTLE WEED","20,20,20,20,20,20,20,20","20,20,20,20,20,20,20,20","10,10,10,10,10,10,10,10","20,20,20,20,20,20,20,20","0,0,0,0,0,0,0,0","20,20,20,20,20,20,20,20","20,20,20,20,20,20,20,20","20,20,20,20,20,20,20,20","10,10,10,10,10,10,10,10","20,20,20,20,20,20,20,20","0,0,0,0,0,0,0,0","20,20,20,20,20,20,20,20","0,1,0,1,1,1,1,1","3918,868,933,1067,816,412,518,413","1.7679959218722487,-18.856922126217754,-17.832315341491835,3.699301934484172,29.102239880340978,-27.711500065472833,-18.122138056912714,-1.82119979545066","32.74431330776244,-27.82062271523425,2.719141513385523,-15.306085478662348,-1.3706606771929342,-20.82468591241309,-14.537094560967656,-22.489239865233056","0","0"
"3497","86","text","0","155","1776498","0-0","","","","","","","","","","","","","","","","","","","","","","","","","","","","","","","","","","","","",""
"","","plant-game","0","156","1790130","0-0","","200","160","8","CORN CROP","Left","200","190","2","THISTLE WEED","experimental","65","1,2,3,4,5,6,7,8","160,153.1793980006328,152.3733914591161,140.46397172244494,163.57118443290744,145.75661689286858,141.96987023184673,147.4784735028027","8,7,6,5,4,3,2,1","CORN CROP,CORN CROP,CORN CROP,CORN CROP,CORN CROP,CORN CROP,CORN CROP,CORN CROP","190,217.33577589077586,140,146.1632575887394,191.863349304417,177.41790773133405,155.03976617361337,182.24096891663098","2,1,6,5,4,3,2,1","THISTLE WEED,THISTLE WEED,NETTLE WEED,NETTLE WEED,NETTLE WEED,NETTLE WEED,NETTLE WEED,NETTLE WEED","20,20,20,20,20,20,20,20","20,20,20,20,20,20,20,20","10,10,10,10,10,10,10,10","20,20,20,20,20,20,20,20","0,0,0,0,0,0,0,0","20,20,20,20,20,20,20,20","20,20,20,20,20,20,20,20","20,20,20,20,20,20,20,20","10,10,10,10,10,10,10,10","20,20,20,20,20,20,20,20","0,0,0,0,0,0,0,0","20,20,20,20,20,20,20,20","0,0,1,0,1,1,1,0","3359,775,673,480,522,384,387,789","-6.820601999367209,-0.8060065415166875,-11.909419736671175,23.107212710462502,-17.81456754003886,-3.7867466610218594,5.508603270955966,24.008840379832822","27.335775890775867,26.90630933191698,6.163257588739402,45.70009171567758,-14.445441573082949,-22.378141557720696,27.201202743017603,45.21190910197299","0","0"
"848","86","text","0","157","1791098","0-0","","","","","","","","","","","","","","","","","","","","","","","","","","","","","","","","","","","","",""
"","","plant-game","0","158","1800891","0-0","","200","190","4","WHEAT CROP","Right","200","180","4","THISTLE WEED","experimental","66","1,2,3,4","180,144.73564191105362,175.37575329053462,173.34832910845404","4,3,2,1","THISTLE WEED,THISTLE WEED,THISTLE WEED,THISTLE WEED","190,196.36447945512833,223.3857675310028,238.91377693757664","4,3,2,1","WHEAT CROP,WHEAT CROP,WHEAT CROP,WHEAT CROP","0,0,0,0","20,20,20,20","10,10,10,10","20,20,20,20","20,20,20,20","20,20,20,20","0,0,0,0","20,20,20,20","10,10,10,10","20,20,20,20","20,20,20,20","20,20,20,20","0,1,0,0","2181,1988,756,1591","-35.264358088946395,30.640111379481,-2.02742418208058,27.391363042145453","6.364479455128337,27.02128807587449,15.528009406573835,-4.344107909370368","0","0"
"499","86","text","0","159","1801580","0-0","","","","","","","","","","","","","","","","","","","","","","","","","","","","","","","","","","","","",""
"","","plant-game","0","160","1817560","0-0","","200","190","8","CORN CROP","Left","200","160","4","THISTLE WEED","experimental","67","1,2,3,4,5,6,7,8","190,194.7836057405456,193.37218612780896,170.26300345832527,184.4840661280891,224.2114028447321,248.63067224642853,241.8749209765261","8,7,6,5,4,3,2,1","CORN CROP,CORN CROP,CORN CROP,CORN CROP,CORN CROP,CORN CROP,CORN CROP,CORN CROP","160,163.27027617911813,209.2436242786452,230.88124565251493,160,184.11864158948885,158.4330756428693,196.20876207309692","4,3,2,1,4,3,2,1","THISTLE WEED,THISTLE WEED,THISTLE WEED,THISTLE WEED,NETTLE WEED,NETTLE WEED,NETTLE WEED,NETTLE WEED","20,20,20,20,20,20,20,20","20,20,20,20,20,20,20,20","10,10,10,10,10,10,10,10","20,20,20,20,20,20,20,20","0,0,0,0,0,0,0,0","20,20,20,20,20,20,20,20","20,20,20,20,20,20,20,20","20,20,20,20,20,20,20,20","10,10,10,10,10,10,10,10","20,20,20,20,20,20,20,20","0,0,0,0,0,0,0,0","20,20,20,20,20,20,20,20","1,0,1,0,0,1,1,0","2283,1004,933,551,1044,1811,596,941","4.783605740545597,-1.4114196127366299,-23.1091826694837,14.221062669763828,39.727336716643,24.41926940169642,-6.755751269902427,13.352316650730664","3.270276179118117,45.97334809952709,21.63762137386973,37.39548668590699,24.118641589488846,-25.685565946619523,37.77568643022762,-7.425694735759993","0","0"
"563","86","text","0","161","1818313","0-0","","","","","","","","","","","","","","","","","","","","","","","","","","","","","","","","","","","","",""
"","","plant-game","0","162","1836238","0-0","","200","160","1","CORN CROP","Left","200","190","8","NETTLE WEED","experimental","68","1,2,3,4,5,6,7,8","160,130,126.80571218310583,152.5927802787301,203.94717953299659,237.5008578443273,256.49690607961463,269.5959002519855","1,7,6,5,4,3,2,1","CORN CROP,WHEAT CROP,WHEAT CROP,WHEAT CROP,WHEAT CROP,WHEAT CROP,WHEAT CROP,WHEAT CROP","190,212.05220090323377,189.6321102328829,207.2490236439784,201.40135705656047,204.2407386798903,245.4249434064797,257.83259973799784","8,7,6,5,4,3,2,1","NETTLE WEED,NETTLE WEED,NETTLE WEED,NETTLE WEED,NETTLE WEED,NETTLE WEED,NETTLE WEED,NETTLE WEED","20,20,20,20,20,20,20,20","20,20,20,20,20,20,20,20","10,10,10,10,10,10,10,10","20,20,20,20,20,20,20,20","0,0,0,0,0,0,0,0","20,20,20,20,20,20,20,20","20,20,20,20,20,20,20,20","20,20,20,20,20,20,20,20","10,10,10,10,10,10,10,10","20,20,20,20,20,20,20,20","0,0,0,0,0,0,0,0","20,20,20,20,20,20,20,20","0,1,1,0,0,0,1,0","6410,736,503,802,385,618,775,653","52.00601772035763,-3.1942878168941755,25.787068095624257,51.35439925426649,33.55367831133072,18.996048235287322,13.098994172370828,16.565497216821164","22.052200903233754,-22.420090670350888,17.61691341109552,-5.847666587417937,2.8393816233298494,41.1842047265894,12.407656331518124,6.468299408737124","0","0"
"559","86","text","0","163","1836947","0-0","","","","","","","","","","","","","","","","","","","","","","","","","","","","","","","","","","","","",""
"","","plant-game","0","164","1846398","0-0","","200","120","4","CORN CROP","Right","200","160","2","THISTLE WEED","experimental","69","1,2,3,4","160,172.3339219165171,180,180.39704661166985","2,1,2,1","THISTLE WEED,THISTLE WEED,NETTLE WEED,NETTLE WEED","120,110.33398520081465,115.69923609809518,144.1223311799616","4,3,2,1","CORN CROP,CORN CROP,CORN CROP,CORN CROP","0,0,0,0","20,20,20,20","10,10,10,10","20,20,20,20","20,20,20,20","20,20,20,20","0,0,0,0","20,20,20,20","10,10,10,10","20,20,20,20","20,20,20,20","20,20,20,20","1,0,1,1","1166,1101,649,893","12.333921916517099,1.3090741433610389,0.3970466116698361,58.13519675858813","-9.666014799185355,5.365250897280525,28.423095081866414,31.292391372632544","0","0"
"144","86","text","0","165","1846662","0-0","","","","","","","","","","","","","","","","","","","","","","","","","","","","","","","","","","","","",""
"","","plant-game","0","166","1865477","0-0","","200","160","8","CORN CROP","Right","200","120","2","THISTLE WEED","experimental","70","1,2,3,4,5,6,7,8","120,113.74032767806833,140,111.38260785945845,72.65965551100243,85.0989136700241,96.48249157448349,112.26054978245848","2,1,6,5,4,3,2,1","THISTLE WEED,THISTLE WEED,NETTLE WEED,NETTLE WEED,NETTLE WEED,NETTLE WEED,NETTLE WEED,NETTLE WEED","160,108.08157635300793,130.56602077479567,145.8698304815504,152.72955976195527,152.017298642034,170.40727789369367,199.01493233318516","8,7,6,5,4,3,2,1","CORN CROP,CORN CROP,CORN CROP,CORN CROP,CORN CROP,CORN CROP,CORN CROP,CORN CROP","0,0,0,0,0,0,0,0","20,20,20,20,20,20,20,20","10,10,10,10,10,10,10,10","20,20,20,20,20,20,20,20","20,20,20,20,20,20,20,20","20,20,20,20,20,20,20,20","0,0,0,0,0,0,0,0","20,20,20,20,20,20,20,20","10,10,10,10,10,10,10,10","20,20,20,20,20,20,20,20","20,20,20,20,20,20,20,20","20,20,20,20,20,20,20,20","0,1,0,0,0,0,1,1","6482,1188,1539,1075,712,475,503,871","-6.259672321931673,4.67969190414175,-28.617392140541558,-38.722952348456026,12.439258159021678,11.383577904459381,15.778058207974995,32.023225291145295","-51.91842364699207,22.484444421787742,15.30380970675471,6.859729280404875,-0.7122611199212556,18.389979251659657,28.607654439491483,22.27042925845941","0","0"
"4098","86","text","0","167","1869705","0-0","","","","","","","","","","","","","","","","","","","","","","","","","","","","","","","","","","","","",""
"","","plant-game","0","168","1875683","0-0","","200","180","2","CORN CROP","Left","200","120","2","NETTLE WEED","experimental","71","1,2","180,198.820511952179","2,1","CORN CROP,CORN CROP","120,123.15553002864479","2,1","NETTLE WEED,NETTLE WEED","20,20","20,20","10,10","20,20","0,0","20,20","20,20","20,20","10,10","20,20","0,0","20,20","0,0","2448,541","18.820511952179018,19.923669398701946","3.155530028644783,23.109790175927785","0","0"
"661","86","text","0","169","1876514","0-0","","","","","","","","","","","","","","","","","","","","","","","","","","","","","","","","","","","","",""
"","","plant-game","0","170","1893977","0-0","","200","160","2","CORN CROP","Left","200","190","8","NETTLE WEED","experimental","72","1,2,3,4,5,6,7,8","160,162.12714209528457,140,166.34095332261577,166.54861794292012,198.2897070136503,211.53929917182109,221.67102604189344","2,1,6,5,4,3,2,1","CORN CROP,CORN CROP,WHEAT CROP,WHEAT CROP,WHEAT CROP,WHEAT CROP,WHEAT CROP,WHEAT CROP","190,216.2731028902506,198.74729693680337,190.32561906362739,192.67439534990163,153.51619248042192,186.4966255583048,203.54999707926314","8,7,6,5,4,3,2,1","NETTLE WEED,NETTLE WEED,NETTLE WEED,NETTLE WEED,NETTLE WEED,NETTLE WEED,NETTLE WEED,NETTLE WEED","20,20,20,20,20,20,20,20","20,20,20,20,20,20,20,20","10,10,10,10,10,10,10,10","20,20,20,20,20,20,20,20","0,0,0,0,0,0,0,0","20,20,20,20,20,20,20,20","20,20,20,20,20,20,20,20","20,20,20,20,20,20,20,20","10,10,10,10,10,10,10,10","20,20,20,20,20,20,20,20","0,0,0,0,0,0,0,0","20,20,20,20,20,20,20,20","1,1,1,1,1,1,0,1","6360,627,573,304,206,484,1024,523","2.127142095284557,5.800734472311289,26.340953322615768,0.20766462030435393,31.74108907073017,13.249592158170788,10.131726870072354,19.384620961573113","26.273102890250616,-17.525805953447232,-8.421677873175968,2.348776286274246,-39.15820286947972,32.980433077882864,17.053371520958336,-27.246636924857505","0","0"
"541","86","text","0","171","1894686","0-0","","","","","","","","","","","","","","","","","","","","","","","","","","","","","","","","","","","","",""
"","","plant-game","0","172","1907889","0-0","","200","190","4","WHEAT CROP","Left","200","120","1","THISTLE WEED","experimental","73","1,2,3,4","190,197.35051359023353,201.1619366706186,214.7150792001209","4,3,2,1","WHEAT CROP,WHEAT CROP,WHEAT CROP,WHEAT CROP","120,170,170.26108380442392,146.27693991688193","1,3,2,1","THISTLE WEED,NETTLE WEED,NETTLE WEED,NETTLE WEED","20,20,20,20","20,20,20,20","10,10,10,10","20,20,20,20","0,0,0,0","20,20,20,20","20,20,20,20","20,20,20,20","10,10,10,10","20,20,20,20","0,0,0,0","20,20,20,20","0,0,1,1","2744,2123,624,1469","7.350513590233533,3.811423080385058,13.553142529502317,29.28766930346381","-16.867327725931716,0.2610838044239152,-23.984143887541993,-14.186806470934384","1","0"
"538","86","text","0","173","1908627","0-0","","","","","","","","","","","","","","","","","","","","","","","","","","","","","","","","","","","","",""
"","","plant-game","0","174","1925361","0-0","","200","180","4","CORN CROP","Right","200","190","8","NETTLE WEED","experimental","74","1,2,3,4,5,6,7,8","190,189.8995946382165,200.67555003129883,213.7540634596623,226.46957255829716,218.82514056204968,218.11584894043557,243.0847871369097","8,7,6,5,4,3,2,1","NETTLE WEED,NETTLE WEED,NETTLE WEED,NETTLE WEED,NETTLE WEED,NETTLE WEED,NETTLE WEED,NETTLE WEED","180,227.0741908140603,278.95284221785573,294.32984451082245,160,118.51653397164966,114.62747773469154,156.15091977804676","4,3,2,1,4,3,2,1","CORN CROP,CORN CROP,CORN CROP,CORN CROP,WHEAT CROP,WHEAT CROP,WHEAT CROP,WHEAT CROP","0,0,0,0,0,0,0,0","20,20,20,20,20,20,20,20","10,10,10,10,10,10,10,10","20,20,20,20,20,20,20,20","20,20,20,20,20,20,20,20","20,20,20,20,20,20,20,20","0,0,0,0,0,0,0,0","20,20,20,20,20,20,20,20","10,10,10,10,10,10,10,10","20,20,20,20,20,20,20,20","20,20,20,20,20,20,20,20","20,20,20,20,20,20,20,20","0,1,0,1,0,0,1,0","3136,1260,686,502,781,1052,667,441","-0.10040536178347739,10.775955393082311,13.07851342836347,12.715509098634872,-7.644431996247464,-0.7092916216140992,24.968938196474134,27.89212702728512","47.0741908140603,51.878651403795445,15.377002292966736,26.747752693150296,-41.483466028350335,-3.8890562369581265,41.52344204335522,16.2923230791592","0","0"
"2131","86","text","0","175","1927652","0-0","","","","","","","","","","","","","","","","","","","","","","","","","","","","","","","","","","","","",""
"","","plant-game","0","176","1938551","0-0","","200","120","2","CORN CROP","Left","200","180","4","THISTLE WEED","experimental","75","1,2,3,4","120,132.0957912148175,180,187.33660099018746","2,1,2,1","CORN CROP,CORN CROP,WHEAT CROP,WHEAT CROP","180,213.9240369065449,234.4557659073684,211.94605983670573","4,3,2,1","THISTLE WEED,THISTLE WEED,THISTLE WEED,THISTLE WEED","20,20,20,20","20,20,20,20","10,10,10,10","20,20,20,20","0,0,0,0","20,20,20,20","20,20,20,20","20,20,20,20","10,10,10,10","20,20,20,20","0,0,0,0","20,20,20,20","0,1,1,1","2327,948,741,399","12.095791214817499,-34.00874758592245,7.336600990187452,-21.61394258530839","33.924036906544906,20.53172900082351,-22.509706070662684,-4.356140826884447","0","0"
"610","86","text","0","177","1939301","0-0","","","","","","","","","","","","","","","","","","","","","","","","","","","","","","","","","","","","",""
"","","plant-game","0","178","1951637","0-0","","200","190","2","WHEAT CROP","Right","200","120","8","THISTLE WEED","experimental","76","1,2,3,4,5,6,7,8","120,93.28450518211962,137.1624368873913,148.50578419668145,161.45136883946105,165.29973173929707,189.57247600006914,123.07566879378801","8,7,6,5,4,3,2,1","THISTLE WEED,THISTLE WEED,THISTLE WEED,THISTLE WEED,THISTLE WEED,THISTLE WEED,THISTLE WEED,THISTLE WEED","190,167.96584344542975,140,119.00082570733512,86.67814762170583,115.69805469834786,113.8314158603594,90.25709005342216","2,1,6,5,4,3,2,1","WHEAT CROP,WHEAT CROP,CORN CROP,CORN CROP,CORN CROP,CORN CROP,CORN CROP,CORN CROP","0,0,0,0,0,0,0,0","20,20,20,20,20,20,20,20","10,10,10,10,10,10,10,10","20,20,20,20,20,20,20,20","20,20,20,20,20,20,20,20","20,20,20,20,20,20,20,20","0,0,0,0,0,0,0,0","20,20,20,20,20,20,20,20","10,10,10,10,10,10,10,10","20,20,20,20,20,20,20,20","20,20,20,20,20,20,20,20","20,20,20,20,20,20,20,20","0,1,0,1,0,0,0,0","2286,662,1215,814,717,315,340,315","-26.71549481788038,43.87793170527168,11.343347309290161,12.945584642779593,3.848362899836019,24.272744260772082,-66.49680720628113,-43.38670890628806","-22.034156554570234,18.996916793836068,-20.999174292664875,-32.32267808562929,29.019907076642028,-1.8666388379884646,-23.574325806937246,13.339664561871382","0","0"
"624","86","text","0","179","1952417","0-0","","","","","","","","","","","","","","","","","","","","","","","","","","","","","","","","","","","","",""
"","","plant-game","0","180","1964469","0-0","","200","160","4","WHEAT CROP","Left","200","190","2","THISTLE WEED","experimental","77","1,2,3,4","160,191.650284463385,203.7140556522722,265.92014661880876","4,3,2,1","WHEAT CROP,WHEAT CROP,WHEAT CROP,WHEAT CROP","190,182.8301625408647,180,225.72907944237227","2,1,2,1","THISTLE WEED,THISTLE WEED,NETTLE WEED,NETTLE WEED","20,20,20,20","20,20,20,20","10,10,10,10","20,20,20,20","0,0,0,0","20,20,20,20","20,20,20,20","20,20,20,20","10,10,10,10","20,20,20,20","0,0,0,0","20,20,20,20","0,0,0,1","2517,1356,1926,1285","31.650284463385006,12.063771188887216,62.20609096653652,-43.223053634087954","-7.169837459135287,57.87350691538283,45.72907944237225,-5.042427878737524","0","0"
"840","86","text","0","181","1965470","0-0","","","","","","","","","","","","","","","","","","","","","","","","","","","","","","","","","","","","",""
"","","plant-game","0","182","1979756","0-0","","200","120","1","CORN CROP","Left","200","180","8","THISTLE WEED","experimental","78","1,2,3,4,5,6,7,8","120,130,121.9963132002977,144.67096400241138,130.73211227430136,135.2799515231423,107.80122324553416,104.0319225659249","1,7,6,5,4,3,2,1","CORN CROP,WHEAT CROP,WHEAT CROP,WHEAT CROP,WHEAT CROP,WHEAT CROP,WHEAT CROP,WHEAT CROP","180,187.0660939314555,224.6552029945227,252.88232813359906,232.47295209650585,257.1646230216729,200.69370089401062,208.1200222746018","8,7,6,5,4,3,2,1","THISTLE WEED,THISTLE WEED,THISTLE WEED,THISTLE WEED,THISTLE WEED,THISTLE WEED,THISTLE WEED,THISTLE WEED","20,20,20,20,20,20,20,20","20,20,20,20,20,20,20,20","10,10,10,10,10,10,10,10","20,20,20,20,20,20,20,20","0,0,0,0,0,0,0,0","20,20,20,20,20,20,20,20","20,20,20,20,20,20,20,20","20,20,20,20,20,20,20,20","10,10,10,10,10,10,10,10","20,20,20,20,20,20,20,20","0,0,0,0,0,0,0,0","20,20,20,20,20,20,20,20","0,1,0,1,1,1,1,0","3536,678,881,495,419,526,1316,778","17.35084674985746,-8.003686799702297,22.674650802113675,-13.938851728110022,4.547839248840953,-27.47872827760814,-3.769300679609262,11.548355631396785","7.066093931455493,37.58910906306721,28.227125139076335,-20.40937603709322,24.691670925167045,-56.470922127662305,7.426321380591201,9.817301234462283","0","0"
"616","86","text","0","183","1980512","0-0","","","","","","","","","","","","","","","","","","","","","","","","","","","","","","","","","","","","",""
"","","plant-game","0","184","1990354","0-0","","200","160","2","CORN CROP","Right","200","160","4","NETTLE WEED","experimental","79","1,2,3,4","160,181.2712248304453,169.68579580924907,135.75430082495674","4,3,2,1","NETTLE WEED,NETTLE WEED,NETTLE WEED,NETTLE WEED","160,150.0837586611218,180,161.96054139633088","2,1,2,1","CORN CROP,CORN CROP,WHEAT CROP,WHEAT CROP","0,0,0,0","20,20,20,20","10,10,10,10","20,20,20,20","20,20,20,20","20,20,20,20","0,0,0,0","20,20,20,20","10,10,10,10","20,20,20,20","20,20,20,20","20,20,20,20","0,0,0,1","2567,928,795,550","21.27122483044531,-11.585429021196237,-33.93149498429233,28.93084266717558","-9.9162413388782,-15.444134888621996,-18.039458603669104,2.8118442093047094","0","0"
"424","86","text","0","185","1990919","0-0","","","","","","","","","","","","","","","","","","","","","","","","","","","","","","","","","","","","",""
"","","plant-game","0","186","1996732","0-0","","200","160","2","WHEAT CROP","Left","200","160","2","NETTLE WEED","experimental","80","1,2","160,148.6274830540885","2,1","WHEAT CROP,WHEAT CROP","160,149.25860226912636","2,1","NETTLE WEED,NETTLE WEED","20,20","20,20","10,10","20,20","0,0","20,20","20,20","20,20","10,10","20,20","0,0","20,20","0,0","2678,617","-11.372516945911528,13.709368957016306","-10.74139773087365,-7.637606978913027","0","0"
"224","86","text","0","187","1997065","0-0","","","","","","","","","","","","","","","","","","","","","","","","","","","","","","","","","","","","",""
"","","plant-game","0","188","2019949","0-0","","200","180","8","WHEAT CROP","Left","200","190","2","NETTLE WEED","experimental","81","1,2,3,4,5,6,7,8","180,245.20038210078292,243.1814074489799,247.99025896797852,256.327141193818,278.06776642902776,259.24268989924036,264.94148684924875","8,7,6,5,4,3,2,1","WHEAT CROP,WHEAT CROP,WHEAT CROP,WHEAT CROP,WHEAT CROP,WHEAT CROP,WHEAT CROP,WHEAT CROP","190,212.87953649065904,140,135.2249244106402,160.7061905267266,193.38895248217227,194.51701511023907,192.85867785516658","2,1,6,5,4,3,2,1","NETTLE WEED,NETTLE WEED,THISTLE WEED,THISTLE WEED,THISTLE WEED,THISTLE WEED,THISTLE WEED,THISTLE WEED","20,20,20,20,20,20,20,20","20,20,20,20,20,20,20,20","10,10,10,10,10,10,10,10","20,20,20,20,20,20,20,20","0,0,0,0,0,0,0,0","20,20,20,20,20,20,20,20","20,20,20,20,20,20,20,20","20,20,20,20,20,20,20,20","10,10,10,10,10,10,10,10","20,20,20,20,20,20,20,20","0,0,0,0,0,0,0,0","20,20,20,20,20,20,20,20","0,1,1,1,0,1,1,0","5057,910,1689,587,723,690,4663,2379","65.20038210078293,-2.018974651803009,4.808851518998607,8.336882225839526,21.740625235209762,-18.825076529787406,5.698796950008399,-5.601065962709008","22.879536490659042,16.682973471962484,-4.775075589359796,25.481266116086406,32.68276195544567,1.1280626280668113,-1.6583372550725037,36.32954533658443","0","0"
"863","86","text","0","189","2021011","0-0","","","","","","","","","","","","","","","","","","","","","","","","","","","","","","","","","","","","",""
