"rt","key_press","trial_type","trial_index","trial_index_global","time_elapsed","internal_chunk_id","responses","experimental_goal_height","experimental_start_height","experimental_weeks_total","experimental_crop_type","experimental_crop_side","fixed_goal_height","fixed_start_height","fixed_weeks_total","fixed_crop_type","trial_kind","trial_number","stage","left_current_height","left_weeks_remaining","left_crop_type","right_current_height","right_weeks_remaining","right_crop_type","mean_left_growth_given_left","sd_left_growth_given_left","mean_left_growth_given_middle","sd_left_growth_given_middle","mean_left_growth_given_right","sd_left_growth_given_right","mean_right_growth_given_left","sd_right_growth_given_left","mean_right_growth_given_middle","sd_right_growth_given_middle","mean_right_growth_given_right","sd_right_growth_given_right","response","response_time","left_growth","right_growth","other_key_pressed","mouse_clicked"
"694292","87","text","0","0","694389","0-0","","","","","","","","","","","","","","","","","","","","","","","","","","","","","","","","","","","","",""
"3538","","survey-text","0","1","698939","0-0","{""Q0"":""18""}","","","","","","","","","","","","","","","","","","","","","","","","","","","","","","","","","","","",""
"3682","86","text","0","2","3760","0-0","","","","","","","","","","","","","","","","","","","","","","","","","","","","","","","","","","","","",""
"","","plant-game","0","3","52749","0-0","","200","120","8","CORN CROP","Left","200","120","8","THISTLE WEED","practice","1","1,2,3,4,5,6,7,8","120,146.15164218528093,191.93082766137206,165.72225790904386,173.579863048934,139.93821552557574,141.46064437652953,154.52342372185305","8,7,6,5,4,3,2,1","CORN CROP,CORN CROP,CORN CROP,CORN CROP,CORN CROP,CORN CROP,CORN CROP,CORN CROP","120,117.04909953759312,145.4326998954724,155.37806336389272,188.83156369631004,180.5728534480266,238.93015761892974,226.75263193156556","8,7,6,5,4,3,2,1","THISTLE WEED,THISTLE WEED,THISTLE WEED,THISTLE WEED,THISTLE WEED,THISTLE WEED,THISTLE WEED,THISTLE WEED","20,20,20,20,20,20,20,20","20,20,20,20,20,20,20,20","10,10,10,10,10,10,10,10","20,20,20,20,20,20,20,20","0,0,0,0,0,0,0,0","20,20,20,20,20,20,20,20","20,20,20,20,20,20,20,20","20,20,20,20,20,20,20,20","10,10,10,10,10,10,10,10","20,20,20,20,20,20,20,20","0,0,0,0,0,0,0,0","20,20,20,20,20,20,20,20","0,0,0,0,1,0,1,1","6305,3365,1866,4228,2220,4630,5733,1627","26.15164218528094,45.77918547609114,-26.208569752328202,7.8576051398901114,-33.64164752335823,1.5224288509537978,13.062779345323518,12.527557766094343","-2.950900462406885,28.383600357879303,9.945363468420322,33.45350033241732,-8.258710248283446,58.35730417090314,-12.17752568736419,16.359683959695307","0","1"
"1868","86","text","0","4","54687","0-0","","","","","","","","","","","","","","","","","","","","","","","","","","","","","","","","","","","","",""
"","","plant-game","0","5","86944","0-0","","200","160","4","WHEAT CROP","Left","200","160","4","THISTLE WEED","practice","2","1,2,3,4","160,179.56151898313948,179.3135188005642,174.88672303476565","4,3,2,1","WHEAT CROP,WHEAT CROP,WHEAT CROP,WHEAT CROP","160,176.16960516249324,206.6067613631811,212.23462022630852","4,3,2,1","THISTLE WEED,THISTLE WEED,THISTLE WEED,THISTLE WEED","20,20,20,20","20,20,20,20","10,10,10,10","20,20,20,20","0,0,0,0","20,20,20,20","20,20,20,20","20,20,20,20","10,10,10,10","20,20,20,20","0,0,0,0","20,20,20,20","0,0,1,1","3626,1954,3255,1566","19.561518983139482,-0.24800018257527867,-4.426795765798551,7.671704099795704","16.16960516249324,30.437156200687866,5.6278588631274085,-6.601668945232543","0","0"
"979","86","text","0","6","88004","0-0","","","","","","","","","","","","","","","","","","","","","","","","","","","","","","","","","","","","",""
"","","plant-game","0","7","111284","0-0","","200","180","2","WHEAT CROP","Left","200","180","2","THISTLE WEED","practice","3","1,2","180,151.73516402509006","2,1","WHEAT CROP,WHEAT CROP","180,167.07106608558456","2,1","THISTLE WEED,THISTLE WEED","20,20","20,20","10,10","20,20","0,0","20,20","20,20","20,20","10,10","20,20","0,0","20,20","1,0","1357,3134","-28.26483597490993,46.92695933984767","-12.928933914415452,14.634257781099418","0","0"
"988","86","text","0","8","112303","0-0","","","","","","","","","","","","","","","","","","","","","","","","","","","","","","","","","","","","",""
"","","plant-game","0","9","136240","0-0","","200","190","1","CORN CROP","Right","200","190","1","NETTLE WEED","practice","4","1","190","1","NETTLE WEED","190","1","CORN CROP","0","20","10","20","20","20","0","20","10","20","20","20","1","760","-20.456158469413836","22.948588652865745","0","0"
"679","86","text","0","10","137010","0-0","","","","","","","","","","","","","","","","","","","","","","","","","","","","","","","","","","","","",""
"","","plant-game","0","11","163960","0-0","","200","120","8","CORN CROP","Right","200","160","8","THISTLE WEED","practice","5","1,2,3,4,5,6,7,8","160,180.64304018394324,172.64958953690223,152.9627864093973,140.63811524210345,173.75823275396908,192.97962151550212,194.64399736825516","8,7,6,5,4,3,2,1","THISTLE WEED,THISTLE WEED,THISTLE WEED,THISTLE WEED,THISTLE WEED,THISTLE WEED,THISTLE WEED,THISTLE WEED","120,114.51781901769203,104.99639554771056,100.24884770573388,106.85374608172717,99.53886733679738,83.93676982013666,96.1720186038694","8,7,6,5,4,3,2,1","CORN CROP,CORN CROP,CORN CROP,CORN CROP,CORN CROP,CORN CROP,CORN CROP,CORN CROP","0,0,0,0,0,0,0,0","20,20,20,20,20,20,20,20","10,10,10,10,10,10,10,10","20,20,20,20,20,20,20,20","20,20,20,20,20,20,20,20","20,20,20,20,20,20,20,20","0,0,0,0,0,0,0,0","20,20,20,20,20,20,20,20","10,10,10,10,10,10,10,10","20,20,20,20,20,20,20,20","20,20,20,20,20,20,20,20","20,20,20,20,20,20,20,20","1,0,0,1,1,0,1,0","2959,1728,1083,942,1109,585,776,1367","20.64304018394324,-7.993450647041016,-19.686803127504927,-12.32467116729385,33.12011751186563,19.221388761533035,1.664375852753036,-18.463232171891065","-5.482180982307959,-9.521423469981467,-4.74754784197668,6.60489837599329,-7.314878744929793,-15.602097516660722,12.235248783732748,0.18304627243681126","0","0"
"712","86","text","0","12","164766","0-0","","","","","","","","","","","","","","","","","","","","","","","","","","","","","","","","","","","","",""
"","","plant-game","0","13","191103","0-0","","200","180","4","CORN CROP","Left","200","160","4","THISTLE WEED","practice","6","1,2,3,4","180,209.89144349216852,223.48557990255904,216.40315433464366","4,3,2,1","CORN CROP,CORN CROP,CORN CROP,CORN CROP","160,149.61199611991452,162.78154089682002,140.5856402176354","4,3,2,1","THISTLE WEED,THISTLE WEED,THISTLE WEED,THISTLE WEED","20,20,20,20","20,20,20,20","10,10,10,10","20,20,20,20","0,0,0,0","20,20,20,20","20,20,20,20","20,20,20,20","10,10,10,10","20,20,20,20","0,0,0,0","20,20,20,20","0,1,1,0","3370,2359,998,1319","29.891443492168513,13.59413641039052,-7.08242556791539,60.741494282383364","-10.388003880085485,13.169544776905497,-22.195900679184632,-15.761299481168678","0","0"
"621","86","text","0","14","191758","0-0","","","","","","","","","","","","","","","","","","","","","","","","","","","","","","","","","","","","",""
"","","plant-game","0","15","205987","0-0","","200","180","2","CORN CROP","Right","200","190","2","NETTLE WEED","practice","7","1,2","190,214.86426141471392","2,1","NETTLE WEED,NETTLE WEED","180,194.93464628811975","2,1","CORN CROP,CORN CROP","0,0","20,20","10,10","20,20","20,20","20,20","0,0","20,20","10,10","20,20","20,20","20,20","0,1","1041,1878","24.86426141471393,22.61437043014226","14.934646288119742,-26.95200254051518","0","0"
"654","86","text","0","16","206691","0-0","","","","","","","","","","","","","","","","","","","","","","","","","","","","","","","","","","","","",""
"","","plant-game","0","17","244962","0-0","","200","120","4","CORN CROP","Right","200","120","8","NETTLE WEED","practice","8","1,2,3,4,5,6,7,8","120,126.72905857584912,153.42376725666577,158.1497168971756,197.02106452057043,232.3575426767105,225.28303955920393,236.54599535850986","8,7,6,5,4,3,2,1","NETTLE WEED,NETTLE WEED,NETTLE WEED,NETTLE WEED,NETTLE WEED,NETTLE WEED,NETTLE WEED,NETTLE WEED","120,138.33706685569547,146.10226424052175,183.8362246443126,160,168.41231757311397,191.0723131282401,219.3538369523768","4,3,2,1,4,3,2,1","CORN CROP,CORN CROP,CORN CROP,CORN CROP,WHEAT CROP,WHEAT CROP,WHEAT CROP,WHEAT CROP","0,0,0,0,0,0,0,0","20,20,20,20,20,20,20,20","10,10,10,10,10,10,10,10","20,20,20,20,20,20,20,20","20,20,20,20,20,20,20,20","20,20,20,20,20,20,20,20","0,0,0,0,0,0,0,0","20,20,20,20,20,20,20,20","10,10,10,10,10,10,10,10","20,20,20,20,20,20,20,20","20,20,20,20,20,20,20,20","20,20,20,20,20,20,20,20","0,0,1,1,0,1,1,0","2132,2562,4087,798,4074,2059,743,1740","6.729058575849127,26.694708680816646,4.725949640509828,38.871347623394826,35.33647815614006,-7.074503117506552,11.262955799305917,-2.4684797283872575","18.337066855695458,7.765197384826278,37.73396040379085,40.636195635653806,8.41231757311398,22.659995555126134,28.28152382413671,20.228218219873657","0","0"
"867","86","text","0","18","245919","0-0","","","","","","","","","","","","","","","","","","","","","","","","","","","","","","","","","","","","",""
"","","plant-game","0","19","271794","0-0","","200","160","4","WHEAT CROP","Right","200","160","2","THISTLE WEED","practice","9","1,2,3,4","160,127.8658510097891,180,175.89497264617228","2,1,2,1","THISTLE WEED,THISTLE WEED,NETTLE WEED,NETTLE WEED","160,147.9942179648723,194.25735299205076,194.77329274224832","4,3,2,1","WHEAT CROP,WHEAT CROP,WHEAT CROP,WHEAT CROP","0,0,0,0","20,20,20,20","10,10,10,10","20,20,20,20","20,20,20,20","20,20,20,20","0,0,0,0","20,20,20,20","10,10,10,10","20,20,20,20","20,20,20,20","20,20,20,20","0,1,1,1","5704,1982,728,1398","-32.1341489902109,36.846284728618826,-4.105027353827715,9.368261044401452","-12.005782035127705,46.263135027178464,0.5159397501975747,10.21722328195616","0","0"
"807","86","text","0","20","272717","0-0","","","","","","","","","","","","","","","","","","","","","","","","","","","","","","","","","","","","",""
"","","plant-game","0","21","291425","0-0","","200","180","2","WHEAT CROP","Left","200","180","1","NETTLE WEED","practice","10","1,2","180,200.43905354742287","2,1","WHEAT CROP,WHEAT CROP","180,190","1,1","NETTLE WEED,THISTLE WEED","20,20","20,20","10,10","20,20","0,0","20,20","20,20","20,20","10,10","20,20","0,0","20,20","0,0","1323,1089","20.439053547422866,4.002751505107652","37.07159236195125,12.618929754225727","0","0"
"672","86","text","0","22","292157","0-0","","","","","","","","","","","","","","","","","","","","","","","","","","","","","","","","","","","","",""
"","","plant-game","0","23","329264","0-0","","200","120","8","WHEAT CROP","Right","200","160","4","NETTLE WEED","practice","11","1,2,3,4,5,6,7,8","160,202.91632540480543,227.6087071975674,242.46687878742813,160,169.64348487353814,134.00034442767185,161.7558158705538","4,3,2,1,4,3,2,1","NETTLE WEED,NETTLE WEED,NETTLE WEED,NETTLE WEED,THISTLE WEED,THISTLE WEED,THISTLE WEED,THISTLE WEED","120,158.98757105362833,162.43924144515938,142.88935851787056,158.97514081501518,164.63109053467565,180.9532008382884,235.1752000397591","8,7,6,5,4,3,2,1","WHEAT CROP,WHEAT CROP,WHEAT CROP,WHEAT CROP,WHEAT CROP,WHEAT CROP,WHEAT CROP,WHEAT CROP","0,0,0,0,0,0,0,0","20,20,20,20,20,20,20,20","10,10,10,10,10,10,10,10","20,20,20,20,20,20,20,20","20,20,20,20,20,20,20,20","20,20,20,20,20,20,20,20","0,0,0,0,0,0,0,0","20,20,20,20,20,20,20,20","10,10,10,10,10,10,10,10","20,20,20,20,20,20,20,20","20,20,20,20,20,20,20,20","20,20,20,20,20,20,20,20","1,0,0,1,0,0,1,1","4588,1053,1455,1168,3656,1027,1551,1202","42.91632540480542,24.692381792761992,14.85817158986072,23.809142034693384,9.643484873538151,-35.643140445866294,27.75547144288193,5.152746566936662","38.987571053628336,3.451670391531059,-19.54988292728881,16.085782297144622,5.655949719660463,16.32211030361276,54.22199920147068,11.818847053922285","0","0"
"912","86","text","0","24","330236","0-0","","","","","","","","","","","","","","","","","","","","","","","","","","","","","","","","","","","","",""
"","","plant-game","0","25","367380","0-0","","200","180","2","CORN CROP","Right","200","160","4","THISTLE WEED","practice","12","1,2,3,4","160,199.63248019057212,227.6309410116382,246.6081939831661","4,3,2,1","THISTLE WEED,THISTLE WEED,THISTLE WEED,THISTLE WEED","180,189.62335821134937,180,260.2736218459992","2,1,2,1","CORN CROP,CORN CROP,WHEAT CROP,WHEAT CROP","0,0,0,0","20,20,20,20","10,10,10,10","20,20,20,20","20,20,20,20","20,20,20,20","0,0,0,0","20,20,20,20","10,10,10,10","20,20,20,20","20,20,20,20","20,20,20,20","1,0,1,1","17796,1499,5055,2125","39.632480190572124,27.9984608210661,18.977252971527886,58.922972636947534","9.623358211349382,-3.012105977137633,80.2736218459992,22.19273603324917","0","0"
"2376","86","text","0","26","369876","0-0","","","","","","","","","","","","","","","","","","","","","","","","","","","","","","","","","","","","",""
"7596","86","text","0","27","378605","0-0","","","","","","","","","","","","","","","","","","","","","","","","","","","","","","","","","","","","",""
"","","plant-game","0","28","414094","0-0","","200","190","4","CORN CROP","Left","200","120","8","THISTLE WEED","experimental","1","1,2,3,4,5,6,7,8","190,181.83925718458622,187.94750877630807,180.54893733685668,160,136.67085086315043,172.3524902054964,200.10956580518922","4,3,2,1,4,3,2,1","CORN CROP,CORN CROP,CORN CROP,CORN CROP,WHEAT CROP,WHEAT CROP,WHEAT CROP,WHEAT CROP","120,124.24605224953599,147.40062022020967,134.3157706543962,134.24432747380874,120.65483426011286,125.79596940491355,122.95311757785561","8,7,6,5,4,3,2,1","THISTLE WEED,THISTLE WEED,THISTLE WEED,THISTLE WEED,THISTLE WEED,THISTLE WEED,THISTLE WEED,THISTLE WEED","20,20,20,20,20,20,20,20","20,20,20,20,20,20,20,20","10,10,10,10,10,10,10,10","20,20,20,20,20,20,20,20","0,0,0,0,0,0,0,0","20,20,20,20,20,20,20,20","20,20,20,20,20,20,20,20","20,20,20,20,20,20,20,20","10,10,10,10,10,10,10,10","20,20,20,20,20,20,20,20","0,0,0,0,0,0,0,0","20,20,20,20,20,20,20,20","1,0,0,1,1,0,0,0","6990,4462,1644,1501,4993,5528,806,807","-8.160742815413771,6.108251591721853,-7.398571439451377,-36.87661033576592,-23.329149136849573,35.681639342345946,27.757075599692836,8.883778714047937","4.246052249535993,23.15456797067369,-13.084849565813464,-0.07144318058747746,-13.58949321369588,5.141135144800689,-2.8428518270579453,36.177999657809096","0","0"
"824","86","text","0","29","415018","0-0","","","","","","","","","","","","","","","","","","","","","","","","","","","","","","","","","","","","",""
"","","plant-game","0","30","443023","0-0","","200","190","8","CORN CROP","Left","200","180","2","THISTLE WEED","experimental","2","1,2,3,4,5,6,7,8","190,196.53321304898276,239.0585578305948,230.85062204516524,238.82542072128956,234.1220560847335,241.34931693563465,227.15728525263913","8,7,6,5,4,3,2,1","CORN CROP,CORN CROP,CORN CROP,CORN CROP,CORN CROP,CORN CROP,CORN CROP,CORN CROP","180,184.1010455298434,140,154.73407212368133,161.44851802178,182.05332206242542,151.22653548245694,164.34975150459383","2,1,6,5,4,3,2,1","THISTLE WEED,THISTLE WEED,NETTLE WEED,NETTLE WEED,NETTLE WEED,NETTLE WEED,NETTLE WEED,NETTLE WEED","20,20,20,20,20,20,20,20","20,20,20,20,20,20,20,20","10,10,10,10,10,10,10,10","20,20,20,20,20,20,20,20","0,0,0,0,0,0,0,0","20,20,20,20,20,20,20,20","20,20,20,20,20,20,20,20","20,20,20,20,20,20,20,20","10,10,10,10,10,10,10,10","20,20,20,20,20,20,20,20","0,0,0,0,0,0,0,0","20,20,20,20,20,20,20,20","0,0,0,0,0,1,0,0","8953,701,4783,777,760,2999,954,665","6.53321304898277,42.525344781612034,-8.207935785429555,7.974798676124326,-4.703364636556067,7.227260850901174,-14.19203168299552,-12.48827655835722","4.1010455298433985,10.629458453910924,14.734072123681324,6.714445898098669,20.604804040645423,-30.826786579968484,13.123216022136884,41.49506595419425","0","0"
"752","86","text","0","31","443854","0-0","","","","","","","","","","","","","","","","","","","","","","","","","","","","","","","","","","","","",""
"","","plant-game","0","32","461735","0-0","","200","120","4","WHEAT CROP","Right","200","160","1","NETTLE WEED","experimental","3","1,2,3,4","160,170,159.98341228959882,159.80936335870624","1,3,2,1","NETTLE WEED,THISTLE WEED,THISTLE WEED,THISTLE WEED","120,116.48248780491038,100.15188173127223,83.75706138635752","4,3,2,1","WHEAT CROP,WHEAT CROP,WHEAT CROP,WHEAT CROP","0,0,0,0","20,20,20,20","10,10,10,10","20,20,20,20","20,20,20,20","20,20,20,20","0,0,0,0","20,20,20,20","10,10,10,10","20,20,20,20","20,20,20,20","20,20,20,20","1,0,0,0","5272,3395,614,669","24.32231883313793,-10.016587710401172,-0.17404893089258916,18.392197876272615","-3.517512195089626,-16.330606073638158,-16.39482034491471,-17.504661103708198","0","0"
"745","86","text","0","33","462527","0-0","","","","","","","","","","","","","","","","","","","","","","","","","","","","","","","","","","","","",""
"","","plant-game","0","34","471592","0-0","","200","180","1","CORN CROP","Right","200","180","1","NETTLE WEED","experimental","4","1","180","1","NETTLE WEED","180","1","CORN CROP","0","20","10","20","20","20","0","20","10","20","20","20","1","5210","39.14522716763914","20.156919792284597","0","0"
"604","86","text","0","35","472246","0-0","","","","","","","","","","","","","","","","","","","","","","","","","","","","","","","","","","","","",""
"","","plant-game","0","36","490841","0-0","","200","160","8","WHEAT CROP","Left","200","120","8","THISTLE WEED","experimental","5","1,2,3,4,5,6,7,8","160,191.23336839187834,232.69459075443132,240.4675493305515,246.81488289600995,237.49062959213936,238.28837426978782,216.01281593871664","8,7,6,5,4,3,2,1","WHEAT CROP,WHEAT CROP,WHEAT CROP,WHEAT CROP,WHEAT CROP,WHEAT CROP,WHEAT CROP,WHEAT CROP","120,151.42917110783102,182.57533356981,222.27218108882286,197.2570027652968,208.41907494520535,189.0368391679594,173.6045032840157","8,7,6,5,4,3,2,1","THISTLE WEED,THISTLE WEED,THISTLE WEED,THISTLE WEED,THISTLE WEED,THISTLE WEED,THISTLE WEED,THISTLE WEED","20,20,20,20,20,20,20,20","20,20,20,20,20,20,20,20","10,10,10,10,10,10,10,10","20,20,20,20,20,20,20,20","0,0,0,0,0,0,0,0","20,20,20,20,20,20,20,20","20,20,20,20,20,20,20,20","20,20,20,20,20,20,20,20","10,10,10,10,10,10,10,10","20,20,20,20,20,20,20,20","0,0,0,0,0,0,0,0","20,20,20,20,20,20,20,20","0,0,1,1,1,1,1,0","7071,533,881,756,1596,698,1324,984","31.23336839187835,41.461222362552974,7.772958576120179,6.347333565458463,-9.324253303870599,0.7977446776484655,-22.275558331071167,7.238241932882701","31.429171107831014,31.14616246197898,39.696847519012856,-25.015178323526083,11.162072179908558,-19.382235777245935,-15.432335883943718,39.26575593052436","0","0"
"676","86","text","0","37","491587","0-0","","","","","","","","","","","","","","","","","","","","","","","","","","","","","","","","","","","","",""
"","","plant-game","0","38","516637","0-0","","200","160","1","WHEAT CROP","Left","200","180","8","NETTLE WEED","experimental","6","1,2,3,4,5,6,7,8","160,130,155.5531969387117,180.01408343976894,172.09685176292246,168.62292335547355,147.55546098274993,133.97380307978972","1,7,6,5,4,3,2,1","WHEAT CROP,CORN CROP,CORN CROP,CORN CROP,CORN CROP,CORN CROP,CORN CROP,CORN CROP","180,135.79285630950972,134.12428642117754,165.96840049811294,194.02655822972005,185.48267791095478,208.13879271270272,220.08043618388604","8,7,6,5,4,3,2,1","NETTLE WEED,NETTLE WEED,NETTLE WEED,NETTLE WEED,NETTLE WEED,NETTLE WEED,NETTLE WEED,NETTLE WEED","20,20,20,20,20,20,20,20","20,20,20,20,20,20,20,20","10,10,10,10,10,10,10,10","20,20,20,20,20,20,20,20","0,0,0,0,0,0,0,0","20,20,20,20,20,20,20,20","20,20,20,20,20,20,20,20","20,20,20,20,20,20,20,20","10,10,10,10,10,10,10,10","20,20,20,20,20,20,20,20","0,0,0,0,0,0,0,0","20,20,20,20,20,20,20,20","1,0,0,0,1,1,1,1","8246,4034,527,840,732,859,502,1867","-12.603173637065488,25.553196938711686,24.46088650105725,-7.91723167684648,-3.473928407448923,-21.067462372723604,-13.581657902960218,-19.282252394520935","-44.20714369049027,-1.6685698883321756,31.844114076935387,28.058157731607103,-8.543880318765268,22.65611480174794,11.941643471183305,31.15150821281678","0","0"
"686","86","text","0","39","517413","0-0","","","","","","","","","","","","","","","","","","","","","","","","","","","","","","","","","","","","",""
"","","plant-game","0","40","532754","0-0","","200","160","4","WHEAT CROP","Left","200","180","1","NETTLE WEED","experimental","7","1,2,3,4","160,163.90727011711903,165.48470418122497,189.81406994148557","4,3,2,1","WHEAT CROP,WHEAT CROP,WHEAT CROP,WHEAT CROP","180,170,164.3778723728475,205.25264149121853","1,3,2,1","NETTLE WEED,THISTLE WEED,THISTLE WEED,THISTLE WEED","20,20,20,20","20,20,20,20","10,10,10,10","20,20,20,20","0,0,0,0","20,20,20,20","20,20,20,20","20,20,20,20","10,10,10,10","20,20,20,20","0,0,0,0","20,20,20,20","0,1,0,1","3785,2601,913,680","3.907270117119026,1.577434064105931,24.329365760260615,20.006649687109196","13.970813903238954,-5.622127627152519,40.87476911837102,-34.12219979967956","0","0"
"791","86","text","0","41","533602","0-0","","","","","","","","","","","","","","","","","","","","","","","","","","","","","","","","","","","","",""
"","","plant-game","0","42","550794","0-0","","200","160","4","CORN CROP","Right","200","180","2","THISTLE WEED","experimental","8","1,2,3,4","180,167.2185851789545,180,125.94033377584523","2,1,2,1","THISTLE WEED,THISTLE WEED,NETTLE WEED,NETTLE WEED","160,175.12059975515984,161.68196773879444,151.17702553719107","4,3,2,1","CORN CROP,CORN CROP,CORN CROP,CORN CROP","0,0,0,0","20,20,20,20","10,10,10,10","20,20,20,20","20,20,20,20","20,20,20,20","0,0,0,0","20,20,20,20","10,10,10,10","20,20,20,20","20,20,20,20","20,20,20,20","0,0,0,1","2349,4489,1976,665","-12.781414821045498,-22.09504219675971,-54.059666224154775,1.8917349782477224","15.120599755159832,-13.43863201636541,-10.504942201603358,41.70154860945057","0","0"
"826","86","text","0","43","551745","0-0","","","","","","","","","","","","","","","","","","","","","","","","","","","","","","","","","","","","",""
"","","plant-game","0","44","566984","0-0","","200","180","4","WHEAT CROP","Right","200","120","2","THISTLE WEED","experimental","9","1,2,3,4","120,151.29813021147692,180,197.18501170992545","2,1,2,1","THISTLE WEED,THISTLE WEED,NETTLE WEED,NETTLE WEED","180,206.6944003779513,203.14776133615538,200.99962264925566","4,3,2,1","WHEAT CROP,WHEAT CROP,WHEAT CROP,WHEAT CROP","0,0,0,0","20,20,20,20","10,10,10,10","20,20,20,20","20,20,20,20","20,20,20,20","0,0,0,0","20,20,20,20","10,10,10,10","20,20,20,20","20,20,20,20","20,20,20,20","1,0,0,1","4013,916,2383,2066","31.29813021147691,-18.25464004406986,17.18501170992544,12.726754175309399","26.694400377951293,-3.5466390417959097,-2.148138686899736,34.1238147282596","0","0"
"662","86","text","0","45","567706","0-0","","","","","","","","","","","","","","","","","","","","","","","","","","","","","","","","","","","","",""
"","","plant-game","0","46","587571","0-0","","200","190","1","WHEAT CROP","Right","200","120","8","THISTLE WEED","experimental","10","1,2,3,4,5,6,7,8","120,169.40428775461135,162.11463567444972,154.50383584121883,131.59955091227243,115.31401665123649,156.16848658628388,158.26724228467748","8,7,6,5,4,3,2,1","THISTLE WEED,THISTLE WEED,THISTLE WEED,THISTLE WEED,THISTLE WEED,THISTLE WEED,THISTLE WEED,THISTLE WEED","190,130,111.52853439983816,106.17209435798776,142.29937014249347,163.2201641412552,181.86016487293284,228.24738099041664","1,7,6,5,4,3,2,1","WHEAT CROP,CORN CROP,CORN CROP,CORN CROP,CORN CROP,CORN CROP,CORN CROP,CORN CROP","0,0,0,0,0,0,0,0","20,20,20,20,20,20,20,20","10,10,10,10,10,10,10,10","20,20,20,20,20,20,20,20","20,20,20,20,20,20,20,20","20,20,20,20,20,20,20,20","0,0,0,0,0,0,0,0","20,20,20,20,20,20,20,20","10,10,10,10,10,10,10,10","20,20,20,20,20,20,20,20","20,20,20,20,20,20,20,20","20,20,20,20,20,20,20,20","1,0,0,1,0,1,0,0","3281,2374,1213,898,1113,903,563,1438","49.40428775461136,-7.289652080161639,-7.610799833230883,-22.904284928946396,-16.285534261035952,40.8544699350474,2.098755698393603,14.115420871440737","6.906744113028244,-18.471465600161835,-5.356440041850409,36.12727578450571,20.920793998761717,18.640000731677652,46.387216117483796,-4.231708072854357","1","0"
"617","86","text","0","47","588228","0-0","","","","","","","","","","","","","","","","","","","","","","","","","","","","","","","","","","","","",""
"","","plant-game","0","48","610114","0-0","","200","190","8","WHEAT CROP","Right","200","190","1","NETTLE WEED","experimental","11","1,2,3,4,5,6,7,8","190,130,162.45419198061848,198.84364223225276,191.69695699116303,229.5960259058093,213.2897344686036,244.2401787376531","1,7,6,5,4,3,2,1","NETTLE WEED,THISTLE WEED,THISTLE WEED,THISTLE WEED,THISTLE WEED,THISTLE WEED,THISTLE WEED,THISTLE WEED","190,194.23524848844414,186.3628175477493,195.20904002214687,208.20209434037807,207.51979250090713,196.21746702377817,183.96498600526286","8,7,6,5,4,3,2,1","WHEAT CROP,WHEAT CROP,WHEAT CROP,WHEAT CROP,WHEAT CROP,WHEAT CROP,WHEAT CROP,WHEAT CROP","0,0,0,0,0,0,0,0","20,20,20,20,20,20,20,20","10,10,10,10,10,10,10,10","20,20,20,20,20,20,20,20","20,20,20,20,20,20,20,20","20,20,20,20,20,20,20,20","0,0,0,0,0,0,0,0","20,20,20,20,20,20,20,20","10,10,10,10,10,10,10,10","20,20,20,20,20,20,20,20","20,20,20,20,20,20,20,20","20,20,20,20,20,20,20,20","0,1,1,0,0,0,0,0","6914,2127,1836,649,671,753,665,670","12.612859828072175,32.454191980618475,36.38945025163429,-7.146685241089718,37.89906891464627,-16.306291437205708,30.950444269049516,-15.456658967767787","4.23524848844413,-7.872430940694851,8.846222474397553,12.993054318231213,-0.6823018394709356,-11.302325477128974,-12.252481018515306,27.761448550244356","0","0"
"563","86","text","0","49","610747","0-0","","","","","","","","","","","","","","","","","","","","","","","","","","","","","","","","","","","","",""
"","","plant-game","0","50","629025","0-0","","200","180","8","CORN CROP","Right","200","190","4","THISTLE WEED","experimental","12","1,2,3,4,5,6,7,8","190,189.5826313790397,221.06525080974066,223.38062095532908,160,189.51680002362568,218.6590041230537,252.5327004076887","4,3,2,1,4,3,2,1","THISTLE WEED,THISTLE WEED,THISTLE WEED,THISTLE WEED,NETTLE WEED,NETTLE WEED,NETTLE WEED,NETTLE WEED","180,199.13105522992058,191.13083844833548,195.88554056904104,196.22200067235414,211.08044090842515,260.47265164780725,310.0946191838023","8,7,6,5,4,3,2,1","CORN CROP,CORN CROP,CORN CROP,CORN CROP,CORN CROP,CORN CROP,CORN CROP,CORN CROP","0,0,0,0,0,0,0,0","20,20,20,20,20,20,20,20","10,10,10,10,10,10,10,10","20,20,20,20,20,20,20,20","20,20,20,20,20,20,20,20","20,20,20,20,20,20,20,20","0,0,0,0,0,0,0,0","20,20,20,20,20,20,20,20","10,10,10,10,10,10,10,10","20,20,20,20,20,20,20,20","20,20,20,20,20,20,20,20","20,20,20,20,20,20,20,20","0,0,0,0,0,1,0,0","2589,2032,1327,536,2192,882,572,842","-0.41736862096030836,31.482619430700964,2.3153701455884184,39.545461658184976,29.516800023625667,29.142204099428042,33.873696284635,-24.108277978012772","19.13105522992057,-8.000216781585102,4.754702120705551,0.3364601033131055,14.858440236070996,49.39221073938211,49.62196753599503,-6.015557670241226","0","0"
"643","86","text","0","51","629748","0-0","","","","","","","","","","","","","","","","","","","","","","","","","","","","","","","","","","","","",""
"","","plant-game","0","52","642870","0-0","","200","180","2","CORN CROP","Right","200","160","1","THISTLE WEED","experimental","13","1,2","160,190","1,1","THISTLE WEED,NETTLE WEED","180,215.8878951536831","2,1","CORN CROP,CORN CROP","0,0","20,20","10,10","20,20","20,20","20,20","0,0","20,20","10,10","20,20","20,20","20,20","1,1","3701,2578","17.602019603121914,16.25910981248032","35.8878951536831,25.412521676152274","0","0"
"643","86","text","0","53","643568","0-0","","","","","","","","","","","","","","","","","","","","","","","","","","","","","","","","","","","","",""
"","","plant-game","0","54","660287","0-0","","200","180","1","CORN CROP","Left","200","190","2","THISTLE WEED","experimental","14","1,2","180,190","1,1","CORN CROP,WHEAT CROP","190,183.84653497774343","2,1","THISTLE WEED,THISTLE WEED","20,20","20,20","10,10","20,20","0,0","20,20","20,20","20,20","10,10","20,20","0,0","20,20","0,0","8804,1602","3.630592422702577,8.24625907278866","-6.153465022256572,35.65960051594926","0","0"
"627","86","text","0","55","660994","0-0","","","","","","","","","","","","","","","","","","","","","","","","","","","","","","","","","","","","",""
"","","plant-game","0","56","682560","0-0","","200","120","1","CORN CROP","Left","200","180","8","THISTLE WEED","experimental","15","1,2,3,4,5,6,7,8","120,130,187.8253927901514,203.15091189995132,211.20192000409907,191.41548492365501,189.95164639513234,238.63205713442665","1,7,6,5,4,3,2,1","CORN CROP,WHEAT CROP,WHEAT CROP,WHEAT CROP,WHEAT CROP,WHEAT CROP,WHEAT CROP,WHEAT CROP","180,174.90379068825058,175.8531761020202,180.0474054464734,165.27188052823462,193.11487190516206,203.7692170158417,220.37185742874644","8,7,6,5,4,3,2,1","THISTLE WEED,THISTLE WEED,THISTLE WEED,THISTLE WEED,THISTLE WEED,THISTLE WEED,THISTLE WEED,THISTLE WEED","20,20,20,20,20,20,20,20","20,20,20,20,20,20,20,20","10,10,10,10,10,10,10,10","20,20,20,20,20,20,20,20","0,0,0,0,0,0,0,0","20,20,20,20,20,20,20,20","20,20,20,20,20,20,20,20","20,20,20,20,20,20,20,20","10,10,10,10,10,10,10,10","20,20,20,20,20,20,20,20","0,0,0,0,0,0,0,0","20,20,20,20,20,20,20,20","1,0,1,1,1,1,0,1","2887,4341,956,845,1350,1123,958,696","-0.20228454405186305,57.82539279015141,15.325519109799934,8.05100810414775,-19.786435080444043,-1.4638385285226652,48.68041073929432,53.60231205706362","-5.0962093117494325,0.9493854137696225,4.194229344453185,-14.77552491823878,27.842991376927447,10.654345110679639,16.60264041290476,-20.020344114786436","0","0"
"604","86","text","0","57","683276","0-0","","","","","","","","","","","","","","","","","","","","","","","","","","","","","","","","","","","","",""
"","","plant-game","0","58","701734","0-0","","200","160","8","WHEAT CROP","Left","200","160","4","NETTLE WEED","experimental","16","1,2,3,4,5,6,7,8","160,144.31442016634745,137.05621736713712,189.61586437978343,206.84064567461405,226.79817847796457,217.70485559426905,223.7224429200408","8,7,6,5,4,3,2,1","WHEAT CROP,WHEAT CROP,WHEAT CROP,WHEAT CROP,WHEAT CROP,WHEAT CROP,WHEAT CROP,WHEAT CROP","160,165.97288235393606,134.98392980176948,149.8506999609389,160,151.6017536913787,126.48416153955412,180.79517382116296","4,3,2,1,4,3,2,1","NETTLE WEED,NETTLE WEED,NETTLE WEED,NETTLE WEED,THISTLE WEED,THISTLE WEED,THISTLE WEED,THISTLE WEED","20,20,20,20,20,20,20,20","20,20,20,20,20,20,20,20","10,10,10,10,10,10,10,10","20,20,20,20,20,20,20,20","0,0,0,0,0,0,0,0","20,20,20,20,20,20,20,20","20,20,20,20,20,20,20,20","20,20,20,20,20,20,20,20","10,10,10,10,10,10,10,10","20,20,20,20,20,20,20,20","0,0,0,0,0,0,0,0","20,20,20,20,20,20,20,20","0,1,0,1,1,1,0,1","4651,1381,623,653,1698,1170,730,528","-15.685579833652547,-7.258202799210337,52.5596470126463,17.224781294830617,19.957532803350528,-9.093322883695526,6.017587325771746,9.275110509538628","5.9728823539360665,-30.98895255216657,14.866770159169413,-4.074021163693055,-8.39824630862132,-25.11759215182456,54.311012281608846,-13.276342457515884","0","0"
"10455","86","text","0","59","712267","0-0","","","","","","","","","","","","","","","","","","","","","","","","","","","","","","","","","","","","",""
"","","plant-game","0","60","736013","0-0","","200","160","2","WHEAT CROP","Left","200","180","8","THISTLE WEED","experimental","17","1,2,3,4,5,6,7,8","160,131.0433793280377,140,191.49215609732715,220.90683928283545,186.03413021682456,220.4360311875065,244.39207818312383","2,1,6,5,4,3,2,1","WHEAT CROP,WHEAT CROP,CORN CROP,CORN CROP,CORN CROP,CORN CROP,CORN CROP,CORN CROP","180,224.25198814096134,220.92490818613163,232.10724934302618,237.15226226768,237.29535461840902,261.9275738087233,276.5810451443924","8,7,6,5,4,3,2,1","THISTLE WEED,THISTLE WEED,THISTLE WEED,THISTLE WEED,THISTLE WEED,THISTLE WEED,THISTLE WEED,THISTLE WEED","20,20,20,20,20,20,20,20","20,20,20,20,20,20,20,20","10,10,10,10,10,10,10,10","20,20,20,20,20,20,20,20","0,0,0,0,0,0,0,0","20,20,20,20,20,20,20,20","20,20,20,20,20,20,20,20","20,20,20,20,20,20,20,20","10,10,10,10,10,10,10,10","20,20,20,20,20,20,20,20","0,0,0,0,0,0,0,0","20,20,20,20,20,20,20,20","1,0,0,0,1,0,1,0","10720,945,1442,616,534,641,807,623","-28.956620671962302,19.985858862865832,51.492156097327154,29.414683185508288,-34.87270906601089,34.401900970681936,23.956046995617328,23.762389134366487","44.251988140961345,-3.3270799548297205,11.182341156894552,5.045012924653818,0.1430923507290233,24.63221919031428,14.653471335669108,79.37618184271423","0","0"
"543","86","text","0","61","736666","0-0","","","","","","","","","","","","","","","","","","","","","","","","","","","","","","","","","","","","",""
"","","plant-game","0","62","755316","0-0","","200","120","2","WHEAT CROP","Left","200","160","1","NETTLE WEED","experimental","18","1,2","120,117.65794842144135","2,1","WHEAT CROP,WHEAT CROP","160,190","1,1","NETTLE WEED,THISTLE WEED","20,20","20,20","10,10","20,20","0,0","20,20","20,20","20,20","10,10","20,20","0,0","20,20","0,1","7199,4447","-2.3420515785586495,-7.038031510416843","-18.095729148619284,-12.354436413604864","1","0"
"662","86","text","0","63","756056","0-0","","","","","","","","","","","","","","","","","","","","","","","","","","","","","","","","","","","","",""
"","","plant-game","0","64","770587","0-0","","200","160","4","WHEAT CROP","Right","200","120","1","THISTLE WEED","experimental","19","1,2,3,4","120,170,189.16007258976498,192.0096786021884","1,3,2,1","THISTLE WEED,NETTLE WEED,NETTLE WEED,NETTLE WEED","160,197.78242690101462,171.15454268991527,166.43251143054786","4,3,2,1","WHEAT CROP,WHEAT CROP,WHEAT CROP,WHEAT CROP","0,0,0,0","20,20,20,20","10,10,10,10","20,20,20,20","20,20,20,20","20,20,20,20","0,0,0,0","20,20,20,20","10,10,10,10","20,20,20,20","20,20,20,20","20,20,20,20","1,0,0,0","2998,3501,1057,459","25.380176846758268,19.160072589764965,2.8496060124234117,-20.018939638985316","37.78242690101463,-26.627884211099357,-4.722031259367402,-20.043034854014348","0","0"
"779","86","text","0","65","771444","0-0","","","","","","","","","","","","","","","","","","","","","","","","","","","","","","","","","","","","",""
"","","plant-game","0","66","781556","0-0","","200","190","1","CORN CROP","Left","200","180","1","NETTLE WEED","experimental","20","1","190","1","CORN CROP","180","1","NETTLE WEED","20","20","10","20","0","20","20","20","10","20","0","20","1","6374","-29.13445126958081","11.162688178842192","0","0"
"692","86","text","0","67","782295","0-0","","","","","","","","","","","","","","","","","","","","","","","","","","","","","","","","","","","","",""
"","","plant-game","0","68","802345","0-0","","200","120","4","CORN CROP","Left","200","190","2","NETTLE WEED","experimental","21","1,2,3,4","120,121.15884256784962,128.90634558172874,157.6736955263507","4,3,2,1","CORN CROP,CORN CROP,CORN CROP,CORN CROP","190,230.3144661488614,180,195.49620042348639","2,1,2,1","NETTLE WEED,NETTLE WEED,THISTLE WEED,THISTLE WEED","20,20,20,20","20,20,20,20","10,10,10,10","20,20,20,20","0,0,0,0","20,20,20,20","20,20,20,20","20,20,20,20","10,10,10,10","20,20,20,20","0,0,0,0","20,20,20,20","0,1,0,1","3685,1630,4427,2388","1.158842567849618,7.747503013879119,28.767349944621976,40.22017098273079","40.31446614886142,-11.935451888542088,15.496200423486396,4.85914320418554","0","0"
"623","86","text","0","69","803032","0-0","","","","","","","","","","","","","","","","","","","","","","","","","","","","","","","","","","","","",""
"","","plant-game","0","70","821142","0-0","","200","120","4","WHEAT CROP","Right","200","120","1","THISTLE WEED","experimental","22","1,2,3,4","120,170,177.0563245267181,139.33474541846493","1,3,2,1","THISTLE WEED,NETTLE WEED,NETTLE WEED,NETTLE WEED","120,164.56656186426164,171.5156783832366,163.89316169479378","4,3,2,1","WHEAT CROP,WHEAT CROP,WHEAT CROP,WHEAT CROP","0,0,0,0","20,20,20,20","10,10,10,10","20,20,20,20","20,20,20,20","20,20,20,20","0,0,0,0","20,20,20,20","10,10,10,10","20,20,20,20","20,20,20,20","20,20,20,20","1,0,0,1","6511,3170,994,1259","35.319353507122514,7.056324526718094,-37.721579108253174,25.23832155516559","44.566561864261644,6.949116518974949,-7.622516688442835,18.003397916645984","0","0"
"588","86","text","0","71","821777","0-0","","","","","","","","","","","","","","","","","","","","","","","","","","","","","","","","","","","","",""
"","","plant-game","0","72","834652","0-0","","200","160","4","CORN CROP","Right","200","160","4","NETTLE WEED","experimental","23","1,2,3,4","160,158.9718024331072,182.00564832790823,186.33365437192998","4,3,2,1","NETTLE WEED,NETTLE WEED,NETTLE WEED,NETTLE WEED","160,136.73401933091193,146.07615869331238,139.52792518818694","4,3,2,1","CORN CROP,CORN CROP,CORN CROP,CORN CROP","0,0,0,0","20,20,20,20","10,10,10,10","20,20,20,20","20,20,20,20","20,20,20,20","0,0,0,0","20,20,20,20","10,10,10,10","20,20,20,20","20,20,20,20","20,20,20,20","0,1,0,0","4155,3550,516,433","-1.0281975668928016,23.033845894801022,4.328006044021759,0.46349028009217164","-23.265980669088073,9.342139362400442,-6.548233505125428,-17.538511741324815","0","0"
"573","86","text","0","73","835287","0-0","","","","","","","","","","","","","","","","","","","","","","","","","","","","","","","","","","","","",""
"","","plant-game","0","74","848125","0-0","","200","190","2","CORN CROP","Left","200","120","4","NETTLE WEED","experimental","24","1,2,3,4","190,183.69992878174608,180,166.4930542532503","2,1,2,1","CORN CROP,CORN CROP,WHEAT CROP,WHEAT CROP","120,136.18489453126972,170.49152266152282,148.63497391293294","4,3,2,1","NETTLE WEED,NETTLE WEED,NETTLE WEED,NETTLE WEED","20,20,20,20","20,20,20,20","10,10,10,10","20,20,20,20","0,0,0,0","20,20,20,20","20,20,20,20","20,20,20,20","10,10,10,10","20,20,20,20","0,0,0,0","20,20,20,20","0,0,1,0","4343,818,1043,635","-6.30007121825393,31.878771694784657,-13.50694574674969,40.519759285091155","16.184894531269713,34.3066281302531,-21.85654874858988,1.0576191763099594","0","0"
"637","86","text","0","75","848842","0-0","","","","","","","","","","","","","","","","","","","","","","","","","","","","","","","","","","","","",""
"","","plant-game","0","76","862657","0-0","","200","120","2","WHEAT CROP","Left","200","120","1","NETTLE WEED","experimental","25","1,2","120,110.28544042482324","2,1","WHEAT CROP,WHEAT CROP","120,190","1,1","NETTLE WEED,THISTLE WEED","20,20","20,20","10,10","20,20","0,0","20,20","20,20","20,20","10,10","20,20","0,0","20,20","0,1","5845,1362","-9.714559575176771,-31.213585530678834","42.785667166809695,15.97741972189297","0","0"
"627","86","text","0","77","863346","0-0","","","","","","","","","","","","","","","","","","","","","","","","","","","","","","","","","","","","",""
"","","plant-game","0","78","875802","0-0","","200","160","2","WHEAT CROP","Left","200","180","2","THISTLE WEED","experimental","26","1,2","160,182.31486009065242","2,1","WHEAT CROP,WHEAT CROP","180,182.39887437961437","2,1","THISTLE WEED,THISTLE WEED","20,20","20,20","10,10","20,20","0,0","20,20","20,20","20,20","10,10","20,20","0,0","20,20","0,1","6546,2259","22.314860090652427,26.806145858560516","2.398874379614359,5.519242559724687","0","0"
"627","86","text","0","79","876510","0-0","","","","","","","","","","","","","","","","","","","","","","","","","","","","","","","","","","","","",""
"","","plant-game","0","80","900718","0-0","","200","120","2","WHEAT CROP","Left","200","180","8","THISTLE WEED","experimental","27","1,2,3,4,5,6,7,8","120,176.92135799424008,140,180.55449245601207,234.05487694433526,279.06908112945723,304.69990244138813,287.8598729412013","2,1,6,5,4,3,2,1","WHEAT CROP,WHEAT CROP,CORN CROP,CORN CROP,CORN CROP,CORN CROP,CORN CROP,CORN CROP","180,164.91529832304875,195.9613614566732,205.62493317543738,228.55914294303332,301.89279238807353,305.7341090247225,343.9700985699879","8,7,6,5,4,3,2,1","THISTLE WEED,THISTLE WEED,THISTLE WEED,THISTLE WEED,THISTLE WEED,THISTLE WEED,THISTLE WEED,THISTLE WEED","20,20,20,20,20,20,20,20","20,20,20,20,20,20,20,20","10,10,10,10,10,10,10,10","20,20,20,20,20,20,20,20","0,0,0,0,0,0,0,0","20,20,20,20,20,20,20,20","20,20,20,20,20,20,20,20","20,20,20,20,20,20,20,20","10,10,10,10,10,10,10,10","20,20,20,20,20,20,20,20","0,0,0,0,0,0,0,0","20,20,20,20,20,20,20,20","0,0,0,0,0,1,1,1","4105,1538,3486,1156,888,5115,614,687","56.92135799424008,5.59004779602671,40.55449245601207,53.500384488323185,45.014204185121955,25.630821311930916,-16.840029500186883,10.05887701556031","-15.084701676951248,31.046063133624436,9.663571718764183,22.93420976759594,73.33364944504024,3.8413166366489677,38.23598954526542,-32.70692962541829","0","0"
"661","86","text","0","81","901429","0-0","","","","","","","","","","","","","","","","","","","","","","","","","","","","","","","","","","","","",""
"","","plant-game","0","82","917986","0-0","","200","190","1","WHEAT CROP","Left","200","160","8","THISTLE WEED","experimental","28","1,2,3,4,5,6,7,8","190,130,124.73594373644336,121.39995794449571,111.79145312662035,110.29707791232451,96.58059972159457,107.87767094684719","1,7,6,5,4,3,2,1","WHEAT CROP,CORN CROP,CORN CROP,CORN CROP,CORN CROP,CORN CROP,CORN CROP,CORN CROP","160,165.62146224968618,161.53920879980078,201.31163717419804,198.3456505187945,222.35717788235002,211.20146823035543,211.37511808656947","8,7,6,5,4,3,2,1","THISTLE WEED,THISTLE WEED,THISTLE WEED,THISTLE WEED,THISTLE WEED,THISTLE WEED,THISTLE WEED,THISTLE WEED","20,20,20,20,20,20,20,20","20,20,20,20,20,20,20,20","10,10,10,10,10,10,10,10","20,20,20,20,20,20,20,20","0,0,0,0,0,0,0,0","20,20,20,20,20,20,20,20","20,20,20,20,20,20,20,20","20,20,20,20,20,20,20,20","10,10,10,10,10,10,10,10","20,20,20,20,20,20,20,20","0,0,0,0,0,0,0,0","20,20,20,20,20,20,20,20","0,1,1,1,1,1,1,1","3306,1289,553,665,558,440,1998,621","24.790458042851903,-5.264056263556643,-3.3359857919476537,-9.608504817875364,-1.4943752142958366,-13.716478190729946,11.297071225252628,28.83888168846291","5.621462249686164,-4.082253449885408,39.77242837439728,-2.9659866554035217,24.011527363555516,-11.155709651994584,0.17364985621402856,21.4005409015946","0","0"
"717","86","text","0","83","918773","0-0","","","","","","","","","","","","","","","","","","","","","","","","","","","","","","","","","","","","",""
"","","plant-game","0","84","936595","0-0","","200","160","4","WHEAT CROP","Left","200","180","8","NETTLE WEED","experimental","29","1,2,3,4,5,6,7,8","160,142.9182703710353,163.2747763944686,160.40278985493774,160,171.29318522297623,189.47700769434405,195.5444622905764","4,3,2,1,4,3,2,1","WHEAT CROP,WHEAT CROP,WHEAT CROP,WHEAT CROP,CORN CROP,CORN CROP,CORN CROP,CORN CROP","180,198.34340912697093,234.3160354349067,265.4008581786279,289.52083965036445,275.42974449110807,278.19898345316756,297.4860213885856","8,7,6,5,4,3,2,1","NETTLE WEED,NETTLE WEED,NETTLE WEED,NETTLE WEED,NETTLE WEED,NETTLE WEED,NETTLE WEED,NETTLE WEED","20,20,20,20,20,20,20,20","20,20,20,20,20,20,20,20","10,10,10,10,10,10,10,10","20,20,20,20,20,20,20,20","0,0,0,0,0,0,0,0","20,20,20,20,20,20,20,20","20,20,20,20,20,20,20,20","20,20,20,20,20,20,20,20","10,10,10,10,10,10,10,10","20,20,20,20,20,20,20,20","0,0,0,0,0,0,0,0","20,20,20,20,20,20,20,20","1,1,0,0,1,1,1,1","4349,1534,1122,482,1693,569,403,372","-17.081729628964702,20.35650602343329,-2.8719865395308553,25.665060821669027,11.293185222976241,18.183822471367815,6.067454596232351,-5.147314126629451","18.343409126970926,35.972626307935776,31.08482274372119,24.119981471736565,-14.091095159256412,2.769238962059504,19.287037935418002,-15.443009743959454","1","0"
"678","86","text","0","85","937353","0-0","","","","","","","","","","","","","","","","","","","","","","","","","","","","","","","","","","","","",""
"","","plant-game","0","86","958704","0-0","","200","120","8","CORN CROP","Left","200","180","2","NETTLE WEED","experimental","30","1,2,3,4,5,6,7,8","120,99.90142446333553,85.22237780380544,112.30781485016384,104.32264219905943,140.43835158301846,155.27611953791668,176.3924070638697","8,7,6,5,4,3,2,1","CORN CROP,CORN CROP,CORN CROP,CORN CROP,CORN CROP,CORN CROP,CORN CROP,CORN CROP","180,157.3750867209377,140,187.85874926265984,197.955509942847,192.2147196366446,225.02932774202316,257.06602102286746","2,1,6,5,4,3,2,1","NETTLE WEED,NETTLE WEED,THISTLE WEED,THISTLE WEED,THISTLE WEED,THISTLE WEED,THISTLE WEED,THISTLE WEED","20,20,20,20,20,20,20,20","20,20,20,20,20,20,20,20","10,10,10,10,10,10,10,10","20,20,20,20,20,20,20,20","0,0,0,0,0,0,0,0","20,20,20,20,20,20,20,20","20,20,20,20,20,20,20,20","20,20,20,20,20,20,20,20","10,10,10,10,10,10,10,10","20,20,20,20,20,20,20,20","0,0,0,0,0,0,0,0","20,20,20,20,20,20,20,20","1,1,0,1,0,0,0,0","7002,1039,4019,1006,493,490,527,407","-20.098575536664466,-14.67904665953008,27.08543704635839,-7.985172651104407,36.11570938395903,14.83776795489822,21.116287525953013,66.70841184779457","-22.62491327906231,-7.848647890337581,47.85874926265984,10.09676068018714,-5.740790306202385,32.81460810537857,32.036693280844304,4.467198949314826","0","0"
"541","86","text","0","87","959295","0-0","","","","","","","","","","","","","","","","","","","","","","","","","","","","","","","","","","","","",""
"","","plant-game","0","88","977987","0-0","","200","190","2","CORN CROP","Left","200","180","8","THISTLE WEED","experimental","31","1,2,3,4,5,6,7,8","190,170.23087071853553,140,145.20535813456738,138.13919582319534,134.7773525819195,101.6166485884055,120.70829390743822","2,1,6,5,4,3,2,1","CORN CROP,CORN CROP,WHEAT CROP,WHEAT CROP,WHEAT CROP,WHEAT CROP,WHEAT CROP,WHEAT CROP","180,183.46276458702218,174.21569928342583,197.95321530326223,198.0453650347232,226.2418052195894,212.90163227308847,218.60221492882826","8,7,6,5,4,3,2,1","THISTLE WEED,THISTLE WEED,THISTLE WEED,THISTLE WEED,THISTLE WEED,THISTLE WEED,THISTLE WEED,THISTLE WEED","20,20,20,20,20,20,20,20","20,20,20,20,20,20,20,20","10,10,10,10,10,10,10,10","20,20,20,20,20,20,20,20","0,0,0,0,0,0,0,0","20,20,20,20,20,20,20,20","20,20,20,20,20,20,20,20","20,20,20,20,20,20,20,20","10,10,10,10,10,10,10,10","20,20,20,20,20,20,20,20","0,0,0,0,0,0,0,0","20,20,20,20,20,20,20,20","1,1,0,1,1,1,1,1","2667,1356,2012,1172,4083,656,345,295","-19.769129281464462,-28.008029069024314,5.205358134567387,-7.066162311372048,-3.3618432412758246,-33.160703993514,19.091645319032715,-0.8177574619068312","3.462764587022169,-9.247065303596331,23.737516019836384,0.09214973146097252,28.196440184866187,-13.340172946500914,5.700582655739803,14.010796030318149","0","0"
"580","86","text","0","89","978627","0-0","","","","","","","","","","","","","","","","","","","","","","","","","","","","","","","","","","","","",""
"","","plant-game","0","90","997228","0-0","","200","120","8","WHEAT CROP","Left","200","120","2","THISTLE WEED","experimental","32","1,2,3,4,5,6,7,8","120,155.47438625304557,206.01810548840578,248.10536803613874,297.25545462671164,315.01656877982487,331.0109813642803,332.3013496779249","8,7,6,5,4,3,2,1","WHEAT CROP,WHEAT CROP,WHEAT CROP,WHEAT CROP,WHEAT CROP,WHEAT CROP,WHEAT CROP,WHEAT CROP","120,89.43671527666727,140,137.7027551491645,143.04786273644677,119.76225933198593,138.14717810429798,132.68871996006527","2,1,6,5,4,3,2,1","THISTLE WEED,THISTLE WEED,NETTLE WEED,NETTLE WEED,NETTLE WEED,NETTLE WEED,NETTLE WEED,NETTLE WEED","20,20,20,20,20,20,20,20","20,20,20,20,20,20,20,20","10,10,10,10,10,10,10,10","20,20,20,20,20,20,20,20","0,0,0,0,0,0,0,0","20,20,20,20,20,20,20,20","20,20,20,20,20,20,20,20","20,20,20,20,20,20,20,20","10,10,10,10,10,10,10,10","20,20,20,20,20,20,20,20","0,0,0,0,0,0,0,0","20,20,20,20,20,20,20,20","0,0,0,0,0,0,1,1","2121,1950,2034,2343,1175,1075,1074,468","35.47438625304557,50.54371923536022,42.08726254773296,49.15008659057288,17.76111415311325,15.994412584455473,1.2903683136445887,-8.980267755531607","-30.56328472333273,-8.227256923198489,-2.2972448508355185,5.34510758728228,-23.285603404460844,18.38491877231204,-5.4584581442327,9.98582916984386","0","0"
"4206","86","text","0","91","1001496","0-0","","","","","","","","","","","","","","","","","","","","","","","","","","","","","","","","","","","","",""
"","","plant-game","0","92","1015499","0-0","","200","190","2","CORN CROP","Left","200","120","8","THISTLE WEED","experimental","33","1,2,3,4,5,6,7,8","190,216.2894675335227,140,158.31397604086231,123.48298462045484,136.501451817779,180.17851530965436,205.30603496860147","2,1,6,5,4,3,2,1","CORN CROP,CORN CROP,WHEAT CROP,WHEAT CROP,WHEAT CROP,WHEAT CROP,WHEAT CROP,WHEAT CROP","120,89.05067353784926,105.58080345876185,103.67461566399562,100.22935613162292,92.68163320975682,150.42795354375184,155.97218979691064","8,7,6,5,4,3,2,1","THISTLE WEED,THISTLE WEED,THISTLE WEED,THISTLE WEED,THISTLE WEED,THISTLE WEED,THISTLE WEED,THISTLE WEED","20,20,20,20,20,20,20,20","20,20,20,20,20,20,20,20","10,10,10,10,10,10,10,10","20,20,20,20,20,20,20,20","0,0,0,0,0,0,0,0","20,20,20,20,20,20,20,20","20,20,20,20,20,20,20,20","20,20,20,20,20,20,20,20","10,10,10,10,10,10,10,10","20,20,20,20,20,20,20,20","0,0,0,0,0,0,0,0","20,20,20,20,20,20,20,20","1,1,1,1,0,0,0,0","1938,808,1406,428,955,368,426,1348","26.289467533522686,-47.57468333595276,18.3139760408623,-34.83099142040747,13.018467197324156,43.677063491875344,25.127519658947122,12.898149991148427","-30.949326462150736,16.53012992091259,-1.906187794766231,-3.445259532372709,-7.547722921866104,57.74632033399501,5.544236253158797,8.576546371661461","0","0"
"665","86","text","0","93","1016224","0-0","","","","","","","","","","","","","","","","","","","","","","","","","","","","","","","","","","","","",""
"","","plant-game","0","94","1026323","0-0","","200","120","4","CORN CROP","Right","200","160","2","THISTLE WEED","experimental","34","1,2,3,4","160,172.37120688559148,180,188.24008934996402","2,1,2,1","THISTLE WEED,THISTLE WEED,NETTLE WEED,NETTLE WEED","120,115.83695136395782,130.48995217551655,108.87579038771395","4,3,2,1","CORN CROP,CORN CROP,CORN CROP,CORN CROP","0,0,0,0","20,20,20,20","10,10,10,10","20,20,20,20","20,20,20,20","20,20,20,20","0,0,0,0","20,20,20,20","10,10,10,10","20,20,20,20","20,20,20,20","20,20,20,20","1,1,0,0","2017,476,1456,922","12.371206885591489,25.465716400216102,8.240089349964038,10.380373176661069","-4.163048636042181,14.653000811558723,-21.614161787802594,-23.55954377480746","0","0"
"497","86","text","0","95","1026880","0-0","","","","","","","","","","","","","","","","","","","","","","","","","","","","","","","","","","","","",""
"","","plant-game","0","96","1039600","0-0","","200","120","1","WHEAT CROP","Left","200","190","8","THISTLE WEED","experimental","35","1,2,3,4,5,6,7,8","120,130,162.37141148877325,156.6526761780837,161.1446629421527,180.5848244642522,166.54699259208886,168.43450144086458","1,7,6,5,4,3,2,1","WHEAT CROP,CORN CROP,CORN CROP,CORN CROP,CORN CROP,CORN CROP,CORN CROP,CORN CROP","190,157.69970042374473,189.66483530541743,216.59169435112983,206.0859357843452,224.86118741030452,239.8215728286978,237.0713621887208","8,7,6,5,4,3,2,1","THISTLE WEED,THISTLE WEED,THISTLE WEED,THISTLE WEED,THISTLE WEED,THISTLE WEED,THISTLE WEED,THISTLE WEED","20,20,20,20,20,20,20,20","20,20,20,20,20,20,20,20","10,10,10,10,10,10,10,10","20,20,20,20,20,20,20,20","0,0,0,0,0,0,0,0","20,20,20,20,20,20,20,20","20,20,20,20,20,20,20,20","20,20,20,20,20,20,20,20","10,10,10,10,10,10,10,10","20,20,20,20,20,20,20,20","0,0,0,0,0,0,0,0","20,20,20,20,20,20,20,20","1,0,1,0,0,1,1,1","646,1989,679,777,336,531,802,741","10.008155524870372,32.37141148877325,-5.718735310689526,4.49198676406899,19.440161522099483,-14.037831872163345,1.8875088487757308,-2.8886758996403854","-32.30029957625528,31.965134881672704,26.926859045712416,-10.505758566784628,18.77525162595932,14.960385418393287,-2.750210639977026,2.1692727451072717","0","0"
"517","86","text","0","97","1040197","0-0","","","","","","","","","","","","","","","","","","","","","","","","","","","","","","","","","","","","",""
"","","plant-game","0","98","1058370","0-0","","200","160","8","WHEAT CROP","Left","200","190","2","THISTLE WEED","experimental","36","1,2,3,4,5,6,7,8","160,118.65513535754522,122.69235453365572,118.6493893241349,111.19958548601325,132.69143058718242,136.905161290019,122.731524579383","8,7,6,5,4,3,2,1","WHEAT CROP,WHEAT CROP,WHEAT CROP,WHEAT CROP,WHEAT CROP,WHEAT CROP,WHEAT CROP,WHEAT CROP","190,200.26135386110127,140,168.96840224283233,168.2657111098002,190.46024820823948,259.19570015894965,267.7544824672206","2,1,6,5,4,3,2,1","THISTLE WEED,THISTLE WEED,NETTLE WEED,NETTLE WEED,NETTLE WEED,NETTLE WEED,NETTLE WEED,NETTLE WEED","20,20,20,20,20,20,20,20","20,20,20,20,20,20,20,20","10,10,10,10,10,10,10,10","20,20,20,20,20,20,20,20","0,0,0,0,0,0,0,0","20,20,20,20,20,20,20,20","20,20,20,20,20,20,20,20","20,20,20,20,20,20,20,20","10,10,10,10,10,10,10,10","20,20,20,20,20,20,20,20","0,0,0,0,0,0,0,0","20,20,20,20,20,20,20,20","1,1,0,0,1,0,0,1","5557,503,3218,361,422,1,685,401","-41.34486464245477,4.0372191761104945,-4.042965209520819,-7.449803838121653,21.491845101169172,4.213730702836575,-14.173636710635996,25.73359830337627","10.26135386110128,-3.1924294349720084,28.968402242832315,-0.7026911330321219,22.194537098439262,68.73545195071016,8.558782308270946,3.704278241617203","1","0"
"653","86","text","0","99","1059103","0-0","","","","","","","","","","","","","","","","","","","","","","","","","","","","","","","","","","","","",""
"","","plant-game","0","100","1071079","0-0","","200","120","2","WHEAT CROP","Left","200","190","4","NETTLE WEED","experimental","37","1,2,3,4","120,155.34452936641787,180,186.67952731061663","2,1,2,1","WHEAT CROP,WHEAT CROP,CORN CROP,CORN CROP","190,205.18332109191337,206.68192127617888,188.9507634274599","4,3,2,1","NETTLE WEED,NETTLE WEED,NETTLE WEED,NETTLE WEED","20,20,20,20","20,20,20,20","10,10,10,10","20,20,20,20","0,0,0,0","20,20,20,20","20,20,20,20","20,20,20,20","10,10,10,10","20,20,20,20","0,0,0,0","20,20,20,20","0,1,1,0","682,2074,2074,963","35.34452936641786,-24.381301132414706,6.679527310616637,18.228420485291508","15.183321091913369,1.4986001842655117,-17.731157848719008,53.454839405434754","0","0"
"518","86","text","0","101","1071647","0-0","","","","","","","","","","","","","","","","","","","","","","","","","","","","","","","","","","","","",""
"","","plant-game","0","102","1083493","0-0","","200","120","2","WHEAT CROP","Left","200","190","8","NETTLE WEED","experimental","38","1,2,3,4,5,6,7,8","120,156.48597903722703,140,172.9109980983369,200.15245243239897,178.64942532489977,182.7288736867767,179.56439286884802","2,1,6,5,4,3,2,1","WHEAT CROP,WHEAT CROP,CORN CROP,CORN CROP,CORN CROP,CORN CROP,CORN CROP,CORN CROP","190,180.81820295259473,170.70089498095916,159.7010763636897,160.3323901136861,174.6333671064383,203.68771706079764,201.97620328615756","8,7,6,5,4,3,2,1","NETTLE WEED,NETTLE WEED,NETTLE WEED,NETTLE WEED,NETTLE WEED,NETTLE WEED,NETTLE WEED,NETTLE WEED","20,20,20,20,20,20,20,20","20,20,20,20,20,20,20,20","10,10,10,10,10,10,10,10","20,20,20,20,20,20,20,20","0,0,0,0,0,0,0,0","20,20,20,20,20,20,20,20","20,20,20,20,20,20,20,20","20,20,20,20,20,20,20,20","10,10,10,10,10,10,10,10","20,20,20,20,20,20,20,20","0,0,0,0,0,0,0,0","20,20,20,20,20,20,20,20","1,1,1,1,1,0,1,1","802,491,1258,450,457,1642,539,392","36.48597903722704,8.66844299953381,32.9109980983369,27.241454334062066,-21.503027107499193,4.079448361876928,-3.1644808179286663,29.835076652134553","-9.181797047405272,-10.117307971635555,-10.999818617269451,0.6313137499963941,14.300976992752188,29.054349954359346,-1.7115137746400761,1.3104896284138916","0","0"
"483","86","text","0","103","1084016","0-0","","","","","","","","","","","","","","","","","","","","","","","","","","","","","","","","","","","","",""
"","","plant-game","0","104","1095613","0-0","","200","180","2","WHEAT CROP","Left","200","190","4","NETTLE WEED","experimental","39","1,2,3,4","180,203.23309046163854,180,191.6848127201688","2,1,2,1","WHEAT CROP,WHEAT CROP,CORN CROP,CORN CROP","190,162.5256760456065,134.22666306155165,158.5916120635996","4,3,2,1","NETTLE WEED,NETTLE WEED,NETTLE WEED,NETTLE WEED","20,20,20,20","20,20,20,20","10,10,10,10","20,20,20,20","0,0,0,0","20,20,20,20","20,20,20,20","20,20,20,20","10,10,10,10","20,20,20,20","0,0,0,0","20,20,20,20","1,1,1,1","1079,747,1233,609","23.23309046163854,7.674223104904976,11.684812720168786,16.58867691882672","-27.47432395439351,-28.299012984054855,24.364949002047943,42.42371540762383","1","0"
"738","86","text","0","105","1096492","0-0","","","","","","","","","","","","","","","","","","","","","","","","","","","","","","","","","","","","",""
"","","plant-game","0","106","1110508","0-0","","200","190","8","WHEAT CROP","Left","200","190","2","NETTLE WEED","experimental","40","1,2,3,4,5,6,7,8","190,202.0620795732387,187.68351290828008,223.16206294448747,258.70069251361144,274.5598273443664,302.2747225406989,315.3815670578531","8,7,6,5,4,3,2,1","WHEAT CROP,WHEAT CROP,WHEAT CROP,WHEAT CROP,WHEAT CROP,WHEAT CROP,WHEAT CROP,WHEAT CROP","190,203.2952901099443,140,134.9868880217769,142.4323593525197,165.5722658661447,186.91629412649561,197.8781467148506","2,1,6,5,4,3,2,1","NETTLE WEED,NETTLE WEED,THISTLE WEED,THISTLE WEED,THISTLE WEED,THISTLE WEED,THISTLE WEED,THISTLE WEED","20,20,20,20,20,20,20,20","20,20,20,20,20,20,20,20","10,10,10,10,10,10,10,10","20,20,20,20,20,20,20,20","0,0,0,0,0,0,0,0","20,20,20,20,20,20,20,20","20,20,20,20,20,20,20,20","20,20,20,20,20,20,20,20","10,10,10,10,10,10,10,10","20,20,20,20,20,20,20,20","0,0,0,0,0,0,0,0","20,20,20,20,20,20,20,20","0,1,0,0,0,0,1,1","683,1293,1717,1027,496,378,847,1119","12.062079573238705,-14.378566664958608,35.478550036207395,35.538629569123955,15.859134830754964,27.714895196332524,13.106844517154151,32.081014256839595","13.295290109944302,5.983396535202931,-5.01311197822309,7.445471330742809,23.139906513624986,21.344028260350903,10.961852588354992,-8.500795189275824","0","0"
"626","86","text","0","107","1111184","0-0","","","","","","","","","","","","","","","","","","","","","","","","","","","","","","","","","","","","",""
"","","plant-game","0","108","1125136","0-0","","200","190","8","CORN CROP","Left","200","120","2","NETTLE WEED","experimental","41","1,2,3,4,5,6,7,8","190,210.51849964298341,261.803170648859,250.29317781493108,245.44045178303583,256.07253541336394,242.86599414839367,268.6757116673189","8,7,6,5,4,3,2,1","CORN CROP,CORN CROP,CORN CROP,CORN CROP,CORN CROP,CORN CROP,CORN CROP,CORN CROP","120,124.86298891347943,140,129.83632490918063,138.5297004190545,140.5060367408148,103.60198192179594,141.5958717957942","2,1,6,5,4,3,2,1","NETTLE WEED,NETTLE WEED,THISTLE WEED,THISTLE WEED,THISTLE WEED,THISTLE WEED,THISTLE WEED,THISTLE WEED","20,20,20,20,20,20,20,20","20,20,20,20,20,20,20,20","10,10,10,10,10,10,10,10","20,20,20,20,20,20,20,20","0,0,0,0,0,0,0,0","20,20,20,20,20,20,20,20","20,20,20,20,20,20,20,20","20,20,20,20,20,20,20,20","10,10,10,10,10,10,10,10","20,20,20,20,20,20,20,20","0,0,0,0,0,0,0,0","20,20,20,20,20,20,20,20","0,0,1,1,0,1,0,1","1958,691,670,459,797,353,541,406","20.51849964298342,51.284671005875595,-11.509992833927933,-4.852726031895263,10.632083630328092,-13.20654126497028,25.809717518925233,-10.253472492582535","4.862988913479427,63.08680368545539,-10.163675090819364,8.693375509873885,1.9763363217603,-36.90405481901887,37.993889873998285,-16.670530274853043","0","0"
"574","86","text","0","109","1125820","0-0","","","","","","","","","","","","","","","","","","","","","","","","","","","","","","","","","","","","",""
"","","plant-game","0","110","1140773","0-0","","200","120","2","WHEAT CROP","Left","200","120","8","THISTLE WEED","experimental","42","1,2,3,4,5,6,7,8","120,134.4756068156493,140,175.08763122845767,168.07773686828924,183.20126915261977,203.49349719557011,237.96327141049704","2,1,6,5,4,3,2,1","WHEAT CROP,WHEAT CROP,CORN CROP,CORN CROP,CORN CROP,CORN CROP,CORN CROP,CORN CROP","120,121.41610076838708,143.34911141289984,152.76918540905328,132.1850643260448,161.17405980355983,154.55214380957824,197.76813939459507","8,7,6,5,4,3,2,1","THISTLE WEED,THISTLE WEED,THISTLE WEED,THISTLE WEED,THISTLE WEED,THISTLE WEED,THISTLE WEED,THISTLE WEED","20,20,20,20,20,20,20,20","20,20,20,20,20,20,20,20","10,10,10,10,10,10,10,10","20,20,20,20,20,20,20,20","0,0,0,0,0,0,0,0","20,20,20,20,20,20,20,20","20,20,20,20,20,20,20,20","20,20,20,20,20,20,20,20","10,10,10,10,10,10,10,10","20,20,20,20,20,20,20,20","0,0,0,0,0,0,0,0","20,20,20,20,20,20,20,20","0,0,1,1,0,1,0,1","3219,372,1451,483,1101,490,535,350","14.475606815649284,13.897767839369694,35.08763122845765,-7.009894360168421,15.123532284330537,20.292228042950327,34.46977421492693,45.498516677093626","1.4161007683870892,21.933010644512773,9.420073996153427,-20.584121083008494,28.988995477515047,-6.621915993981595,43.215995585016834,-46.93950576607239","0","0"
"530","86","text","0","111","1141393","0-0","","","","","","","","","","","","","","","","","","","","","","","","","","","","","","","","","","","","",""
"","","plant-game","0","112","1152523","0-0","","200","190","2","CORN CROP","Right","200","120","1","NETTLE WEED","experimental","43","1,2","120,190","1,1","NETTLE WEED,THISTLE WEED","190,193.31741464258323","2,1","CORN CROP,CORN CROP","0,0","20,20","10,10","20,20","20,20","20,20","0,0","20,20","10,10","20,20","20,20","20,20","1,0","2150,1899","24.094388559679228,-9.322608881193121","3.3174146425832305,-37.54145039912468","0","0"
"740","86","text","0","113","1153443","0-0","","","","","","","","","","","","","","","","","","","","","","","","","","","","","","","","","","","","",""
"","","plant-game","0","114","1170790","0-0","","200","120","4","WHEAT CROP","Left","200","180","8","THISTLE WEED","experimental","44","1,2,3,4,5,6,7,8","120,122.43122740979676,143.0624032559273,121.94241636943735,160,198.82457037622441,217.96063092924004,178.48745867133977","4,3,2,1,4,3,2,1","WHEAT CROP,WHEAT CROP,WHEAT CROP,WHEAT CROP,CORN CROP,CORN CROP,CORN CROP,CORN CROP","180,183.97632955237853,205.1600705358179,231.27427445607043,236.05706663946125,252.92284730118604,244.34160318418174,271.86742897917435","8,7,6,5,4,3,2,1","THISTLE WEED,THISTLE WEED,THISTLE WEED,THISTLE WEED,THISTLE WEED,THISTLE WEED,THISTLE WEED,THISTLE WEED","20,20,20,20,20,20,20,20","20,20,20,20,20,20,20,20","10,10,10,10,10,10,10,10","20,20,20,20,20,20,20,20","0,0,0,0,0,0,0,0","20,20,20,20,20,20,20,20","20,20,20,20,20,20,20,20","20,20,20,20,20,20,20,20","10,10,10,10,10,10,10,10","20,20,20,20,20,20,20,20","0,0,0,0,0,0,0,0","20,20,20,20,20,20,20,20","1,0,1,1,0,1,1,0","5588,1338,424,302,1504,568,510,726","2.4312274097967617,20.63117584613054,-21.11998688648996,15.151603458611262,38.824570376224415,19.13606055301561,-39.473172257900266,51.255921576267184","3.976329552378541,21.183740983439364,26.114203920252525,4.782792183390811,16.865780661724795,-8.581244117004294,27.525825794992613,16.103135358484675","0","0"
"1218","86","text","0","115","1172168","0-0","","","","","","","","","","","","","","","","","","","","","","","","","","","","","","","","","","","","",""
"","","plant-game","0","116","1181824","0-0","","200","120","4","WHEAT CROP","Right","200","180","1","NETTLE WEED","experimental","45","1,2,3,4","180,170,195.59278917626986,200.20917184272855","1,3,2,1","NETTLE WEED,THISTLE WEED,THISTLE WEED,THISTLE WEED","120,146.26879147542297,168.11600405748305,181.21680905487534","4,3,2,1","WHEAT CROP,WHEAT CROP,WHEAT CROP,WHEAT CROP","0,0,0,0","20,20,20,20","10,10,10,10","20,20,20,20","20,20,20,20","20,20,20,20","0,0,0,0","20,20,20,20","10,10,10,10","20,20,20,20","20,20,20,20","20,20,20,20","1,1,0,0","959,874,1223,1152","12.5250431275951,25.592789176269868,4.616382666458694,8.485663219398878","26.268791475422972,21.84721258206008,13.100804997392297,-2.241062003624871","0","0"
"496","86","text","0","117","1182536","0-0","","","","","","","","","","","","","","","","","","","","","","","","","","","","","","","","","","","","",""
"","","plant-game","0","118","1194451","0-0","","200","180","2","CORN CROP","Right","200","180","1","NETTLE WEED","experimental","46","1,2","180,190","1,1","NETTLE WEED,THISTLE WEED","180,240.0130282076008","2,1","CORN CROP,CORN CROP","0,0","20,20","10,10","20,20","20,20","20,20","0,0","20,20","10,10","20,20","20,20","20,20","1,0","1188,4384","14.856117394254463,4.727130874110151","60.013028207600804,13.854148551225103","0","0"
"473","86","text","0","119","1195044","0-0","","","","","","","","","","","","","","","","","","","","","","","","","","","","","","","","","","","","",""
"","","plant-game","0","120","1203543","0-0","","200","190","2","WHEAT CROP","Right","200","180","4","THISTLE WEED","experimental","47","1,2,3,4","180,207.1965513425549,200.01945276583695,183.14543144220914","4,3,2,1","THISTLE WEED,THISTLE WEED,THISTLE WEED,THISTLE WEED","190,223.58623828328945,180,199.89289631297947","2,1,2,1","WHEAT CROP,WHEAT CROP,CORN CROP,CORN CROP","0,0,0,0","20,20,20,20","10,10,10,10","20,20,20,20","20,20,20,20","20,20,20,20","0,0,0,0","20,20,20,20","10,10,10,10","20,20,20,20","20,20,20,20","20,20,20,20","1,0,1,1","1063,610,709,639","27.196551342554905,-7.177098576717943,-16.8740213236278,19.70758800931888","33.58623828328944,27.440171434535866,19.892896312979488,22.687627057260556","0","0"
"243","86","text","0","121","1203887","0-0","","","","","","","","","","","","","","","","","","","","","","","","","","","","","","","","","","","","",""
"","","plant-game","0","122","1208358","0-0","","200","120","2","WHEAT CROP","Right","200","120","2","NETTLE WEED","experimental","48","1,2","120,126.75464618034907","2,1","NETTLE WEED,NETTLE WEED","120,150.3004821364257","2,1","WHEAT CROP,WHEAT CROP","0,0","20,20","10,10","20,20","20,20","20,20","0,0","20,20","10,10","20,20","20,20","20,20","1,1","659,383","6.754646180349065,10.544447959960607","30.3004821364257,28.409483163334134","0","0"
"1849","86","text","0","123","1210310","0-0","","","","","","","","","","","","","","","","","","","","","","","","","","","","","","","","","","","","",""
"","","plant-game","0","124","1219033","0-0","","200","120","1","WHEAT CROP","Right","200","160","1","THISTLE WEED","experimental","49","1","160","1","THISTLE WEED","120","1","WHEAT CROP","0","20","10","20","20","20","0","20","10","20","20","20","1","5795","10.391822356421777","38.04408701601933","0","0"
"471","86","text","0","125","1219613","0-0","","","","","","","","","","","","","","","","","","","","","","","","","","","","","","","","","","","","",""
"","","plant-game","0","126","1230172","0-0","","200","190","1","CORN CROP","Left","200","180","2","NETTLE WEED","experimental","50","1,2","190,190","1,1","CORN CROP,WHEAT CROP","180,210.7123212338334","2,1","NETTLE WEED,NETTLE WEED","20,20","20,20","10,10","20,20","0,0","20,20","20,20","20,20","10,10","20,20","0,0","20,20","0,1","4610,453","0.5147520628293627,-32.840792093483245","30.71232123383339,-18.243668126490967","0","0"
"697","86","text","0","127","1230929","0-0","","","","","","","","","","","","","","","","","","","","","","","","","","","","","","","","","","","","",""
"","","plant-game","0","128","1236303","0-0","","200","190","2","WHEAT CROP","Left","200","120","2","NETTLE WEED","experimental","51","1,2","190,207.76215266235675","2,1","WHEAT CROP,WHEAT CROP","120,173.13745836194667","2,1","NETTLE WEED,NETTLE WEED","20,20","20,20","10,10","20,20","0,0","20,20","20,20","20,20","10,10","20,20","0,0","20,20","0,1","1581,817","17.76215266235677,59.02652015962249","53.13745836194666,-11.91807731104923","0","0"
"462","86","text","0","129","1236849","0-0","","","","","","","","","","","","","","","","","","","","","","","","","","","","","","","","","","","","",""
"","","plant-game","0","130","1245395","0-0","","200","180","1","WHEAT CROP","Right","200","160","4","THISTLE WEED","experimental","52","1,2,3,4","160,150.5860207779911,202.24774874114956,216.30527943882538","4,3,2,1","THISTLE WEED,THISTLE WEED,THISTLE WEED,THISTLE WEED","180,170,202.8326487198524,230.54428543205313","1,3,2,1","WHEAT CROP,CORN CROP,CORN CROP,CORN CROP","0,0,0,0","20,20,20,20","10,10,10,10","20,20,20,20","20,20,20,20","20,20,20,20","0,0,0,0","20,20,20,20","10,10,10,10","20,20,20,20","20,20,20,20","20,20,20,20","1,1,1,0","969,810,1388,669","-9.413979222008898,51.66172796315844,14.057530697675801,13.415594397467663","11.927675040977341,32.83264871985239,27.711636712200747,10.696539298656036","0","0"
"487","86","text","0","131","1245973","0-0","","","","","","","","","","","","","","","","","","","","","","","","","","","","","","","","","","","","",""
"","","plant-game","0","132","1254975","0-0","","200","190","4","CORN CROP","Left","200","180","1","NETTLE WEED","experimental","53","1,2,3,4","190,201.54143618628228,180.8481316135237,183.03543505485857","4,3,2,1","CORN CROP,CORN CROP,CORN CROP,CORN CROP","180,170,192.23669612048204,218.4375486191152","1,3,2,1","NETTLE WEED,THISTLE WEED,THISTLE WEED,THISTLE WEED","20,20,20,20","20,20,20,20","10,10,10,10","20,20,20,20","0,0,0,0","20,20,20,20","20,20,20,20","20,20,20,20","10,10,10,10","20,20,20,20","0,0,0,0","20,20,20,20","1,1,1,1","1148,876,836,1523","11.541436186282281,-20.693304572758603,2.1873034413348704,-28.48933796842779","-4.124686628408561,22.236696120482037,26.200852498633175,-21.862238979530233","0","0"
"179","86","text","0","133","1255283","0-0","","","","","","","","","","","","","","","","","","","","","","","","","","","","","","","","","","","","",""
"","","plant-game","0","134","1271715","0-0","","200","160","1","CORN CROP","Left","200","190","8","NETTLE WEED","experimental","54","1,2,3,4,5,6,7,8","160,130,127.94267120101885,144.05710019350806,164.3084667803687,180.3047769593453,181.811305374837,207.96191828204593","1,7,6,5,4,3,2,1","CORN CROP,WHEAT CROP,WHEAT CROP,WHEAT CROP,WHEAT CROP,WHEAT CROP,WHEAT CROP,WHEAT CROP","190,177.40187977253862,149.20187964931313,177.3832072633382,212.91872117123708,202.61586661920367,171.3512006272124,200.4707513589455","8,7,6,5,4,3,2,1","NETTLE WEED,NETTLE WEED,NETTLE WEED,NETTLE WEED,NETTLE WEED,NETTLE WEED,NETTLE WEED,NETTLE WEED","20,20,20,20,20,20,20,20","20,20,20,20,20,20,20,20","10,10,10,10,10,10,10,10","20,20,20,20,20,20,20,20","0,0,0,0,0,0,0,0","20,20,20,20,20,20,20,20","20,20,20,20,20,20,20,20","20,20,20,20,20,20,20,20","10,10,10,10,10,10,10,10","20,20,20,20,20,20,20,20","0,0,0,0,0,0,0,0","20,20,20,20,20,20,20,20","0,1,1,0,1,1,0,1","832,1586,1488,2720,1225,670,582,464","28.501114676412385,-2.0573287989811475,16.114428992489206,20.251366586860637,15.996310178976616,1.506528415491684,26.150612907208924,5.643798056782037","-12.598120227461365,-28.2000001232255,28.18132761402508,35.53551390789888,-10.302854552033418,-31.264665991991286,29.1195507317331,-10.112673335294316","0","0"
"712","86","text","0","135","1272517","0-0","","","","","","","","","","","","","","","","","","","","","","","","","","","","","","","","","","","","",""
"","","plant-game","0","136","1282290","0-0","","200","160","2","CORN CROP","Right","200","190","4","NETTLE WEED","experimental","55","1,2,3,4","190,201.56982413670812,241.51453203265987,244.25638879765594","4,3,2,1","NETTLE WEED,NETTLE WEED,NETTLE WEED,NETTLE WEED","160,182.82668822808222,180,169.21231981828277","2,1,2,1","CORN CROP,CORN CROP,WHEAT CROP,WHEAT CROP","0,0,0,0","20,20,20,20","10,10,10,10","20,20,20,20","20,20,20,20","20,20,20,20","0,0,0,0","20,20,20,20","10,10,10,10","20,20,20,20","20,20,20,20","20,20,20,20","0,1,0,0","1181,2376,621,352","11.569824136708117,39.94470789595174,2.741856764996059,5.480579296786816","22.82668822808222,30.35944917395664,-10.787680181717247,0.8779579311531118","0","0"
"1904","86","text","0","137","1284334","0-0","","","","","","","","","","","","","","","","","","","","","","","","","","","","","","","","","","","","",""
"","","plant-game","0","138","1289342","0-0","","200","180","2","CORN CROP","Left","200","190","2","NETTLE WEED","experimental","56","1,2","180,186.04045906063945","2,1","CORN CROP,CORN CROP","190,171.0674098937589","2,1","NETTLE WEED,NETTLE WEED","20,20","20,20","10,10","20,20","0,0","20,20","20,20","20,20","10,10","20,20","0,0","20,20","1,1","1710,545","6.040459060639462,20.811893522112705","-18.932590106241086,21.348416369557697","0","0"
"572","86","text","0","139","1289994","0-0","","","","","","","","","","","","","","","","","","","","","","","","","","","","","","","","","","","","",""
"","","plant-game","0","140","1299354","0-0","","200","190","8","WHEAT CROP","Right","200","180","8","NETTLE WEED","experimental","57","1,2,3,4,5,6,7,8","180,257.75510218536147,283.75046950231354,280.67729816290114,287.3870765177751,305.8724182991041,296.3204458785226,277.6413784643289","8,7,6,5,4,3,2,1","NETTLE WEED,NETTLE WEED,NETTLE WEED,NETTLE WEED,NETTLE WEED,NETTLE WEED,NETTLE WEED,NETTLE WEED","190,172.37016675944932,178.01987817822567,206.40288095486636,217.6343238663616,197.09503504159466,193.8357477011143,179.67412614699123","8,7,6,5,4,3,2,1","WHEAT CROP,WHEAT CROP,WHEAT CROP,WHEAT CROP,WHEAT CROP,WHEAT CROP,WHEAT CROP,WHEAT CROP","0,0,0,0,0,0,0,0","20,20,20,20,20,20,20,20","10,10,10,10,10,10,10,10","20,20,20,20,20,20,20,20","20,20,20,20,20,20,20,20","20,20,20,20,20,20,20,20","0,0,0,0,0,0,0,0","20,20,20,20,20,20,20,20","10,10,10,10,10,10,10,10","20,20,20,20,20,20,20,20","20,20,20,20,20,20,20,20","20,20,20,20,20,20,20,20","1,0,0,0,0,0,0,0","772,2367,415,354,372,341,466,299","77.75510218536147,25.995367316952045,-3.0731713394123883,6.70977835487394,18.48534178132898,-9.551972420581471,-18.67906741419372,-33.87827819237472","-17.629833240550695,5.649711418776356,28.38300277664071,11.23144291149524,-20.53928882476695,-3.259287340480383,-14.161621554123055,-7.792822390766377","0","0"
"455","86","text","0","141","1299889","0-0","","","","","","","","","","","","","","","","","","","","","","","","","","","","","","","","","","","","",""
"","","plant-game","0","142","1308595","0-0","","200","120","8","CORN CROP","Right","200","180","8","THISTLE WEED","experimental","58","1,2,3,4,5,6,7,8","180,236.06879491876265,213.31578186682805,194.5739039501186,230.83801731434755,208.97588493301942,211.6966066241748,249.6912447154868","8,7,6,5,4,3,2,1","THISTLE WEED,THISTLE WEED,THISTLE WEED,THISTLE WEED,THISTLE WEED,THISTLE WEED,THISTLE WEED,THISTLE WEED","120,137.8391338867574,134.54848048865446,166.51847176596218,176.47022162500411,197.32843848181335,173.4338345037744,208.6554135615797","8,7,6,5,4,3,2,1","CORN CROP,CORN CROP,CORN CROP,CORN CROP,CORN CROP,CORN CROP,CORN CROP,CORN CROP","0,0,0,0,0,0,0,0","20,20,20,20,20,20,20,20","10,10,10,10,10,10,10,10","20,20,20,20,20,20,20,20","20,20,20,20,20,20,20,20","20,20,20,20,20,20,20,20","0,0,0,0,0,0,0,0","20,20,20,20,20,20,20,20","10,10,10,10,10,10,10,10","20,20,20,20,20,20,20,20","20,20,20,20,20,20,20,20","20,20,20,20,20,20,20,20","1,0,0,1,0,0,1,0","945,1172,395,654,346,173,434,566","56.068794918762656,-22.753013051934605,-18.74187791670945,36.26411336422895,-21.86213238132813,2.7207216911553793,37.994638091312,-10.122494518293328","17.839133886757384,-3.2906533981029416,31.96999127730772,9.951749859041952,20.85821685680922,-23.894603978038962,35.221579057805315,-7.443832666283386","0","0"
"954","86","text","0","143","1309613","0-0","","","","","","","","","","","","","","","","","","","","","","","","","","","","","","","","","","","","",""
"","","plant-game","0","144","1317359","0-0","","200","160","2","CORN CROP","Right","200","120","4","NETTLE WEED","experimental","59","1,2,3,4","120,136.04269053929113,167.25261464202302,188.7954187096345","4,3,2,1","NETTLE WEED,NETTLE WEED,NETTLE WEED,NETTLE WEED","160,156.10627477647853,180,193.26234725275776","2,1,2,1","CORN CROP,CORN CROP,WHEAT CROP,WHEAT CROP","0,0,0,0","20,20,20,20","10,10,10,10","20,20,20,20","20,20,20,20","20,20,20,20","0,0,0,0","20,20,20,20","10,10,10,10","20,20,20,20","20,20,20,20","20,20,20,20","1,1,1,0","1182,1006,686,509","16.042690539291126,31.209924102731897,21.542804067611485,0.7687109485353104","-3.8937252235214572,8.731685978587226,13.262347252757767,-36.96943174071558","0","0"
"619","86","text","0","145","1318108","0-0","","","","","","","","","","","","","","","","","","","","","","","","","","","","","","","","","","","","",""
"","","plant-game","0","146","1323377","0-0","","200","120","4","WHEAT CROP","Right","200","180","4","NETTLE WEED","experimental","60","1,2,3,4","180,174.24534559367066,176.5150979965623,215.68948238724386","4,3,2,1","NETTLE WEED,NETTLE WEED,NETTLE WEED,NETTLE WEED","120,159.90771280836117,178.4325383846801,163.03955576676674","4,3,2,1","WHEAT CROP,WHEAT CROP,WHEAT CROP,WHEAT CROP","0,0,0,0","20,20,20,20","10,10,10,10","20,20,20,20","20,20,20,20","20,20,20,20","0,0,0,0","20,20,20,20","10,10,10,10","20,20,20,20","20,20,20,20","20,20,20,20","1,1,1,1","438,416,500,651","-5.754654406329326,2.269752402891651,39.17438439068155,33.19438899385547","39.90771280836118,18.524825576318925,-15.392982617913354,15.514576760365836","0","0"
"92","86","text","0","147","1323569","0-0","","","","","","","","","","","","","","","","","","","","","","","","","","","","","","","","","","","","",""
"","","plant-game","0","148","1327751","0-0","","200","160","2","CORN CROP","Right","200","120","2","NETTLE WEED","experimental","61","1,2","120,159.41458526201558","2,1","NETTLE WEED,NETTLE WEED","160,132.87369390535372","2,1","CORN CROP,CORN CROP","0,0","20,20","10,10","20,20","20,20","20,20","0,0","20,20","10,10","20,20","20,20","20,20","1,1","517,523","39.41458526201558,32.58406376561724","-27.126306094646267,33.58775028491418","0","0"
"524","86","text","0","149","1328376","0-0","","","","","","","","","","","","","","","","","","","","","","","","","","","","","","","","","","","","",""
"","","plant-game","0","150","1337573","0-0","","200","180","8","WHEAT CROP","Left","200","180","2","NETTLE WEED","experimental","62","1,2,3,4,5,6,7,8","180,169.4295399777944,172.3534673897527,172.67031089226435,167.52396076533938,188.47311763099938,203.4679647157131,208.77341200403302","8,7,6,5,4,3,2,1","WHEAT CROP,WHEAT CROP,WHEAT CROP,WHEAT CROP,WHEAT CROP,WHEAT CROP,WHEAT CROP,WHEAT CROP","180,178.577694534353,140,119.3910889928055,107.93495080577358,106.50614631510952,137.97667114880124,128.15571704648275","2,1,6,5,4,3,2,1","NETTLE WEED,NETTLE WEED,THISTLE WEED,THISTLE WEED,THISTLE WEED,THISTLE WEED,THISTLE WEED,THISTLE WEED","20,20,20,20,20,20,20,20","20,20,20,20,20,20,20,20","10,10,10,10,10,10,10,10","20,20,20,20,20,20,20,20","0,0,0,0,0,0,0,0","20,20,20,20,20,20,20,20","20,20,20,20,20,20,20,20","20,20,20,20,20,20,20,20","10,10,10,10,10,10,10,10","20,20,20,20,20,20,20,20","0,0,0,0,0,0,0,0","20,20,20,20,20,20,20,20","1,1,1,1,1,0,0,0","391,420,699,430,296,1096,532,473","-10.570460022205584,2.923927411958288,0.3168435025116574,-5.14635012692498,20.94915686565999,14.994847084713722,5.305447288319936,22.420170745308294","-1.4223054656470222,-0.14255399245854275,-20.60891100719449,-11.456138187031925,-1.428804490664065,31.47052483369174,-9.820954102318503,66.81440191279961","0","0"
"512","86","text","0","151","1338213","0-0","","","","","","","","","","","","","","","","","","","","","","","","","","","","","","","","","","","","",""
"","","plant-game","0","152","1346317","0-0","","200","160","4","WHEAT CROP","Left","200","190","2","THISTLE WEED","experimental","63","1,2,3,4","160,135.8946262497835,135.16478831402645,126.12316351611933","4,3,2,1","WHEAT CROP,WHEAT CROP,WHEAT CROP,WHEAT CROP","190,189.89370127035073,180,155.96758694472098","2,1,2,1","THISTLE WEED,THISTLE WEED,NETTLE WEED,NETTLE WEED","20,20,20,20","20,20,20,20","10,10,10,10","20,20,20,20","0,0,0,0","20,20,20,20","20,20,20,20","20,20,20,20","10,10,10,10","20,20,20,20","0,0,0,0","20,20,20,20","1,1,1,1","1517,316,500,351","-24.105373750216494,-0.7298379357570445,-9.041624797907117,-23.431436498495934","-0.10629872964926398,13.640820307782455,-24.032413055279026,-37.4416540507612","0","0"
"448","86","text","0","153","1346875","0-0","","","","","","","","","","","","","","","","","","","","","","","","","","","","","","","","","","","","",""
"","","plant-game","0","154","1356908","0-0","","200","160","1","WHEAT CROP","Left","200","120","8","NETTLE WEED","experimental","64","1,2,3,4,5,6,7,8","160,130,177.74765158498343,180.85236266517597,195.35958511813683,228.15351462421938,223.89390356562384,275.13168863054636","1,7,6,5,4,3,2,1","WHEAT CROP,CORN CROP,CORN CROP,CORN CROP,CORN CROP,CORN CROP,CORN CROP,CORN CROP","120,106.80888578112975,92.19884846571495,64.9391686396775,92.91168085802882,128.8048371352208,121.84914058181704,155.68788260092637","8,7,6,5,4,3,2,1","NETTLE WEED,NETTLE WEED,NETTLE WEED,NETTLE WEED,NETTLE WEED,NETTLE WEED,NETTLE WEED,NETTLE WEED","20,20,20,20,20,20,20,20","20,20,20,20,20,20,20,20","10,10,10,10,10,10,10,10","20,20,20,20,20,20,20,20","0,0,0,0,0,0,0,0","20,20,20,20,20,20,20,20","20,20,20,20,20,20,20,20","20,20,20,20,20,20,20,20","10,10,10,10,10,10,10,10","20,20,20,20,20,20,20,20","0,0,0,0,0,0,0,0","20,20,20,20,20,20,20,20","1,0,0,0,0,1,0,1","1070,631,511,370,438,722,407,419","-8.670420722282735,47.747651584983416,3.104711080192555,14.50722245296086,32.79392950608256,-4.259611058595527,51.23778506492255,-18.786919553878892","-13.19111421887025,-14.610037315414807,-27.25967982603744,27.972512218351312,35.89315627719198,-6.955696553403747,33.838742019109326,10.210155388356032","0","0"
"112","86","text","0","155","1357140","0-0","","","","","","","","","","","","","","","","","","","","","","","","","","","","","","","","","","","","",""
"","","plant-game","0","156","1363811","0-0","","200","180","4","CORN CROP","Left","200","120","4","THISTLE WEED","experimental","65","1,2,3,4","180,207.33387680457707,207.86749365797345,159.1467426413084","4,3,2,1","CORN CROP,CORN CROP,CORN CROP,CORN CROP","120,169.00413522521177,169.55391022070353,170.78138004553387","4,3,2,1","THISTLE WEED,THISTLE WEED,THISTLE WEED,THISTLE WEED","20,20,20,20","20,20,20,20","10,10,10,10","20,20,20,20","0,0,0,0","20,20,20,20","20,20,20,20","20,20,20,20","10,10,10,10","20,20,20,20","0,0,0,0","20,20,20,20","0,1,1,0","628,731,1279,975","27.333876804577066,0.5336168533963747,-48.72075101666505,32.337509896610584","49.004135225211755,0.5497749954917703,1.2274698248303475,26.574479770720437","0","0"
"553","86","text","0","157","1364444","0-0","","","","","","","","","","","","","","","","","","","","","","","","","","","","","","","","","","","","",""
"","","plant-game","0","158","1370251","0-0","","200","180","2","CORN CROP","Right","200","190","1","THISTLE WEED","experimental","66","1,2","190,190","1,1","THISTLE WEED,NETTLE WEED","180,229.205438979423","2,1","CORN CROP,CORN CROP","0,0","20,20","10,10","20,20","20,20","20,20","0,0","20,20","10,10","20,20","20,20","20,20","0,0","483,1609","-11.330476166468022,18.894071377067114","49.20543897942301,18.237334567032903","0","0"
"104","86","text","0","159","1370485","0-0","","","","","","","","","","","","","","","","","","","","","","","","","","","","","","","","","","","","",""
"","","plant-game","0","160","1379592","0-0","","200","190","8","CORN CROP","Left","200","190","4","NETTLE WEED","experimental","67","1,2,3,4,5,6,7,8","190,238.39340428262665,250.916081129808,276.7090887687112,254.85122159560572,269.32021887311936,313.25711275179594,328.3505159004696","8,7,6,5,4,3,2,1","CORN CROP,CORN CROP,CORN CROP,CORN CROP,CORN CROP,CORN CROP,CORN CROP,CORN CROP","190,232.68784482429507,261.5045468598809,251.8207788548666,160,189.43652285756647,204.64262874919254,189.97506151786524","4,3,2,1,4,3,2,1","NETTLE WEED,NETTLE WEED,NETTLE WEED,NETTLE WEED,THISTLE WEED,THISTLE WEED,THISTLE WEED,THISTLE WEED","20,20,20,20,20,20,20,20","20,20,20,20,20,20,20,20","10,10,10,10,10,10,10,10","20,20,20,20,20,20,20,20","0,0,0,0,0,0,0,0","20,20,20,20,20,20,20,20","20,20,20,20,20,20,20,20","20,20,20,20,20,20,20,20","10,10,10,10,10,10,10,10","20,20,20,20,20,20,20,20","0,0,0,0,0,0,0,0","20,20,20,20,20,20,20,20","0,0,1,1,1,0,1,1","474,1435,567,283,737,404,534,175","48.39340428262665,12.522676847181334,25.793007638903166,-21.85786717310546,14.468997277513642,43.93689387867656,15.093403148673637,13.105349886857773","42.68784482429507,28.816702035585834,-9.683768005014317,34.75309453031227,29.436522857566466,15.206105891626066,-14.667567231327288,15.310385991074124","0","0"
"143","86","text","0","161","1379835","0-0","","","","","","","","","","","","","","","","","","","","","","","","","","","","","","","","","","","","",""
"","","plant-game","0","162","1385806","0-0","","200","180","1","CORN CROP","Right","200","180","2","NETTLE WEED","experimental","68","1,2","180,186.4694525512022","2,1","NETTLE WEED,NETTLE WEED","180,190","1,1","CORN CROP,WHEAT CROP","0,0","20,20","10,10","20,20","20,20","20,20","0,0","20,20","10,10","20,20","20,20","20,20","1,1","1080,636","6.469452551202199,2.618139190699516","12.104149082407206,7.786473002598072","0","0"
"498","86","text","0","163","1386404","0-0","","","","","","","","","","","","","","","","","","","","","","","","","","","","","","","","","","","","",""
"","","plant-game","0","164","1396686","0-0","","200","190","8","WHEAT CROP","Right","200","120","1","NETTLE WEED","experimental","69","1,2,3,4,5,6,7,8","120,130,133.38071561989364,138.27711877516288,146.63596204434953,134.2493097467666,129.37451789591128,106.21368739693574","1,7,6,5,4,3,2,1","NETTLE WEED,THISTLE WEED,THISTLE WEED,THISTLE WEED,THISTLE WEED,THISTLE WEED,THISTLE WEED,THISTLE WEED","190,212.5271576835899,195.0588270577953,238.00544760974933,261.07615234961577,272.8663729202436,285.5606988631364,258.16719541056375","8,7,6,5,4,3,2,1","WHEAT CROP,WHEAT CROP,WHEAT CROP,WHEAT CROP,WHEAT CROP,WHEAT CROP,WHEAT CROP,WHEAT CROP","0,0,0,0,0,0,0,0","20,20,20,20,20,20,20,20","10,10,10,10,10,10,10,10","20,20,20,20,20,20,20,20","20,20,20,20,20,20,20,20","20,20,20,20,20,20,20,20","0,0,0,0,0,0,0,0","20,20,20,20,20,20,20,20","10,10,10,10,10,10,10,10","20,20,20,20,20,20,20,20","20,20,20,20,20,20,20,20","20,20,20,20,20,20,20,20","1,0,1,0,1,0,0,1","1379,671,419,443,312,389,371,700","44.04471375426894,3.380715619893648,4.896403155269237,8.358843269186638,-12.38665229758292,-4.874791850855339,-23.16083049897555,7.333175241422261","22.52715768358992,-17.468330625794618,42.946620551954034,23.07070473986643,11.790220570627826,12.694325942892796,-27.393503452572673,21.670618342685405","0","0"
"524","86","text","0","165","1397260","0-0","","","","","","","","","","","","","","","","","","","","","","","","","","","","","","","","","","","","",""
"","","plant-game","0","166","1406401","0-0","","200","160","2","WHEAT CROP","Right","200","190","8","THISTLE WEED","experimental","70","1,2,3,4,5,6,7,8","190,197.32709148706672,220.62228277589224,259.73697103074096,263.5689405835575,267.7158925030254,274.12176187334313,266.56137860347417","8,7,6,5,4,3,2,1","THISTLE WEED,THISTLE WEED,THISTLE WEED,THISTLE WEED,THISTLE WEED,THISTLE WEED,THISTLE WEED,THISTLE WEED","160,148.61930229451696,140,165.8629472574705,221.8426087471728,256.02128715061605,272.9325406295594,312.9806994174386","2,1,6,5,4,3,2,1","WHEAT CROP,WHEAT CROP,CORN CROP,CORN CROP,CORN CROP,CORN CROP,CORN CROP,CORN CROP","0,0,0,0,0,0,0,0","20,20,20,20,20,20,20,20","10,10,10,10,10,10,10,10","20,20,20,20,20,20,20,20","20,20,20,20,20,20,20,20","20,20,20,20,20,20,20,20","0,0,0,0,0,0,0,0","20,20,20,20,20,20,20,20","10,10,10,10,10,10,10,10","20,20,20,20,20,20,20,20","20,20,20,20,20,20,20,20","20,20,20,20,20,20,20,20","0,1,1,1,1,0,0,0","2058,831,6,516,79,336,146,156","7.327091487066725,23.295191288825507,39.11468825484874,3.831969552816542,4.146951919467854,6.405869370317778,-7.560383269868945,4.13233354237503","-11.380697705483044,42.56031725116108,25.862947257470502,55.9796614897023,34.17867840344326,16.911253478943348,40.0481587878792,-1.6916602933629394","0","0"
"129","86","text","0","167","1406630","0-0","","","","","","","","","","","","","","","","","","","","","","","","","","","","","","","","","","","","",""
"","","plant-game","0","168","1412067","0-0","","200","160","1","CORN CROP","Left","200","190","1","THISTLE WEED","experimental","71","1","160","1","CORN CROP","190","1","THISTLE WEED","20","20","10","20","0","20","20","20","10","20","0","20","1","932","-1.9307525722774932","-17.304112625300036","0","0"
"155","86","text","0","169","1412332","0-0","","","","","","","","","","","","","","","","","","","","","","","","","","","","","","","","","","","","",""
"","","plant-game","0","170","1415807","0-0","","200","120","1","CORN CROP","Right","200","190","1","THISTLE WEED","experimental","72","1","190","1","THISTLE WEED","120","1","CORN CROP","0","20","10","20","20","20","0","20","10","20","20","20","1","407","13.572066442151824","39.31885192040587","0","0"
"1608","86","text","0","171","1417516","0-0","","","","","","","","","","","","","","","","","","","","","","","","","","","","","","","","","","","","",""
"","","plant-game","0","172","1426079","0-0","","200","120","8","CORN CROP","Right","200","190","8","NETTLE WEED","experimental","73","1,2,3,4,5,6,7,8","190,207.81244658304513,221.41786956189637,193.72390214475166,199.2533968566887,221.4847819296696,235.71354186313837,252.45924570822285","8,7,6,5,4,3,2,1","NETTLE WEED,NETTLE WEED,NETTLE WEED,NETTLE WEED,NETTLE WEED,NETTLE WEED,NETTLE WEED,NETTLE WEED","120,135.9112823680261,133.90865646560115,156.40094134959284,186.7159944270606,184.04093367486732,183.06410105334942,187.51321224003806","8,7,6,5,4,3,2,1","CORN CROP,CORN CROP,CORN CROP,CORN CROP,CORN CROP,CORN CROP,CORN CROP,CORN CROP","0,0,0,0,0,0,0,0","20,20,20,20,20,20,20,20","10,10,10,10,10,10,10,10","20,20,20,20,20,20,20,20","20,20,20,20,20,20,20,20","20,20,20,20,20,20,20,20","0,0,0,0,0,0,0,0","20,20,20,20,20,20,20,20","10,10,10,10,10,10,10,10","20,20,20,20,20,20,20,20","20,20,20,20,20,20,20,20","20,20,20,20,20,20,20,20","1,0,0,0,1,0,0,0","1935,1244,532,402,422,421,145,93","17.81244658304512,13.60542297885123,-27.693967417144695,5.529494711937058,22.231385072980885,14.228759933468783,16.745703845084474,16.61927870433255","15.911282368026086,-2.0026259024249295,22.49228488399168,30.315053077467766,-2.6750607521932643,-0.9768326215178981,4.4491111866886435,-3.0843406371089346","0","0"
"470","86","text","0","173","1426629","0-0","","","","","","","","","","","","","","","","","","","","","","","","","","","","","","","","","","","","",""
"","","plant-game","0","174","1432867","0-0","","200","160","2","CORN CROP","Right","200","190","2","NETTLE WEED","experimental","74","1,2","190,229.22739981625512","2,1","NETTLE WEED,NETTLE WEED","160,197.31087112724168","2,1","CORN CROP,CORN CROP","0,0","20,20","10,10","20,20","20,20","20,20","0,0","20,20","10,10","20,20","20,20","20,20","1,0","1466,1004","39.2273998162551,9.373033297351034","37.31087112724169,-1.3891451033830533","0","0"
"522","86","text","0","175","1433520","0-0","","","","","","","","","","","","","","","","","","","","","","","","","","","","","","","","","","","","",""
"","","plant-game","0","176","1438368","0-0","","200","180","2","CORN CROP","Right","200","160","2","THISTLE WEED","experimental","75","1,2","160,186.81649654305716","2,1","THISTLE WEED,THISTLE WEED","180,183.92475859285446","2,1","CORN CROP,CORN CROP","0,0","20,20","10,10","20,20","20,20","20,20","0,0","20,20","10,10","20,20","20,20","20,20","1,1","610,422","26.81649654305714,2.2392707446137052","3.9247585928544595,35.400450472772356","0","0"
"592","86","text","0","177","1439049","0-0","","","","","","","","","","","","","","","","","","","","","","","","","","","","","","","","","","","","",""
"","","plant-game","0","178","1447321","0-0","","200","160","2","WHEAT CROP","Right","200","160","4","THISTLE WEED","experimental","76","1,2,3,4","160,173.97655010736344,187.8941067829059,226.2117984765915","4,3,2,1","THISTLE WEED,THISTLE WEED,THISTLE WEED,THISTLE WEED","160,146.02826673275635,180,187.32509437529637","2,1,2,1","WHEAT CROP,WHEAT CROP,CORN CROP,CORN CROP","0,0,0,0","20,20,20,20","10,10,10,10","20,20,20,20","20,20,20,20","20,20,20,20","0,0,0,0","20,20,20,20","10,10,10,10","20,20,20,20","20,20,20,20","20,20,20,20","1,0,1,1","752,609,1019,569","13.976550107363447,13.917556675542478,38.31769169368559,5.2677756196006165","-13.97173326724365,-35.09202521539527,7.325094375296361,27.406754364353425","0","0"
"253","86","text","0","179","1447674","0-0","","","","","","","","","","","","","","","","","","","","","","","","","","","","","","","","","","","","",""
"","","plant-game","0","180","1456975","0-0","","200","160","4","WHEAT CROP","Right","200","120","8","NETTLE WEED","experimental","77","1,2,3,4,5,6,7,8","120,106.91595852025347,102.51915580830747,132.64815150311267,145.4144845493538,175.13812947413828,154.25999118883738,166.95214662226198","8,7,6,5,4,3,2,1","NETTLE WEED,NETTLE WEED,NETTLE WEED,NETTLE WEED,NETTLE WEED,NETTLE WEED,NETTLE WEED,NETTLE WEED","160,190.9493649130026,193.41110152292322,188.54982286472827,160,164.09719856577493,164.9683859849014,222.2857441772161","4,3,2,1,4,3,2,1","WHEAT CROP,WHEAT CROP,WHEAT CROP,WHEAT CROP,CORN CROP,CORN CROP,CORN CROP,CORN CROP","0,0,0,0,0,0,0,0","20,20,20,20,20,20,20,20","10,10,10,10,10,10,10,10","20,20,20,20,20,20,20,20","20,20,20,20,20,20,20,20","20,20,20,20,20,20,20,20","0,0,0,0,0,0,0,0","20,20,20,20,20,20,20,20","10,10,10,10,10,10,10,10","20,20,20,20,20,20,20,20","20,20,20,20,20,20,20,20","20,20,20,20,20,20,20,20","1,1,1,1,0,0,1,1","940,430,413,403,868,384,404,227","-13.084041479746531,-4.396802711945995,30.128995694805194,12.766333046241122,29.72364492478448,-20.878138285300896,12.692155433424592,-11.708645884724792","30.949364913002587,2.4617366099206315,-4.861278658194955,-17.498408256878093,4.097198565774928,0.8711874191264632,57.31735819231469,30.96161662835215","0","0"
"258","86","text","0","181","1457333","0-0","","","","","","","","","","","","","","","","","","","","","","","","","","","","","","","","","","","","",""
"","","plant-game","0","182","1464565","0-0","","200","180","4","WHEAT CROP","Right","200","120","1","THISTLE WEED","experimental","78","1,2,3,4","120,170,192.63616275526402,185.87811209697168","1,3,2,1","THISTLE WEED,NETTLE WEED,NETTLE WEED,NETTLE WEED","180,202.65412691861746,211.99282644451003,205.23929827733932","4,3,2,1","WHEAT CROP,WHEAT CROP,WHEAT CROP,WHEAT CROP","0,0,0,0","20,20,20,20","10,10,10,10","20,20,20,20","20,20,20,20","20,20,20,20","0,0,0,0","20,20,20,20","10,10,10,10","20,20,20,20","20,20,20,20","20,20,20,20","1,1,0,0","559,1431,789,435","13.43948605845516,22.636162755264017,-6.758050658292359,-11.592122996920615","22.654126918617457,9.338699525892572,-6.753528167170706,4.752808945219104","0","0"
"179","86","text","0","183","1464854","0-0","","","","","","","","","","","","","","","","","","","","","","","","","","","","","","","","","","","","",""
"","","plant-game","0","184","1471832","0-0","","200","190","4","WHEAT CROP","Right","200","190","1","NETTLE WEED","experimental","79","1,2,3,4","190,170,185.83158967084546,195.57958102722097","1,3,2,1","NETTLE WEED,THISTLE WEED,THISTLE WEED,THISTLE WEED","190,193.61443080248623,179.17086122197807,225.9748302105183","4,3,2,1","WHEAT CROP,WHEAT CROP,WHEAT CROP,WHEAT CROP","0,0,0,0","20,20,20,20","10,10,10,10","20,20,20,20","20,20,20,20","20,20,20,20","0,0,0,0","20,20,20,20","10,10,10,10","20,20,20,20","20,20,20,20","20,20,20,20","1,0,1,0","444,638,608,1047","19.043150568140877,15.831589670845457,9.74799135637552,-38.81176868301386","3.614430802486222,-14.443569580508157,46.80396898854021,-6.440372072094137","0","0"
"175","86","text","0","185","1472119","0-0","","","","","","","","","","","","","","","","","","","","","","","","","","","","","","","","","","","","",""
"","","plant-game","0","186","1478976","0-0","","200","160","2","CORN CROP","Left","200","180","1","THISTLE WEED","experimental","80","1,2","160,159.00905510602968","2,1","CORN CROP,CORN CROP","180,190","1,1","THISTLE WEED,NETTLE WEED","20,20","20,20","10,10","20,20","0,0","20,20","20,20","20,20","10,10","20,20","0,0","20,20","0,1","1005,1670","-0.9909448939703296,-4.750854582661233","-6.504813994719804,-11.329721310741368","0","0"
"215","86","text","0","187","1479311","0-0","","","","","","","","","","","","","","","","","","","","","","","","","","","","","","","","","","","","",""
"","","plant-game","0","188","1482874","0-0","","200","180","2","WHEAT CROP","Right","200","120","2","THISTLE WEED","experimental","81","1,2","120,130.71147785547663","2,1","THISTLE WEED,THISTLE WEED","180,175.68226747694192","2,1","WHEAT CROP,WHEAT CROP","0,0","20,20","10,10","20,20","20,20","20,20","0,0","20,20","10,10","20,20","20,20","20,20","1,1","654,266","10.711477855476621,-9.546539204936412","-4.31773252305808,-3.317505187080016","0","0"
"194","86","text","0","189","1483178","0-0","","","","","","","","","","","","","","","","","","","","","","","","","","","","","","","","","","","","",""
"","","plant-game","0","190","1490774","0-0","","200","160","8","WHEAT CROP","Left","200","160","8","NETTLE WEED","experimental","82","1,2,3,4,5,6,7,8","160,164.22554754053633,172.34148653583128,164.92342955230947,131.61357991592868,147.90415452071238,153.36419885769115,166.44714891169238","8,7,6,5,4,3,2,1","WHEAT CROP,WHEAT CROP,WHEAT CROP,WHEAT CROP,WHEAT CROP,WHEAT CROP,WHEAT CROP,WHEAT CROP","160,170.88591118284432,204.91219936497043,208.765254978562,214.13016670392625,180.50388871049375,192.94857397579892,187.21785946546234","8,7,6,5,4,3,2,1","NETTLE WEED,NETTLE WEED,NETTLE WEED,NETTLE WEED,NETTLE WEED,NETTLE WEED,NETTLE WEED,NETTLE WEED","20,20,20,20,20,20,20,20","20,20,20,20,20,20,20,20","10,10,10,10,10,10,10,10","20,20,20,20,20,20,20,20","0,0,0,0,0,0,0,0","20,20,20,20,20,20,20,20","20,20,20,20,20,20,20,20","20,20,20,20,20,20,20,20","10,10,10,10,10,10,10,10","20,20,20,20,20,20,20,20","0,0,0,0,0,0,0,0","20,20,20,20,20,20,20,20","1,0,1,1,1,1,1,0","1860,1126,599,251,109,111,107,465","4.225547540536317,8.11593899529494,-7.418056983521817,-33.30984963638078,16.29057460478371,5.46004433697878,13.082950054001222,-0.7054092128464298","10.885911182844328,34.02628818212612,3.8530556135915783,5.364911725364242,-33.6262779934325,12.444685265305166,-5.730714510336591,5.5664418031248974","0","0"
"110","86","text","0","191","1490967","0-0","","","","","","","","","","","","","","","","","","","","","","","","","","","","","","","","","","","","",""
"","","plant-game","0","192","1502801","0-0","","200","190","4","WHEAT CROP","Right","200","180","8","NETTLE WEED","experimental","83","1,2,3,4,5,6,7,8","180,192.2535254616232,151.81081645132474,126.13838077280798,85.00436514661234,117.74448346014879,141.67323186606785,192.3126626446043","8,7,6,5,4,3,2,1","NETTLE WEED,NETTLE WEED,NETTLE WEED,NETTLE WEED,NETTLE WEED,NETTLE WEED,NETTLE WEED,NETTLE WEED","190,201.11280033054052,203.4462629899661,232.41008129583528,160,167.24055955768108,216.13180959147584,248.2242534743455","4,3,2,1,4,3,2,1","WHEAT CROP,WHEAT CROP,WHEAT CROP,WHEAT CROP,CORN CROP,CORN CROP,CORN CROP,CORN CROP","0,0,0,0,0,0,0,0","20,20,20,20,20,20,20,20","10,10,10,10,10,10,10,10","20,20,20,20,20,20,20,20","20,20,20,20,20,20,20,20","20,20,20,20,20,20,20,20","0,0,0,0,0,0,0,0","20,20,20,20,20,20,20,20","10,10,10,10,10,10,10,10","20,20,20,20,20,20,20,20","20,20,20,20,20,20,20,20","20,20,20,20,20,20,20,20","1,0,1,0,1,0,1,0","2320,904,481,454,1148,526,479,246","12.253525461623198,-40.44270901029846,-25.672435678516763,-41.134015626195634,32.740118313536435,23.928748405919062,50.639430778536436,-47.796651538616466","11.11280033054051,2.3334626594255883,28.963818305869175,34.813894858081326,7.24055955768109,48.891250033794755,32.09244388286964,-13.356974426566408","0","0"
"205","86","text","0","193","1503116","0-0","","","","","","","","","","","","","","","","","","","","","","","","","","","","","","","","","","","","",""
