"rt","key_press","trial_type","trial_index","trial_index_global","time_elapsed","internal_chunk_id","responses","experimental_goal_height","experimental_start_height","experimental_weeks_total","experimental_crop_type","experimental_crop_side","fixed_goal_height","fixed_start_height","fixed_weeks_total","fixed_crop_type","trial_kind","trial_number","stage","left_current_height","left_weeks_remaining","left_crop_type","right_current_height","right_weeks_remaining","right_crop_type","mean_left_growth_given_left","sd_left_growth_given_left","mean_left_growth_given_middle","sd_left_growth_given_middle","mean_left_growth_given_right","sd_left_growth_given_right","mean_right_growth_given_left","sd_right_growth_given_left","mean_right_growth_given_middle","sd_right_growth_given_middle","mean_right_growth_given_right","sd_right_growth_given_right","response","response_time","left_growth","right_growth","other_key_pressed","mouse_clicked"
"3679797","77","text","0","0","3679878","0-0","","","","","","","","","","","","","","","","","","","","","","","","","","","","","","","","","","","","",""
"7152","","survey-text","0","1","3688038","0-0","{""Q0"":""20""}","","","","","","","","","","","","","","","","","","","","","","","","","","","","","","","","","","","",""
"3279","86","text","0","2","3358","0-0","","","","","","","","","","","","","","","","","","","","","","","","","","","","","","","","","","","","",""
"","","plant-game","0","3","36414","0-0","","200","120","8","CORN CROP","Right","200","120","8","THISTLE WEED","practice","1","1,2,3,4,5,6,7,8","120,149.58350774777097,148.217130968661,153.73019003743113,130.9340069182552,153.29456778296637,159.38106257253273,180.6311198057378","8,7,6,5,4,3,2,1","THISTLE WEED,THISTLE WEED,THISTLE WEED,THISTLE WEED,THISTLE WEED,THISTLE WEED,THISTLE WEED,THISTLE WEED","120,172.67185055321363,167.72174786043718,146.9455671374461,163.35504447978914,183.26218136983016,184.04523957891433,191.9793231345003","8,7,6,5,4,3,2,1","CORN CROP,CORN CROP,CORN CROP,CORN CROP,CORN CROP,CORN CROP,CORN CROP,CORN CROP","0,0,0,0,0,0,0,0","20,20,20,20,20,20,20,20","10,10,10,10,10,10,10,10","20,20,20,20,20,20,20,20","20,20,20,20,20,20,20,20","20,20,20,20,20,20,20,20","0,0,0,0,0,0,0,0","20,20,20,20,20,20,20,20","10,10,10,10,10,10,10,10","20,20,20,20,20,20,20,20","20,20,20,20,20,20,20,20","20,20,20,20,20,20,20,20","1,0,0,1,1,0,1,1","1515,5013,1013,1029,765,1437,670,1422","29.583507747770973,-1.366376779109963,5.513059068770144,-22.796183119175943,22.360560864711164,6.086494789566367,21.250057233205055,-1.6514424394415173","52.671850553213645,-4.95010269277644,-20.776180722991082,16.40947734234306,19.907136890041027,0.7830582090841832,7.934083555585985,-6.413195686336763","0","0"
"1240","86","text","0","4","37774","0-0","","","","","","","","","","","","","","","","","","","","","","","","","","","","","","","","","","","","",""
"","","plant-game","0","5","58018","0-0","","200","160","4","WHEAT CROP","Left","200","160","4","THISTLE WEED","practice","2","1,2,3,4","160,203.97858053884124,208.65260461865932,219.0998708021347","4,3,2,1","WHEAT CROP,WHEAT CROP,WHEAT CROP,WHEAT CROP","160,186.84135542161877,172.14927219016974,215.2088489512216","4,3,2,1","THISTLE WEED,THISTLE WEED,THISTLE WEED,THISTLE WEED","20,20,20,20","20,20,20,20","10,10,10,10","20,20,20,20","0,0,0,0","20,20,20,20","20,20,20,20","20,20,20,20","10,10,10,10","20,20,20,20","0,0,0,0","20,20,20,20","0,1,1,1","2533,1926,805,1257","43.97858053884124,4.67402407981807,10.447266183475353,-29.248417679856257","26.84135542161876,-14.692083231449038,43.05957676105186,27.704893663860375","0","0"
"888","86","text","0","6","59002","0-0","","","","","","","","","","","","","","","","","","","","","","","","","","","","","","","","","","","","",""
"","","plant-game","0","7","73898","0-0","","200","180","2","WHEAT CROP","Left","200","180","2","NETTLE WEED","practice","3","1,2","180,187.5140267185611","2,1","WHEAT CROP,WHEAT CROP","180,190.99622679847232","2,1","NETTLE WEED,NETTLE WEED","20,20","20,20","10,10","20,20","0,0","20,20","20,20","20,20","10,10","20,20","0,0","20,20","1,1","1773,1455","7.514026718561109,1.2995907467489907","10.996226798472335,20.511003283743918","0","0"
"712","86","text","0","8","74730","0-0","","","","","","","","","","","","","","","","","","","","","","","","","","","","","","","","","","","","",""
"","","plant-game","0","9","84057","0-0","","200","190","1","WHEAT CROP","Left","200","190","1","THISTLE WEED","practice","4","1","190","1","WHEAT CROP","190","1","THISTLE WEED","20","20","10","20","0","20","20","20","10","20","0","20","1","454","7.939925655421886","-4.090616932845499","0","0"
"704","86","text","0","10","84865","0-0","","","","","","","","","","","","","","","","","","","","","","","","","","","","","","","","","","","","",""
"","","plant-game","0","11","103457","0-0","","200","120","8","CORN CROP","Right","200","160","8","THISTLE WEED","practice","5","1,2,3,4,5,6,7,8","160,188.45357222399258,186.35132105531963,187.2663304050128,205.57079849258588,180.3949359369839,199.0906807826106,182.28922226876233","8,7,6,5,4,3,2,1","THISTLE WEED,THISTLE WEED,THISTLE WEED,THISTLE WEED,THISTLE WEED,THISTLE WEED,THISTLE WEED,THISTLE WEED","120,186.5704237625095,189.89465273579754,173.12621897131743,233.23357925775105,236.33110737881975,222.54323813291478,195.15597146821588","8,7,6,5,4,3,2,1","CORN CROP,CORN CROP,CORN CROP,CORN CROP,CORN CROP,CORN CROP,CORN CROP,CORN CROP","0,0,0,0,0,0,0,0","20,20,20,20,20,20,20,20","10,10,10,10,10,10,10,10","20,20,20,20,20,20,20,20","20,20,20,20,20,20,20,20","20,20,20,20,20,20,20,20","0,0,0,0,0,0,0,0","20,20,20,20,20,20,20,20","10,10,10,10,10,10,10,10","20,20,20,20,20,20,20,20","20,20,20,20,20,20,20,20","20,20,20,20,20,20,20,20","1,0,0,1,0,0,0,1","1315,774,989,1005,1044,1173,1118,1196","28.45357222399257,-2.1022511686729457,0.9150093496931826,18.304468087573078,-25.175862555601974,18.69574484562672,-16.80145851384828,65.95181079214733","66.57042376250952,3.3242289732880264,-16.768433764480104,60.10736028643363,3.09752812106872,-13.787869245904982,-27.3872666646989,13.526488837094188","0","0"
"440","86","text","0","12","103977","0-0","","","","","","","","","","","","","","","","","","","","","","","","","","","","","","","","","","","","",""
"","","plant-game","0","13","116872","0-0","","200","180","4","CORN CROP","Right","200","160","4","NETTLE WEED","practice","6","1,2,3,4","160,211.558253887857,215.95913701076344,210.54665807287654","4,3,2,1","NETTLE WEED,NETTLE WEED,NETTLE WEED,NETTLE WEED","180,232.03604249043096,206.05741549819288,232.32132892910852","4,3,2,1","CORN CROP,CORN CROP,CORN CROP,CORN CROP","0,0,0,0","20,20,20,20","10,10,10,10","20,20,20,20","20,20,20,20","20,20,20,20","0,0,0,0","20,20,20,20","10,10,10,10","20,20,20,20","20,20,20,20","20,20,20,20","1,0,0,0","1120,1228,630,622","51.55825388785702,4.400883122906435,-5.4124789378868945,9.59765970698217","52.036042490430965,-25.97862699223809,26.26391343091564,-7.187029009007314","1","0"
"496","86","text","0","14","117464","0-0","","","","","","","","","","","","","","","","","","","","","","","","","","","","","","","","","","","","",""
"","","plant-game","0","15","128400","0-0","","200","180","2","CORN CROP","Left","200","190","2","THISTLE WEED","practice","7","1,2","180,154.22134004443777","2,1","CORN CROP,CORN CROP","190,184.05792061665164","2,1","THISTLE WEED,THISTLE WEED","20,20","20,20","10,10","20,20","0,0","20,20","20,20","20,20","10,10","20,20","0,0","20,20","1,1","534,846","-25.77865995556224,-10.320028070167721","-5.942079383348355,35.134526524708455","0","0"
"648","86","text","0","16","129144","0-0","","","","","","","","","","","","","","","","","","","","","","","","","","","","","","","","","","","","",""
"","","plant-game","0","17","154792","0-0","","200","120","4","WHEAT CROP","Right","200","120","8","THISTLE WEED","practice","8","1,2,3,4,5,6,7,8","120,155.35902052941023,193.21724683061768,185.41383994472199,183.58819596492418,175.00532759992305,188.3209003538865,217.90050262736438","8,7,6,5,4,3,2,1","THISTLE WEED,THISTLE WEED,THISTLE WEED,THISTLE WEED,THISTLE WEED,THISTLE WEED,THISTLE WEED,THISTLE WEED","120,149.41033933947818,171.5890545577941,191.18655807103542,160,148.97685111961354,155.3897306789613,160.89469546217876","4,3,2,1,4,3,2,1","WHEAT CROP,WHEAT CROP,WHEAT CROP,WHEAT CROP,CORN CROP,CORN CROP,CORN CROP,CORN CROP","0,0,0,0,0,0,0,0","20,20,20,20,20,20,20,20","10,10,10,10,10,10,10,10","20,20,20,20,20,20,20,20","20,20,20,20,20,20,20,20","20,20,20,20,20,20,20,20","0,0,0,0,0,0,0,0","20,20,20,20,20,20,20,20","10,10,10,10,10,10,10,10","20,20,20,20,20,20,20,20","20,20,20,20,20,20,20,20","20,20,20,20,20,20,20,20","1,1,0,1,0,0,0,0","1399,589,1046,813,1980,405,2405,960","35.35902052941023,37.858226301207466,-7.803406885895685,-1.8256439797978103,-8.582868365001122,13.31557275396344,29.5796022734779,6.667751578222379","29.4103393394782,22.1787152183159,19.59750351324132,-15.070256879168085,-11.02314888038646,6.412879559347785,5.504964783217444,-1.4424376055804746","0","0"
"591","86","text","0","18","155472","0-0","","","","","","","","","","","","","","","","","","","","","","","","","","","","","","","","","","","","",""
"","","plant-game","0","19","191700","0-0","","200","160","4","CORN CROP","Right","200","160","2","NETTLE WEED","practice","9","1,2,3,4","160,154.6490685748321,180,188.24376690729085","2,1,2,1","NETTLE WEED,NETTLE WEED,THISTLE WEED,THISTLE WEED","160,193.79543648744854,207.61980175902153,160.88968307065744","4,3,2,1","CORN CROP,CORN CROP,CORN CROP,CORN CROP","0,0,0,0","20,20,20,20","10,10,10,10","20,20,20,20","20,20,20,20","20,20,20,20","0,0,0,0","20,20,20,20","10,10,10,10","20,20,20,20","20,20,20,20","20,20,20,20","0,0,0,0","2046,793,5053,2909","-5.350931425167895,15.824016911908547,8.243766907290839,0.10379371532734986","33.79543648744855,13.824365271572974,-46.73011868836407,21.083708440830335","6","0"
"776","86","text","0","20","192596","0-0","","","","","","","","","","","","","","","","","","","","","","","","","","","","","","","","","","","","",""
"","","plant-game","0","21","210908","0-0","","200","180","2","CORN CROP","Right","200","180","1","NETTLE WEED","practice","10","1,2","180,190","1,1","NETTLE WEED,THISTLE WEED","180,145.31319372376342","2,1","CORN CROP,CORN CROP","0,0","20,20","10,10","20,20","20,20","20,20","0,0","20,20","10,10","20,20","20,20","20,20","0,1","588,2405","45.90102416945087,33.24383198619859","-34.68680627623658,-10.898159804629888","1","0"
"496","86","text","0","22","211548","0-0","","","","","","","","","","","","","","","","","","","","","","","","","","","","","","","","","","","","",""
"","","plant-game","0","23","240824","0-0","","200","120","8","CORN CROP","Left","200","160","4","NETTLE WEED","practice","11","1,2,3,4,5,6,7,8","120,163.07256985797278,120.651485518284,135.19884844559428,123.23110764401808,147.97677349794265,151.0728373594854,204.9079246308031","8,7,6,5,4,3,2,1","CORN CROP,CORN CROP,CORN CROP,CORN CROP,CORN CROP,CORN CROP,CORN CROP,CORN CROP","160,176.78729100762502,183.80110889538048,201.15270481239148,160,176.68668331528443,212.99502036673232,234.23635195593192","4,3,2,1,4,3,2,1","NETTLE WEED,NETTLE WEED,NETTLE WEED,NETTLE WEED,THISTLE WEED,THISTLE WEED,THISTLE WEED,THISTLE WEED","20,20,20,20,20,20,20,20","20,20,20,20,20,20,20,20","10,10,10,10,10,10,10,10","20,20,20,20,20,20,20,20","0,0,0,0,0,0,0,0","20,20,20,20,20,20,20,20","20,20,20,20,20,20,20,20","20,20,20,20,20,20,20,20","10,10,10,10,10,10,10,10","20,20,20,20,20,20,20,20","0,0,0,0,0,0,0,0","20,20,20,20,20,20,20,20","1,1,1,1,0,0,0,1","541,876,1661,1245,1069,2373,550,1457","43.07256985797277,-42.42108433968877,14.547362927310283,-11.967740801576198,24.745665853924567,3.096063861542735,53.835087271317704,32.94731714535088","16.787291007625022,7.013817887755472,17.351595917010997,19.38341937189527,16.686683315284437,36.30833705144789,21.24133158919961,-21.80250445267394","0","0"
"664","86","text","0","24","241592","0-0","","","","","","","","","","","","","","","","","","","","","","","","","","","","","","","","","","","","",""
"","","plant-game","0","25","261872","0-0","","200","180","2","WHEAT CROP","Right","200","160","4","NETTLE WEED","practice","12","1,2,3,4","160,125.98529250614018,127.10813071174123,134.62301443667272","4,3,2,1","NETTLE WEED,NETTLE WEED,NETTLE WEED,NETTLE WEED","180,203.7001814257562,180,208.90075553293346","2,1,2,1","WHEAT CROP,WHEAT CROP,CORN CROP,CORN CROP","0,0,0,0","20,20,20,20","10,10,10,10","20,20,20,20","20,20,20,20","20,20,20,20","0,0,0,0","20,20,20,20","10,10,10,10","20,20,20,20","20,20,20,20","20,20,20,20","1,1,0,0","2638,2612,1101,1054","-34.014707493859824,1.1228382056010382,7.514883724931498,-10.02254319537226","23.70018142575621,16.14211486178246,28.900755532933463,-3.761124822561892","0","0"
"1911","86","text","0","26","263856","0-0","","","","","","","","","","","","","","","","","","","","","","","","","","","","","","","","","","","","",""
"8823","86","text","0","27","273752","0-0","","","","","","","","","","","","","","","","","","","","","","","","","","","","","","","","","","","","",""
"","","plant-game","0","28","294543","0-0","","200","120","8","CORN CROP","Right","200","190","8","THISTLE WEED","experimental","1","1,2,3,4,5,6,7,8","190,239.64933634777037,239.7980155838618,248.72338944148348,296.0490988266119,311.19169041780555,287.6982302826075,290.9380267136125","8,7,6,5,4,3,2,1","THISTLE WEED,THISTLE WEED,THISTLE WEED,THISTLE WEED,THISTLE WEED,THISTLE WEED,THISTLE WEED,THISTLE WEED","120,142.64279865389128,141.50692175260878,189.6652490362418,184.69132549384545,233.0378514835874,218.07076883659175,251.16119926411616","8,7,6,5,4,3,2,1","CORN CROP,CORN CROP,CORN CROP,CORN CROP,CORN CROP,CORN CROP,CORN CROP,CORN CROP","0,0,0,0,0,0,0,0","20,20,20,20,20,20,20,20","10,10,10,10,10,10,10,10","20,20,20,20,20,20,20,20","20,20,20,20,20,20,20,20","20,20,20,20,20,20,20,20","0,0,0,0,0,0,0,0","20,20,20,20,20,20,20,20","10,10,10,10,10,10,10,10","20,20,20,20,20,20,20,20","20,20,20,20,20,20,20,20","20,20,20,20,20,20,20,20","1,1,1,1,0,0,0,0","5711,1252,660,1414,701,652,1054,878","49.64933634777039,0.14867923609142508,8.92537385762167,47.3257093851284,15.142591591193673,-23.493460135198077,3.239796431005013,-21.272618093628132","22.642798653891276,-1.1358769012825078,48.158327283633,-4.973923542396328,48.346525989741934,-14.967082646995634,33.09043042752442,3.800949216994614","0","0"
"919","86","text","0","29","295575","0-0","","","","","","","","","","","","","","","","","","","","","","","","","","","","","","","","","","","","",""
"","","plant-game","0","30","317996","0-0","","200","180","8","WHEAT CROP","Left","200","160","2","NETTLE WEED","experimental","2","1,2,3,4,5,6,7,8","180,183.80829649011932,187.4118943014057,186.0042847544708,196.5659585744169,247.5237613952175,219.25401918586059,218.16911225512385","8,7,6,5,4,3,2,1","WHEAT CROP,WHEAT CROP,WHEAT CROP,WHEAT CROP,WHEAT CROP,WHEAT CROP,WHEAT CROP,WHEAT CROP","160,141.37285111923566,140,153.4478348629638,149.5698509064378,171.8843060283927,169.16620025976368,169.30261429904027","2,1,6,5,4,3,2,1","NETTLE WEED,NETTLE WEED,THISTLE WEED,THISTLE WEED,THISTLE WEED,THISTLE WEED,THISTLE WEED,THISTLE WEED","20,20,20,20,20,20,20,20","20,20,20,20,20,20,20,20","10,10,10,10,10,10,10,10","20,20,20,20,20,20,20,20","0,0,0,0,0,0,0,0","20,20,20,20,20,20,20,20","20,20,20,20,20,20,20,20","20,20,20,20,20,20,20,20","10,10,10,10,10,10,10,10","20,20,20,20,20,20,20,20","0,0,0,0,0,0,0,0","20,20,20,20,20,20,20,20","1,1,0,1,0,1,1,1","4434,869,1957,957,628,1380,1621,1149","3.8082964901193064,3.60359781128638,-1.4076095469349,10.561673819946094,50.957802820800595,-28.269742209356895,-1.0849069307367485,-22.033536181567165","-18.627148880764327,-10.306950327038734,13.44783486296378,-3.877983956525968,22.314455121954907,-2.7181057686290124,0.13641403927657886,-5.124793039865734","0","0"
"609","86","text","0","31","318717","0-0","","","","","","","","","","","","","","","","","","","","","","","","","","","","","","","","","","","","",""
"","","plant-game","0","32","327836","0-0","","200","190","1","CORN CROP","Left","200","190","1","NETTLE WEED","experimental","3","1","190","1","CORN CROP","190","1","NETTLE WEED","20","20","10","20","0","20","20","20","10","20","0","20","0","3907","58.367544838253025","35.03038656031077","0","0"
"799","86","text","0","33","328764","0-0","","","","","","","","","","","","","","","","","","","","","","","","","","","","","","","","","","","","",""
"","","plant-game","0","34","345884","0-0","","200","120","2","CORN CROP","Left","200","180","4","NETTLE WEED","experimental","4","1,2,3,4","120,165.14136218428166,180,161.97376307752612","2,1,2,1","CORN CROP,CORN CROP,WHEAT CROP,WHEAT CROP","180,167.81542818156288,194.44156093962476,200.33257014452403","4,3,2,1","NETTLE WEED,NETTLE WEED,NETTLE WEED,NETTLE WEED","20,20,20,20","20,20,20,20","10,10,10,10","20,20,20,20","0,0,0,0","20,20,20,20","20,20,20,20","20,20,20,20","10,10,10,10","20,20,20,20","0,0,0,0","20,20,20,20","0,0,1,1","6004,966,1309,749","45.14136218428166,8.63844705673728,-18.02623692247388,45.26147241920419","-12.184571818437114,26.626132758061882,5.891009204899266,8.135036080082322","0","0"
"1016","86","text","0","35","347028","0-0","","","","","","","","","","","","","","","","","","","","","","","","","","","","","","","","","","","","",""
"","","plant-game","0","36","365376","0-0","","200","120","8","WHEAT CROP","Right","200","180","2","NETTLE WEED","experimental","5","1,2,3,4,5,6,7,8","180,186.97963107588035,140,150.4695521545254,154.89881295680522,169.25056169850836,185.42321193422706,186.44585115562623","2,1,6,5,4,3,2,1","NETTLE WEED,NETTLE WEED,THISTLE WEED,THISTLE WEED,THISTLE WEED,THISTLE WEED,THISTLE WEED,THISTLE WEED","120,127.73053033554189,131.9334781234259,157.57235780934718,167.06802200754404,245.4435519224781,235.3267812522039,238.80671489286877","8,7,6,5,4,3,2,1","WHEAT CROP,WHEAT CROP,WHEAT CROP,WHEAT CROP,WHEAT CROP,WHEAT CROP,WHEAT CROP,WHEAT CROP","0,0,0,0,0,0,0,0","20,20,20,20,20,20,20,20","10,10,10,10,10,10,10,10","20,20,20,20,20,20,20,20","20,20,20,20,20,20,20,20","20,20,20,20,20,20,20,20","0,0,0,0,0,0,0,0","20,20,20,20,20,20,20,20","10,10,10,10,10,10,10,10","20,20,20,20,20,20,20,20","20,20,20,20,20,20,20,20","20,20,20,20,20,20,20,20","0,0,1,1,1,0,0,0","3386,597,1621,481,1101,1213,893,837","6.9796310758803415,-15.666767796047608,10.46955215452538,4.429260802279815,14.35174874170314,16.172650235718688,1.0226392213991773,-44.99147209575328","7.730530335541884,4.202947787884039,25.638879685921268,9.495664198196875,78.37552991493405,-10.116770670274217,3.479933640664883,19.62638651206617","0","0"
"1240","86","text","0","37","366680","0-0","","","","","","","","","","","","","","","","","","","","","","","","","","","","","","","","","","","","",""
"","","plant-game","0","38","381632","0-0","","200","180","1","CORN CROP","Right","200","180","4","THISTLE WEED","experimental","6","1,2,3,4","180,219.721133850643,246.33710537129681,250.83461246598807","4,3,2,1","THISTLE WEED,THISTLE WEED,THISTLE WEED,THISTLE WEED","180,170,154.5555141831586,164.40500150151559","1,3,2,1","CORN CROP,WHEAT CROP,WHEAT CROP,WHEAT CROP","0,0,0,0","20,20,20,20","10,10,10,10","20,20,20,20","20,20,20,20","20,20,20,20","0,0,0,0","20,20,20,20","10,10,10,10","20,20,20,20","20,20,20,20","20,20,20,20","1,0,0,0","3635,1837,1677,557","39.721133850643014,26.615971520653794,4.497507094691252,3.725798411835081","33.03200340731321,-15.444485816841386,9.849487318356973,-11.42272932276212","0","0"
"592","86","text","0","39","382352","0-0","","","","","","","","","","","","","","","","","","","","","","","","","","","","","","","","","","","","",""
"","","plant-game","0","40","397464","0-0","","200","120","4","CORN CROP","Right","200","190","2","THISTLE WEED","experimental","7","1,2,3,4","190,173.07968998006703,180,208.40881996623528","2,1,2,1","THISTLE WEED,THISTLE WEED,NETTLE WEED,NETTLE WEED","120,140.34075939859017,202.1316364462599,198.51921424909474","4,3,2,1","CORN CROP,CORN CROP,CORN CROP,CORN CROP","0,0,0,0","20,20,20,20","10,10,10,10","20,20,20,20","20,20,20,20","20,20,20,20","0,0,0,0","20,20,20,20","10,10,10,10","20,20,20,20","20,20,20,20","20,20,20,20","0,0,1,0","2442,852,2821,1189","-16.92031001993298,-21.888375439608943,28.408819966235285,-18.552249066913443","20.340759398590173,61.79087704766974,-3.6124221971651664,-2.1290880031114194","0","0"
"600","86","text","0","41","398216","0-0","","","","","","","","","","","","","","","","","","","","","","","","","","","","","","","","","","","","",""
"","","plant-game","0","42","406809","0-0","","200","190","2","WHEAT CROP","Right","200","180","2","NETTLE WEED","experimental","8","1,2","180,243.94209562065282","2,1","NETTLE WEED,NETTLE WEED","190,186.9887891917328","2,1","WHEAT CROP,WHEAT CROP","0,0","20,20","10,10","20,20","20,20","20,20","0,0","20,20","10,10","20,20","20,20","20,20","1,1","2315,1094","63.942095620652836,45.31156227703823","-3.011210808267208,49.8526806685666","0","0"
"519","86","text","0","43","407448","0-0","","","","","","","","","","","","","","","","","","","","","","","","","","","","","","","","","","","","",""
"","","plant-game","0","44","427349","0-0","","200","160","4","WHEAT CROP","Left","200","160","1","NETTLE WEED","experimental","9","1,2,3,4","160,152.53422757981585,115.3063295569121,124.55255339075114","4,3,2,1","WHEAT CROP,WHEAT CROP,WHEAT CROP,WHEAT CROP","160,170,199.55082512014565,212.65956123282513","1,3,2,1","NETTLE WEED,THISTLE WEED,THISTLE WEED,THISTLE WEED","20,20,20,20","20,20,20,20","10,10,10,10","20,20,20,20","0,0,0,0","20,20,20,20","20,20,20,20","20,20,20,20","10,10,10,10","20,20,20,20","0,0,0,0","20,20,20,20","1,1,1,1","9983,1613,1670,1156","-7.465772420184144,-37.227898022903744,9.246223833839034,15.07637145532809","-28.047426884966672,29.55082512014566,13.10873611267947,-1.2771271551827095","0","0"
"504","86","text","0","45","427989","0-0","","","","","","","","","","","","","","","","","","","","","","","","","","","","","","","","","","","","",""
"","","plant-game","0","46","450484","0-0","","200","160","4","CORN CROP","Left","200","180","8","NETTLE WEED","experimental","10","1,2,3,4,5,6,7,8","160,177.30942362490714,191.48981444997344,209.95797884564652,160,181.21104942473391,206.5416963885855,245.71489302590092","4,3,2,1,4,3,2,1","CORN CROP,CORN CROP,CORN CROP,CORN CROP,WHEAT CROP,WHEAT CROP,WHEAT CROP,WHEAT CROP","180,236.78533540574568,231.76027503844728,246.11538788920575,261.98259937498125,254.11339399871923,267.7945485301182,286.80484051952845","8,7,6,5,4,3,2,1","NETTLE WEED,NETTLE WEED,NETTLE WEED,NETTLE WEED,NETTLE WEED,NETTLE WEED,NETTLE WEED,NETTLE WEED","20,20,20,20,20,20,20,20","20,20,20,20,20,20,20,20","10,10,10,10,10,10,10,10","20,20,20,20,20,20,20,20","0,0,0,0,0,0,0,0","20,20,20,20,20,20,20,20","20,20,20,20,20,20,20,20","20,20,20,20,20,20,20,20","10,10,10,10,10,10,10,10","20,20,20,20,20,20,20,20","0,0,0,0,0,0,0,0","20,20,20,20,20,20,20,20","0,0,0,0,1,1,1,1","8506,636,2374,557,1549,333,654,427","17.309423624907147,14.180390825066294,18.468164395673096,27.457039405211685,21.2110494247339,25.33064696385159,39.17319663731542,-18.006834460725692","56.785335405745684,-5.025060367298401,14.35511285075848,15.867211485775494,-7.869205376262029,13.68115453139901,19.010291989410227,-0.09996280711343136","0","0"
"639","86","text","0","47","451244","0-0","","","","","","","","","","","","","","","","","","","","","","","","","","","","","","","","","","","","",""
"","","plant-game","0","48","464492","0-0","","200","180","2","WHEAT CROP","Left","200","190","4","THISTLE WEED","experimental","11","1,2,3,4","180,202.59514735632524,180,198.62712148267653","2,1,2,1","WHEAT CROP,WHEAT CROP,CORN CROP,CORN CROP","190,194.08169991082593,190.89828538177576,201.14994871410926","4,3,2,1","THISTLE WEED,THISTLE WEED,THISTLE WEED,THISTLE WEED","20,20,20,20","20,20,20,20","10,10,10,10","20,20,20,20","0,0,0,0","20,20,20,20","20,20,20,20","20,20,20,20","10,10,10,10","20,20,20,20","0,0,0,0","20,20,20,20","0,1,0,1","3122,1413,2078,798","22.59514735632525,2.9178200154217038,18.627121482676532,4.820853029910964","4.081699910825927,-3.183414529050161,10.251663332333482,-1.5273013865944682","0","0"
"464","86","text","0","49","465077","0-0","","","","","","","","","","","","","","","","","","","","","","","","","","","","","","","","","","","","",""
"","","plant-game","0","50","481352","0-0","","200","160","1","WHEAT CROP","Right","200","190","8","THISTLE WEED","experimental","12","1,2,3,4,5,6,7,8","190,214.49834396461554,278.4415569157801,308.6619313700044,314.2224969153946,353.5856268103428,341.0900197462836,361.3526242941734","8,7,6,5,4,3,2,1","THISTLE WEED,THISTLE WEED,THISTLE WEED,THISTLE WEED,THISTLE WEED,THISTLE WEED,THISTLE WEED,THISTLE WEED","160,130,120.34531651241957,101.57048619451648,94.07190155862678,86.05063723647835,75.55841010178654,113.94156851843034","1,7,6,5,4,3,2,1","WHEAT CROP,CORN CROP,CORN CROP,CORN CROP,CORN CROP,CORN CROP,CORN CROP,CORN CROP","0,0,0,0,0,0,0,0","20,20,20,20,20,20,20,20","10,10,10,10,10,10,10,10","20,20,20,20,20,20,20,20","20,20,20,20,20,20,20,20","20,20,20,20,20,20,20,20","0,0,0,0,0,0,0,0","20,20,20,20,20,20,20,20","10,10,10,10,10,10,10,10","20,20,20,20,20,20,20,20","20,20,20,20,20,20,20,20","20,20,20,20,20,20,20,20","1,0,0,0,0,0,0,1","3048,876,749,1381,925,463,765,2129","24.498343964615543,63.94321295116455,30.220374454224306,5.560565545390162,39.363129894948216,-12.495607064059184,20.26260454788979,50.155422277753345","26.79058163295918,-9.654683487580431,-18.774830317903092,-7.4985846358897,-8.021264322148424,-10.492227134691817,38.38315841664381,5.408720681286489","0","0"
"463","86","text","0","51","481952","0-0","","","","","","","","","","","","","","","","","","","","","","","","","","","","","","","","","","","","",""
"","","plant-game","0","52","496752","0-0","","200","180","8","WHEAT CROP","Right","200","160","1","THISTLE WEED","experimental","13","1,2,3,4,5,6,7,8","160,130,129.35377178347835,142.59247145695198,114.84128000126833,96.7527205118295,98.21527170974518,78.7044598421931","1,7,6,5,4,3,2,1","THISTLE WEED,NETTLE WEED,NETTLE WEED,NETTLE WEED,NETTLE WEED,NETTLE WEED,NETTLE WEED,NETTLE WEED","180,180.30412579080757,160.05394798476482,172.10154165938647,142.60978619299902,159.09311474686282,215.69148491160416,229.46618484626745","8,7,6,5,4,3,2,1","WHEAT CROP,WHEAT CROP,WHEAT CROP,WHEAT CROP,WHEAT CROP,WHEAT CROP,WHEAT CROP,WHEAT CROP","0,0,0,0,0,0,0,0","20,20,20,20,20,20,20,20","10,10,10,10,10,10,10,10","20,20,20,20,20,20,20,20","20,20,20,20,20,20,20,20","20,20,20,20,20,20,20,20","0,0,0,0,0,0,0,0","20,20,20,20,20,20,20,20","10,10,10,10,10,10,10,10","20,20,20,20,20,20,20,20","20,20,20,20,20,20,20,20","20,20,20,20,20,20,20,20","0,1,1,1,1,1,0,0","2883,732,1804,693,582,1189,1246,422","-3.3031250904916796,-0.6462282165216529,13.238699673473645,-27.751191455683653,-18.088559489438836,1.4625511979156833,-19.51081186755207,33.154294183272846","0.3041257908075661,-20.250177806042764,12.047593674621647,-29.49175546638743,16.4833285538638,56.598370164741326,13.774699934663282,28.666951930230162","0","0"
"1215","86","text","0","53","498048","0-0","","","","","","","","","","","","","","","","","","","","","","","","","","","","","","","","","","","","",""
"","","plant-game","0","54","516336","0-0","","200","180","2","CORN CROP","Left","200","190","8","NETTLE WEED","experimental","14","1,2,3,4,5,6,7,8","180,196.19933951507574,140,155.3171919006563,142.0198546712021,153.123435990629,202.05457879573618,200.13969926447052","2,1,6,5,4,3,2,1","CORN CROP,CORN CROP,WHEAT CROP,WHEAT CROP,WHEAT CROP,WHEAT CROP,WHEAT CROP,WHEAT CROP","190,204.0041676237539,205.6411946282696,191.92576095697265,206.60917245932998,188.31388120292576,203.16541028955777,197.63066632632592","8,7,6,5,4,3,2,1","NETTLE WEED,NETTLE WEED,NETTLE WEED,NETTLE WEED,NETTLE WEED,NETTLE WEED,NETTLE WEED,NETTLE WEED","20,20,20,20,20,20,20,20","20,20,20,20,20,20,20,20","10,10,10,10,10,10,10,10","20,20,20,20,20,20,20,20","0,0,0,0,0,0,0,0","20,20,20,20,20,20,20,20","20,20,20,20,20,20,20,20","20,20,20,20,20,20,20,20","10,10,10,10,10,10,10,10","20,20,20,20,20,20,20,20","0,0,0,0,0,0,0,0","20,20,20,20,20,20,20,20","0,0,1,1,1,0,1,1","4185,1589,1101,1717,894,661,733,1662","16.19933951507575,34.28087381321902,15.317191900656296,-13.297337229454198,11.103581319426887,48.93114280510718,-1.9148795312656566,-54.47835918282669","14.004167623753878,1.6370270045157227,-13.715433671296957,14.683411502357318,-18.29529125640423,14.851529086632006,-5.534743963231852,21.745341534814628","0","0"
"472","86","text","0","55","516896","0-0","","","","","","","","","","","","","","","","","","","","","","","","","","","","","","","","","","","","",""
"","","plant-game","0","56","528624","0-0","","200","160","4","WHEAT CROP","Left","200","180","2","NETTLE WEED","experimental","15","1,2,3,4","160,174.0906260654247,183.3282639798261,207.20211907270772","4,3,2,1","WHEAT CROP,WHEAT CROP,WHEAT CROP,WHEAT CROP","180,165.6944174321425,180,179.5826424564857","2,1,2,1","NETTLE WEED,NETTLE WEED,THISTLE WEED,THISTLE WEED","20,20,20,20","20,20,20,20","10,10,10,10","20,20,20,20","0,0,0,0","20,20,20,20","20,20,20,20","20,20,20,20","10,10,10,10","20,20,20,20","0,0,0,0","20,20,20,20","1,1,0,1","4834,637,1214,582","14.090626065424674,9.23763791440139,23.873855092881634,20.288797235052485","-14.305582567857488,9.750886375501507,-0.41735754351428866,2.6994840730944776","0","0"
"568","86","text","0","57","529272","0-0","","","","","","","","","","","","","","","","","","","","","","","","","","","","","","","","","","","","",""
"","","plant-game","0","58","544364","0-0","","200","120","8","CORN CROP","Left","200","190","2","THISTLE WEED","experimental","16","1,2,3,4,5,6,7,8","120,106.82507053639543,77.30213342031337,88.32319277046165,108.03061665574648,112.09339280415054,116.9631781019975,130.65745553216206","8,7,6,5,4,3,2,1","CORN CROP,CORN CROP,CORN CROP,CORN CROP,CORN CROP,CORN CROP,CORN CROP,CORN CROP","190,224.57395756090068,140,155.77578410052163,145.31094387434638,187.7299680557901,152.86726784446938,212.86400530947793","2,1,6,5,4,3,2,1","THISTLE WEED,THISTLE WEED,NETTLE WEED,NETTLE WEED,NETTLE WEED,NETTLE WEED,NETTLE WEED,NETTLE WEED","20,20,20,20,20,20,20,20","20,20,20,20,20,20,20,20","10,10,10,10,10,10,10,10","20,20,20,20,20,20,20,20","0,0,0,0,0,0,0,0","20,20,20,20,20,20,20,20","20,20,20,20,20,20,20,20","20,20,20,20,20,20,20,20","10,10,10,10,10,10,10,10","20,20,20,20,20,20,20,20","0,0,0,0,0,0,0,0","20,20,20,20,20,20,20,20","1,1,0,0,0,1,0,1","3290,1741,1613,666,581,749,694,774","-13.17492946360457,-29.522937116082066,11.02105935014827,19.707423885284843,4.062776148404062,4.869785297846959,13.694277430164565,22.838730767110246","34.573957560900666,15.841158894559577,15.775784100521626,-10.464840226175248,42.41902418144373,-34.8627002113207,59.99673746500854,8.81295604136067","0","0"
"5880","86","text","0","59","550309","0-0","","","","","","","","","","","","","","","","","","","","","","","","","","","","","","","","","","","","",""
"","","plant-game","0","60","556389","0-0","","200","180","1","WHEAT CROP","Right","200","180","1","THISTLE WEED","experimental","17","1","180","1","THISTLE WEED","180","1","WHEAT CROP","0","20","10","20","20","20","0","20","10","20","20","20","0","2747","22.347569661740113","-34.456575306048165","0","0"
"704","86","text","0","61","557189","0-0","","","","","","","","","","","","","","","","","","","","","","","","","","","","","","","","","","","","",""
"","","plant-game","0","62","570157","0-0","","200","120","1","WHEAT CROP","Left","200","120","8","NETTLE WEED","experimental","18","1,2,3,4,5,6,7,8","120,130,172.8342226074978,235.13118327145145,241.01478825568705,282.4007861989522,299.5319395460985,286.1769607192242","1,7,6,5,4,3,2,1","WHEAT CROP,CORN CROP,CORN CROP,CORN CROP,CORN CROP,CORN CROP,CORN CROP,CORN CROP","120,115.26012685289135,102.51427878724161,118.49433086064455,156.8414533904226,147.8361653941867,143.3102277771154,164.97738324221436","8,7,6,5,4,3,2,1","NETTLE WEED,NETTLE WEED,NETTLE WEED,NETTLE WEED,NETTLE WEED,NETTLE WEED,NETTLE WEED,NETTLE WEED","20,20,20,20,20,20,20,20","20,20,20,20,20,20,20,20","10,10,10,10,10,10,10,10","20,20,20,20,20,20,20,20","0,0,0,0,0,0,0,0","20,20,20,20,20,20,20,20","20,20,20,20,20,20,20,20","20,20,20,20,20,20,20,20","10,10,10,10,10,10,10,10","20,20,20,20,20,20,20,20","0,0,0,0,0,0,0,0","20,20,20,20,20,20,20,20","1,0,0,1,1,1,1,1","3657,1228,780,965,437,517,414,349","14.730638058544498,42.83422260749778,62.296960663953655,5.8836049842356,41.385997943265124,17.131153347146338,-13.354978826874275,-13.3439128451768","-4.739873147108655,-12.745848065649731,15.980052073402948,38.34712252977805,-9.005287996235904,-4.5259376170713335,21.667155465098983,3.916629641152589","0","0"
"384","86","text","0","63","570645","0-0","","","","","","","","","","","","","","","","","","","","","","","","","","","","","","","","","","","","",""
"","","plant-game","0","64","582365","0-0","","200","160","8","WHEAT CROP","Right","200","180","2","THISTLE WEED","experimental","19","1,2,3,4,5,6,7,8","180,188.2912522308756,140,168.37292601981528,142.26792212219917,164.84704581191747,200.95371193823385,224.21698597492352","2,1,6,5,4,3,2,1","THISTLE WEED,THISTLE WEED,NETTLE WEED,NETTLE WEED,NETTLE WEED,NETTLE WEED,NETTLE WEED,NETTLE WEED","160,162.61920024949748,174.10054702429014,223.60020487951923,226.8961241421793,288.4741992625628,282.1463360764349,283.28214269720905","8,7,6,5,4,3,2,1","WHEAT CROP,WHEAT CROP,WHEAT CROP,WHEAT CROP,WHEAT CROP,WHEAT CROP,WHEAT CROP,WHEAT CROP","0,0,0,0,0,0,0,0","20,20,20,20,20,20,20,20","10,10,10,10,10,10,10,10","20,20,20,20,20,20,20,20","20,20,20,20,20,20,20,20","20,20,20,20,20,20,20,20","0,0,0,0,0,0,0,0","20,20,20,20,20,20,20,20","10,10,10,10,10,10,10,10","20,20,20,20,20,20,20,20","20,20,20,20,20,20,20,20","20,20,20,20,20,20,20,20","0,0,1,0,1,0,0,0","3131,460,749,907,469,421,741,598","8.291252230875624,7.94871416028494,28.37292601981529,-26.105003897616115,22.579123689718312,36.10666612631638,23.26327403668966,-10.509938131374748","2.619200249497495,11.481346774792666,49.499657855229096,3.295919262660065,61.57807512038349,-6.327863186127915,1.1358066207741444,15.98696698646834","0","0"
"336","86","text","0","65","582789","0-0","","","","","","","","","","","","","","","","","","","","","","","","","","","","","","","","","","","","",""
"","","plant-game","0","66","588820","0-0","","200","160","1","WHEAT CROP","Right","200","190","1","THISTLE WEED","experimental","20","1","190","1","THISTLE WEED","160","1","WHEAT CROP","0","20","10","20","20","20","0","20","10","20","20","20","1","3106","-3.691077933721452","-0.4283077569314955","0","0"
"440","86","text","0","67","589373","0-0","","","","","","","","","","","","","","","","","","","","","","","","","","","","","","","","","","","","",""
"","","plant-game","0","68","594804","0-0","","200","120","1","WHEAT CROP","Left","200","120","1","NETTLE WEED","experimental","21","1","120","1","WHEAT CROP","120","1","NETTLE WEED","20","20","10","20","0","20","20","20","10","20","0","20","0","2844","-0.038252451832715195","40.28200899459803","0","0"
"400","86","text","0","69","595316","0-0","","","","","","","","","","","","","","","","","","","","","","","","","","","","","","","","","","","","",""
"","","plant-game","0","70","600257","0-0","","200","160","2","CORN CROP","Right","200","120","2","NETTLE WEED","experimental","22","1,2","120,113.78572858703316","2,1","NETTLE WEED,NETTLE WEED","160,187.02752922685232","2,1","CORN CROP,CORN CROP","0,0","20,20","10,10","20,20","20,20","20,20","0,0","20,20","10,10","20,20","20,20","20,20","1,1","2076,414","-6.214271412966845,2.9572166345191597","27.02752922685233,-10.942276301965876","0","0"
"296","86","text","0","71","600673","0-0","","","","","","","","","","","","","","","","","","","","","","","","","","","","","","","","","","","","",""
"","","plant-game","0","72","609048","0-0","","200","180","2","WHEAT CROP","Left","200","120","1","NETTLE WEED","experimental","23","1,2","180,223.65733018175723","2,1","WHEAT CROP,WHEAT CROP","120,190","1,1","NETTLE WEED,THISTLE WEED","20,20","20,20","10,10","20,20","0,0","20,20","20,20","20,20","10,10","20,20","0,0","20,20","0,1","1636,1829","43.65733018175722,3.639711769451392","30.24059188017388,44.54366380185432","0","0"
"328","86","text","0","73","609488","0-0","","","","","","","","","","","","","","","","","","","","","","","","","","","","","","","","","","","","",""
"","","plant-game","0","74","616297","0-0","","200","190","1","WHEAT CROP","Right","200","120","2","THISTLE WEED","experimental","24","1,2","120,136.3963192389949","2,1","THISTLE WEED,THISTLE WEED","190,190","1,1","WHEAT CROP,CORN CROP","0,0","20,20","10,10","20,20","20,20","20,20","0,0","20,20","10,10","20,20","20,20","20,20","1,1","1618,941","16.396319238994902,16.76348748801002","-13.533138036899892,22.181484044137015","0","0"
"376","86","text","0","75","616801","0-0","","","","","","","","","","","","","","","","","","","","","","","","","","","","","","","","","","","","",""
"","","plant-game","0","76","628824","0-0","","200","160","8","CORN CROP","Left","200","190","1","THISTLE WEED","experimental","25","1,2,3,4,5,6,7,8","160,149.00744599568048,179.61202867672955,211.57205867268112,202.14349313276628,232.49671555952278,226.28634088918952,235.4839857650613","8,7,6,5,4,3,2,1","CORN CROP,CORN CROP,CORN CROP,CORN CROP,CORN CROP,CORN CROP,CORN CROP,CORN CROP","190,130,101.98850121312152,133.5834091371021,144.09528710643062,150.42372183769638,166.8300280787713,196.5036371382814","1,7,6,5,4,3,2,1","THISTLE WEED,NETTLE WEED,NETTLE WEED,NETTLE WEED,NETTLE WEED,NETTLE WEED,NETTLE WEED,NETTLE WEED","20,20,20,20,20,20,20,20","20,20,20,20,20,20,20,20","10,10,10,10,10,10,10,10","20,20,20,20,20,20,20,20","0,0,0,0,0,0,0,0","20,20,20,20,20,20,20,20","20,20,20,20,20,20,20,20","20,20,20,20,20,20,20,20","10,10,10,10,10,10,10,10","20,20,20,20,20,20,20,20","0,0,0,0,0,0,0,0","20,20,20,20,20,20,20,20","1,0,0,1,0,1,1,1","2739,708,868,660,477,700,397,821","-10.992554004319517,30.60458268104908,31.960029995951572,-9.428565539914835,30.35322242675651,-6.210374670333261,9.19764487587179,3.632185752465569","20.500438144062212,-28.011498786878477,31.594907923980582,10.511877969328516,6.328434731265753,16.40630624107494,29.673609059510078,8.441713757064969","0","0"
"224","86","text","0","77","629152","0-0","","","","","","","","","","","","","","","","","","","","","","","","","","","","","","","","","","","","",""
"","","plant-game","0","78","642056","0-0","","200","190","8","CORN CROP","Left","200","120","2","NETTLE WEED","experimental","26","1,2,3,4,5,6,7,8","190,222.3711682417047,246.11438048253203,261.0694717250871,230.35705331314014,202.6491682946238,198.98560637296652,189.1881520434313","8,7,6,5,4,3,2,1","CORN CROP,CORN CROP,CORN CROP,CORN CROP,CORN CROP,CORN CROP,CORN CROP,CORN CROP","120,114.78382928129673,140,139.3194305625213,168.11267933550135,156.87723116526476,186.467524233261,176.35889966083317","2,1,6,5,4,3,2,1","NETTLE WEED,NETTLE WEED,THISTLE WEED,THISTLE WEED,THISTLE WEED,THISTLE WEED,THISTLE WEED,THISTLE WEED","20,20,20,20,20,20,20,20","20,20,20,20,20,20,20,20","10,10,10,10,10,10,10,10","20,20,20,20,20,20,20,20","0,0,0,0,0,0,0,0","20,20,20,20,20,20,20,20","20,20,20,20,20,20,20,20","20,20,20,20,20,20,20,20","10,10,10,10,10,10,10,10","20,20,20,20,20,20,20,20","0,0,0,0,0,0,0,0","20,20,20,20,20,20,20,20","1,1,0,1,1,1,1,1","2410,790,1869,500,452,1597,621,421","32.3711682417047,23.74321224082731,14.955091242555099,-30.712418411946967,-27.707885018516336,-3.663561921657265,-9.79745432953522,-22.534386930483894","-5.216170718703273,35.078816953917915,-0.6805694374786952,28.79324877298005,-11.235448170236603,29.590293067996246,-10.108624572427836,12.980212104421406","0","0"
"416","86","text","0","79","642584","0-0","","","","","","","","","","","","","","","","","","","","","","","","","","","","","","","","","","","","",""
"","","plant-game","0","80","652496","0-0","","200","180","4","CORN CROP","Right","200","190","1","THISTLE WEED","experimental","27","1,2,3,4","190,170,206.54231990066887,215.40614155475598","1,3,2,1","THISTLE WEED,NETTLE WEED,NETTLE WEED,NETTLE WEED","180,181.91267207884127,184.67077200332014,197.2295933583726","4,3,2,1","CORN CROP,CORN CROP,CORN CROP,CORN CROP","0,0,0,0","20,20,20,20","10,10,10,10","20,20,20,20","20,20,20,20","20,20,20,20","0,0,0,0","20,20,20,20","10,10,10,10","20,20,20,20","20,20,20,20","20,20,20,20","0,1,1,1","3506,902,1190,413","1.5126539812943463,36.54231990066886,8.863821654087104,-11.960677918391717","1.9126720788412581,2.758099924478877,12.558821355052446,8.764642654029224","0","0"
"343","86","text","0","81","652960","0-0","","","","","","","","","","","","","","","","","","","","","","","","","","","","","","","","","","","","",""
"","","plant-game","0","82","658856","0-0","","200","160","2","WHEAT CROP","Left","200","190","2","NETTLE WEED","experimental","28","1,2","160,179.9328237950897","2,1","WHEAT CROP,WHEAT CROP","190,199.35819226886068","2,1","NETTLE WEED,NETTLE WEED","20,20","20,20","10,10","20,20","0,0","20,20","20,20","20,20","10,10","20,20","0,0","20,20","1,1","3091,605","19.932823795089696,8.158496059752924","9.358192268860682,20.94716146842577","0","0"
"216","86","text","0","83","659200","0-0","","","","","","","","","","","","","","","","","","","","","","","","","","","","","","","","","","","","",""
"","","plant-game","0","84","667846","0-0","","200","120","4","WHEAT CROP","Left","200","160","1","THISTLE WEED","experimental","29","1,2,3,4","120,163.258195184358,187.1555533575881,209.85902353490488","4,3,2,1","WHEAT CROP,WHEAT CROP,WHEAT CROP,WHEAT CROP","160,170,195.30818025335915,206.21345076893192","1,3,2,1","THISTLE WEED,NETTLE WEED,NETTLE WEED,NETTLE WEED","20,20,20,20","20,20,20,20","10,10,10,10","20,20,20,20","0,0,0,0","20,20,20,20","20,20,20,20","20,20,20,20","10,10,10,10","20,20,20,20","0,0,0,0","20,20,20,20","1,0,0,1","3016,1046,349,566","43.258195184357994,23.897358173230124,22.703470177316774,-13.59922563031173","-0.9070109989964421,25.308180253359158,10.905270515572768,-20.429803855309206","0","0"
"224","86","text","0","85","668165","0-0","","","","","","","","","","","","","","","","","","","","","","","","","","","","","","","","","","","","",""
"","","plant-game","0","86","677085","0-0","","200","120","8","WHEAT CROP","Right","200","120","8","NETTLE WEED","experimental","30","1,2,3,4,5,6,7,8","120,149.95083658973047,133.41045249333536,147.91304495142953,143.25514177342234,193.2433022170184,201.37068361197544,205.81712016594054","8,7,6,5,4,3,2,1","NETTLE WEED,NETTLE WEED,NETTLE WEED,NETTLE WEED,NETTLE WEED,NETTLE WEED,NETTLE WEED,NETTLE WEED","120,161.51234088467191,161.1224867171881,157.57843413184483,159.6345864897562,168.58020743728642,158.3432634798529,183.46190448781883","8,7,6,5,4,3,2,1","WHEAT CROP,WHEAT CROP,WHEAT CROP,WHEAT CROP,WHEAT CROP,WHEAT CROP,WHEAT CROP,WHEAT CROP","0,0,0,0,0,0,0,0","20,20,20,20,20,20,20,20","10,10,10,10,10,10,10,10","20,20,20,20,20,20,20,20","20,20,20,20,20,20,20,20","20,20,20,20,20,20,20,20","0,0,0,0,0,0,0,0","20,20,20,20,20,20,20,20","10,10,10,10,10,10,10,10","20,20,20,20,20,20,20,20","20,20,20,20,20,20,20,20","20,20,20,20,20,20,20,20","1,1,1,1,1,1,0,0","2289,340,405,292,269,341,1301,445","29.95083658973048,-16.54038409639511,14.502592458094162,-4.657903178007196,49.98816044359605,8.12738139495705,4.446436553965102,-13.38020864451259","41.5123408846719,-0.38985416748381496,-3.544052585343273,2.0561523579113583,8.945620947530221,-10.23694395743351,25.118641007965927,9.296928821964011","0","0"
"360","86","text","0","87","677565","0-0","","","","","","","","","","","","","","","","","","","","","","","","","","","","","","","","","","","","",""
"","","plant-game","0","88","684332","0-0","","200","190","1","CORN CROP","Left","200","160","1","NETTLE WEED","experimental","31","1","190","1","CORN CROP","160","1","NETTLE WEED","20","20","10","20","0","20","20","20","10","20","0","20","0","3772","3.4618869147163878","42.53521305251124","0","0"
"399","86","text","0","89","684852","0-0","","","","","","","","","","","","","","","","","","","","","","","","","","","","","","","","","","","","",""
"","","plant-game","0","90","696005","0-0","","200","160","8","WHEAT CROP","Left","200","120","4","NETTLE WEED","experimental","32","1,2,3,4,5,6,7,8","160,159.75042578525677,148.8039143365914,154.0845772782782,149.12348042578608,175.51324593452924,197.99386807608622,244.7854007557087","8,7,6,5,4,3,2,1","WHEAT CROP,WHEAT CROP,WHEAT CROP,WHEAT CROP,WHEAT CROP,WHEAT CROP,WHEAT CROP,WHEAT CROP","120,155.09573702973177,115.93278436572947,115.29488569713276,160,204.09152114095377,203.10563643997855,247.06306514453559","4,3,2,1,4,3,2,1","NETTLE WEED,NETTLE WEED,NETTLE WEED,NETTLE WEED,THISTLE WEED,THISTLE WEED,THISTLE WEED,THISTLE WEED","20,20,20,20,20,20,20,20","20,20,20,20,20,20,20,20","10,10,10,10,10,10,10,10","20,20,20,20,20,20,20,20","0,0,0,0,0,0,0,0","20,20,20,20,20,20,20,20","20,20,20,20,20,20,20,20","20,20,20,20,20,20,20,20","10,10,10,10,10,10,10,10","20,20,20,20,20,20,20,20","0,0,0,0,0,0,0,0","20,20,20,20,20,20,20,20","0,1,1,1,0,0,0,1","1387,1524,412,301,1573,637,462,622","-0.24957421474323382,-10.946511448665369,5.280662941686812,-4.9610968524921155,26.389765508743146,22.48062214155699,46.79153267962249,21.32943531518473","35.09573702973178,-39.1629526640023,-0.6378986685967153,-9.000481297623578,44.09152114095376,-0.9858847009752267,43.95742870455703,-10.302319518291384","0","0"
"4479","86","text","0","91","700588","0-0","","","","","","","","","","","","","","","","","","","","","","","","","","","","","","","","","","","","",""
"","","plant-game","0","92","710141","0-0","","200","160","2","WHEAT CROP","Right","200","120","1","THISTLE WEED","experimental","33","1,2","120,190","1,1","THISTLE WEED,NETTLE WEED","160,177.51233866378738","2,1","WHEAT CROP,WHEAT CROP","0,0","20,20","10,10","20,20","20,20","20,20","0,0","20,20","10,10","20,20","20,20","20,20","0,1","4739,1262","20.354804067739465,21.533210120248064","17.51233866378737,38.662068426700344","1","0"
"168","86","text","0","93","710421","0-0","","","","","","","","","","","","","","","","","","","","","","","","","","","","","","","","","","","","",""
"","","plant-game","0","94","723985","0-0","","200","160","4","CORN CROP","Right","200","120","8","NETTLE WEED","experimental","34","1,2,3,4,5,6,7,8","120,198.74787922080196,219.42451085475253,211.87361576171736,204.2913625271809,193.55427579128474,175.6192420896781,179.17175769507034","8,7,6,5,4,3,2,1","NETTLE WEED,NETTLE WEED,NETTLE WEED,NETTLE WEED,NETTLE WEED,NETTLE WEED,NETTLE WEED,NETTLE WEED","160,190.37972369486056,150.8418804893347,130.89576129312996,160,163.0776149318968,142.4991486177982,161.12933070548877","4,3,2,1,4,3,2,1","CORN CROP,CORN CROP,CORN CROP,CORN CROP,WHEAT CROP,WHEAT CROP,WHEAT CROP,WHEAT CROP","0,0,0,0,0,0,0,0","20,20,20,20,20,20,20,20","10,10,10,10,10,10,10,10","20,20,20,20,20,20,20,20","20,20,20,20,20,20,20,20","20,20,20,20,20,20,20,20","0,0,0,0,0,0,0,0","20,20,20,20,20,20,20,20","10,10,10,10,10,10,10,10","20,20,20,20,20,20,20,20","20,20,20,20,20,20,20,20","20,20,20,20,20,20,20,20","1,0,0,0,0,0,0,1","2610,1253,1588,548,1085,342,397,1413","78.74787922080196,20.676631633950567,-7.550895093035157,-7.582253234536463,-10.737086735896161,-17.93503370160665,3.55251560539224,12.568701470802395","30.379723694860544,-39.53784320552586,-19.946119196204727,-27.96030528406924,3.077614931896797,-20.578466314098595,18.63018208769057,36.7066132797005","0","0"
"496","86","text","0","95","724577","0-0","","","","","","","","","","","","","","","","","","","","","","","","","","","","","","","","","","","","",""
"","","plant-game","0","96","730576","0-0","","200","180","2","CORN CROP","Left","200","180","2","NETTLE WEED","experimental","35","1,2","180,192.8979844671392","2,1","CORN CROP,CORN CROP","180,166.44941555382508","2,1","NETTLE WEED,NETTLE WEED","20,20","20,20","10,10","20,20","0,0","20,20","20,20","20,20","10,10","20,20","0,0","20,20","1,1","2915,478","12.897984467139185,-7.558747431454242","-13.55058444617493,9.76635199964601","0","0"
"327","86","text","0","97","731016","0-0","","","","","","","","","","","","","","","","","","","","","","","","","","","","","","","","","","","","",""
"","","plant-game","0","98","743992","0-0","","200","120","8","WHEAT CROP","Left","200","190","1","NETTLE WEED","experimental","36","1,2,3,4,5,6,7,8","120,77.47350014540129,135.29856970062934,153.9468119171825,178.2768111663294,194.50808851480505,224.93589415175336,257.2787744631542","8,7,6,5,4,3,2,1","WHEAT CROP,WHEAT CROP,WHEAT CROP,WHEAT CROP,WHEAT CROP,WHEAT CROP,WHEAT CROP,WHEAT CROP","190,130,153.25527549216463,162.19349365431998,195.6136806036033,226.73786931807305,229.67603326600695,246.45731808674782","1,7,6,5,4,3,2,1","NETTLE WEED,THISTLE WEED,THISTLE WEED,THISTLE WEED,THISTLE WEED,THISTLE WEED,THISTLE WEED,THISTLE WEED","20,20,20,20,20,20,20,20","20,20,20,20,20,20,20,20","10,10,10,10,10,10,10,10","20,20,20,20,20,20,20,20","0,0,0,0,0,0,0,0","20,20,20,20,20,20,20,20","20,20,20,20,20,20,20,20","20,20,20,20,20,20,20,20","10,10,10,10,10,10,10,10","20,20,20,20,20,20,20,20","0,0,0,0,0,0,0,0","20,20,20,20,20,20,20,20","1,0,0,0,1,0,0,0","3213,2231,215,319,815,807,55,584","-42.52649985459871,57.82506955522805,18.648242216553136,24.32999924914691,16.231277348475647,30.427805636948293,32.34288031140083,14.545371777324313","-2.319571615218556,23.255275492164618,8.93821816215534,33.420186949283334,31.12418871446975,2.9381639479339015,16.78128482074085,5.441980298224749","0","0"
"424","86","text","0","99","744537","0-0","","","","","","","","","","","","","","","","","","","","","","","","","","","","","","","","","","","","",""
"","","plant-game","0","100","756161","0-0","","200","160","2","WHEAT CROP","Left","200","120","4","NETTLE WEED","experimental","37","1,2,3,4","160,159.40517568394702,180,173.8723690329575","2,1,2,1","WHEAT CROP,WHEAT CROP,CORN CROP,CORN CROP","120,142.5456209331763,148.43466901971783,184.45964156439038","4,3,2,1","NETTLE WEED,NETTLE WEED,NETTLE WEED,NETTLE WEED","20,20,20,20","20,20,20,20","10,10,10,10","20,20,20,20","0,0,0,0","20,20,20,20","20,20,20,20","20,20,20,20","10,10,10,10","20,20,20,20","0,0,0,0","20,20,20,20","0,0,1,1","3733,1159,1167,1343","-0.5948243160529856,51.829346007447725,-6.1276309670424975,44.06751532702941","22.545620933176302,5.8890480865415356,36.024972544672565,13.611332846774856","0","0"
"432","86","text","0","101","756713","0-0","","","","","","","","","","","","","","","","","","","","","","","","","","","","","","","","","","","","",""
"","","plant-game","0","102","769504","0-0","","200","190","2","WHEAT CROP","Left","200","190","1","THISTLE WEED","experimental","38","1,2","190,156.9791181365906","2,1","WHEAT CROP,WHEAT CROP","190,190","1,1","THISTLE WEED,NETTLE WEED","20,20","20,20","10,10","20,20","0,0","20,20","20,20","20,20","10,10","20,20","0,0","20,20","1,0","4052,4167","-33.02088186340937,18.659544824413338","-32.36410602480551,35.682138946063745","0","0"
"392","86","text","0","103","770008","0-0","","","","","","","","","","","","","","","","","","","","","","","","","","","","","","","","","","","","",""
"","","plant-game","0","104","779376","0-0","","200","180","2","CORN CROP","Right","200","180","1","NETTLE WEED","experimental","39","1,2","180,190","1,1","NETTLE WEED,THISTLE WEED","180,152.5440527324755","2,1","CORN CROP,CORN CROP","0,0","20,20","10,10","20,20","20,20","20,20","0,0","20,20","10,10","20,20","20,20","20,20","0,0","3382,2095","24.348311488915435,-34.237167298541095","-27.455947267524504,-21.372944243406057","0","0"
"352","86","text","0","105","779848","0-0","","","","","","","","","","","","","","","","","","","","","","","","","","","","","","","","","","","","",""
"","","plant-game","0","106","791526","0-0","","200","160","8","WHEAT CROP","Left","200","190","2","THISTLE WEED","experimental","40","1,2,3,4,5,6,7,8","160,170.74071500134204,148.8069451305383,170.87799298950702,185.2344343543111,232.18211736887815,258.3646605626678,267.2822293873681","8,7,6,5,4,3,2,1","WHEAT CROP,WHEAT CROP,WHEAT CROP,WHEAT CROP,WHEAT CROP,WHEAT CROP,WHEAT CROP,WHEAT CROP","190,185.76061603517664,140,138.87403195832232,117.9571442831561,121.19366624866778,106.97956587015678,106.91880371721543","2,1,6,5,4,3,2,1","THISTLE WEED,THISTLE WEED,NETTLE WEED,NETTLE WEED,NETTLE WEED,NETTLE WEED,NETTLE WEED,NETTLE WEED","20,20,20,20,20,20,20,20","20,20,20,20,20,20,20,20","10,10,10,10,10,10,10,10","20,20,20,20,20,20,20,20","0,0,0,0,0,0,0,0","20,20,20,20,20,20,20,20","20,20,20,20,20,20,20,20","20,20,20,20,20,20,20,20","10,10,10,10,10,10,10,10","20,20,20,20,20,20,20,20","0,0,0,0,0,0,0,0","20,20,20,20,20,20,20,20","1,1,0,0,0,1,1,1","2813,396,1382,423,399,1007,440,464","10.740715001342044,-21.933769870803737,22.07104785896872,14.356441364804088,46.94768301456705,26.18254319378963,8.917568824700313,15.091106235224466","-4.239383964823374,-21.619998730489307,-1.1259680416776874,-20.916887675166222,3.236521965511688,-14.21410037851101,-0.060762152941345265,15.751555376464246","0","0"
"432","86","text","0","107","792045","0-0","","","","","","","","","","","","","","","","","","","","","","","","","","","","","","","","","","","","",""
"","","plant-game","0","108","805149","0-0","","200","160","8","CORN CROP","Right","200","180","1","NETTLE WEED","experimental","41","1,2,3,4,5,6,7,8","180,130,131.01595824936595,150.15880956161294,175.97892624632223,196.29260607196792,196.255068185933,204.14031808159996","1,7,6,5,4,3,2,1","NETTLE WEED,THISTLE WEED,THISTLE WEED,THISTLE WEED,THISTLE WEED,THISTLE WEED,THISTLE WEED,THISTLE WEED","160,154.6350348722348,149.76246674332668,151.22489706737755,143.474865013913,184.0156987337724,194.8935769137223,203.86324401359312","8,7,6,5,4,3,2,1","CORN CROP,CORN CROP,CORN CROP,CORN CROP,CORN CROP,CORN CROP,CORN CROP,CORN CROP","0,0,0,0,0,0,0,0","20,20,20,20,20,20,20,20","10,10,10,10,10,10,10,10","20,20,20,20,20,20,20,20","20,20,20,20,20,20,20,20","20,20,20,20,20,20,20,20","0,0,0,0,0,0,0,0","20,20,20,20,20,20,20,20","10,10,10,10,10,10,10,10","20,20,20,20,20,20,20,20","20,20,20,20,20,20,20,20","20,20,20,20,20,20,20,20","0,1,1,1,1,1,0,0","3253,814,391,326,455,799,1943,957","-7.889194473784711,1.0159582493659585,19.14285131224699,25.820116684709294,20.313679825645686,-0.037537886034925805,7.885249895666972,-14.314168000699024","-5.364965127765192,-4.872568128908107,1.4624303240508745,-7.750032053464576,40.54083371985942,10.877878179949908,8.969667099870813,-0.5326665606613077","0","0"
"448","86","text","0","109","805677","0-0","","","","","","","","","","","","","","","","","","","","","","","","","","","","","","","","","","","","",""
"","","plant-game","0","110","811333","0-0","","200","160","2","WHEAT CROP","Left","200","160","2","THISTLE WEED","experimental","42","1,2","160,170.50000780306166","2,1","WHEAT CROP,WHEAT CROP","160,192.8559670762313","2,1","THISTLE WEED,THISTLE WEED","20,20","20,20","10,10","20,20","0,0","20,20","20,20","20,20","10,10","20,20","0,0","20,20","0,1","2661,903","10.500007803061667,-17.860524886069477","32.8559670762313,8.945350510894205","0","0"
"392","86","text","0","111","811797","0-0","","","","","","","","","","","","","","","","","","","","","","","","","","","","","","","","","","","","",""
"","","plant-game","0","112","819909","0-0","","200","180","4","WHEAT CROP","Right","200","180","1","THISTLE WEED","experimental","43","1,2,3,4","180,170,180.88323941915317,177.72771284027218","1,3,2,1","THISTLE WEED,NETTLE WEED,NETTLE WEED,NETTLE WEED","180,160.33650250562712,178.6943328695187,218.6976207253788","4,3,2,1","WHEAT CROP,WHEAT CROP,WHEAT CROP,WHEAT CROP","0,0,0,0","20,20,20,20","10,10,10,10","20,20,20,20","20,20,20,20","20,20,20,20","0,0,0,0","20,20,20,20","10,10,10,10","20,20,20,20","20,20,20,20","20,20,20,20","0,1,1,0","2325,1207,414,831","-31.482343220357958,10.883239419153172,-3.155526578881002,-0.36785900921540005","-19.663497494372887,18.357830363891562,40.00328785586013,13.670555844466197","0","0"
"360","86","text","0","113","820373","0-0","","","","","","","","","","","","","","","","","","","","","","","","","","","","","","","","","","","","",""
"","","plant-game","0","114","831829","0-0","","200","190","1","WHEAT CROP","Right","200","120","8","THISTLE WEED","experimental","44","1,2,3,4,5,6,7,8","120,125.09505985718363,171.18113471631358,167.68220305807984,192.385133746456,219.15899346567426,197.1948957670398,211.78788240061155","8,7,6,5,4,3,2,1","THISTLE WEED,THISTLE WEED,THISTLE WEED,THISTLE WEED,THISTLE WEED,THISTLE WEED,THISTLE WEED,THISTLE WEED","190,130,170.72114093281454,169.36584070558413,172.4818405228629,154.53328333422212,152.11109986347745,131.76573002487166","1,7,6,5,4,3,2,1","WHEAT CROP,CORN CROP,CORN CROP,CORN CROP,CORN CROP,CORN CROP,CORN CROP,CORN CROP","0,0,0,0,0,0,0,0","20,20,20,20,20,20,20,20","10,10,10,10,10,10,10,10","20,20,20,20,20,20,20,20","20,20,20,20,20,20,20,20","20,20,20,20,20,20,20,20","0,0,0,0,0,0,0,0","20,20,20,20,20,20,20,20","10,10,10,10,10,10,10,10","20,20,20,20,20,20,20,20","20,20,20,20,20,20,20,20","20,20,20,20,20,20,20,20","1,1,1,1,0,0,0,0","2820,1614,606,422,670,559,287,847","5.095059857183621,46.08607485912994,-3.4989316582337295,24.702930688376156,26.77385971921826,-21.964097698634454,14.592986633571737,10.31715738779548","13.291038144311017,40.72114093281455,-1.3553002272303907,3.1159998172787695,-17.948557188640777,-2.422183470744657,-20.345369838605798,-17.609035396106506","0","0"
"80","86","text","0","115","831997","0-0","","","","","","","","","","","","","","","","","","","","","","","","","","","","","","","","","","","","",""
"","","plant-game","0","116","845689","0-0","","200","180","8","CORN CROP","Right","200","190","1","NETTLE WEED","experimental","45","1,2,3,4,5,6,7,8","190,130,149.5238700102163,205.15587159049,224.72057985850788,234.72973705141038,285.0904242664645,308.9341304718954","1,7,6,5,4,3,2,1","NETTLE WEED,THISTLE WEED,THISTLE WEED,THISTLE WEED,THISTLE WEED,THISTLE WEED,THISTLE WEED,THISTLE WEED","180,153.03238690738436,162.32694722972082,192.53084382535403,232.38989858699648,225.1953118226261,177.7166331738172,176.01579844484058","8,7,6,5,4,3,2,1","CORN CROP,CORN CROP,CORN CROP,CORN CROP,CORN CROP,CORN CROP,CORN CROP,CORN CROP","0,0,0,0,0,0,0,0","20,20,20,20,20,20,20,20","10,10,10,10,10,10,10,10","20,20,20,20,20,20,20,20","20,20,20,20,20,20,20,20","20,20,20,20,20,20,20,20","0,0,0,0,0,0,0,0","20,20,20,20,20,20,20,20","10,10,10,10,10,10,10,10","20,20,20,20,20,20,20,20","20,20,20,20,20,20,20,20","20,20,20,20,20,20,20,20","0,1,1,1,0,0,0,0","3205,895,1599,654,638,415,720,1047","-8.603469566202357,19.523870010216317,55.632001580273666,19.564708268017874,10.00915719290251,50.3606872150541,23.843706205430912,-4.447688078518873","-26.967613092615636,9.294560322336437,30.20389659563322,39.85905476164247,-7.194586764370365,-47.478678648808916,-1.700834728976608,9.539488609999376","0","0"
"400","86","text","0","117","846209","0-0","","","","","","","","","","","","","","","","","","","","","","","","","","","","","","","","","","","","",""
"","","plant-game","0","118","859448","0-0","","200","190","8","WHEAT CROP","Left","200","160","4","THISTLE WEED","experimental","46","1,2,3,4,5,6,7,8","190,166.27160576718728,192.40328433089886,197.93100409194872,192.60953616977645,179.3666017114886,167.7683771778823,175.0337317535049","8,7,6,5,4,3,2,1","WHEAT CROP,WHEAT CROP,WHEAT CROP,WHEAT CROP,WHEAT CROP,WHEAT CROP,WHEAT CROP,WHEAT CROP","160,184.9883101291453,180.93842785941462,167.16015579270336,160,192.12931313545351,161.40689886512246,221.4176080612204","4,3,2,1,4,3,2,1","THISTLE WEED,THISTLE WEED,THISTLE WEED,THISTLE WEED,NETTLE WEED,NETTLE WEED,NETTLE WEED,NETTLE WEED","20,20,20,20,20,20,20,20","20,20,20,20,20,20,20,20","10,10,10,10,10,10,10,10","20,20,20,20,20,20,20,20","0,0,0,0,0,0,0,0","20,20,20,20,20,20,20,20","20,20,20,20,20,20,20,20","20,20,20,20,20,20,20,20","10,10,10,10,10,10,10,10","20,20,20,20,20,20,20,20","0,0,0,0,0,0,0,0","20,20,20,20,20,20,20,20","1,1,1,1,0,1,0,1","4309,799,351,359,1190,1031,583,805","-23.728394232812718,26.131678563711564,5.527719761049856,-5.3214679221722685,-13.242934458287849,-11.598224533606338,7.2653545756226166,-20.49633578681231","24.98831012914529,-4.049882269730689,-13.778272066711265,-19.134720448912212,32.12931313545352,-30.722414270331054,60.01070919609794,8.463395765693404","0","0"
"360","86","text","0","119","859928","0-0","","","","","","","","","","","","","","","","","","","","","","","","","","","","","","","","","","","","",""
"","","plant-game","0","120","870824","0-0","","200","160","1","CORN CROP","Left","200","180","2","THISTLE WEED","experimental","47","1,2","160,190","1,1","CORN CROP,WHEAT CROP","180,180.02460082797177","2,1","THISTLE WEED,THISTLE WEED","20,20","20,20","10,10","20,20","0,0","20,20","20,20","20,20","10,10","20,20","0,0","20,20","0,0","4020,2712","3.5697366897820686,-18.899316664549993","0.02460082797177421,-1.0672595611340654","0","0"
"455","86","text","0","121","871400","0-0","","","","","","","","","","","","","","","","","","","","","","","","","","","","","","","","","","","","",""
"","","plant-game","0","122","884937","0-0","","200","160","1","WHEAT CROP","Right","200","180","8","NETTLE WEED","experimental","48","1,2,3,4,5,6,7,8","180,209.4761198189573,209.12677317658785,233.61680989304696,219.46785084321775,234.16757370696982,230.31828535514632,258.51263060958877","8,7,6,5,4,3,2,1","NETTLE WEED,NETTLE WEED,NETTLE WEED,NETTLE WEED,NETTLE WEED,NETTLE WEED,NETTLE WEED,NETTLE WEED","160,130,129.20195689216803,146.4247842357453,166.7434051955259,184.52938875830793,181.9238396708432,218.3188161622396","1,7,6,5,4,3,2,1","WHEAT CROP,CORN CROP,CORN CROP,CORN CROP,CORN CROP,CORN CROP,CORN CROP,CORN CROP","0,0,0,0,0,0,0,0","20,20,20,20,20,20,20,20","10,10,10,10,10,10,10,10","20,20,20,20,20,20,20,20","20,20,20,20,20,20,20,20","20,20,20,20,20,20,20,20","0,0,0,0,0,0,0,0","20,20,20,20,20,20,20,20","10,10,10,10,10,10,10,10","20,20,20,20,20,20,20,20","20,20,20,20,20,20,20,20","20,20,20,20,20,20,20,20","1,0,0,0,0,0,1,1","3157,1831,399,87,78,439,872,2047","29.476119818957297,-0.34934664236944424,24.490036716459116,-14.148959049829228,14.699722863752063,-3.8492883518234993,28.19434525444245,1.789553382003497","19.731121959644813,-0.7980431078319816,17.22282734357728,20.318620959780574,17.785983562782047,-2.6055490874647314,36.394976491396406,40.379280495910514","0","0"
"1504","86","text","0","123","886568","0-0","","","","","","","","","","","","","","","","","","","","","","","","","","","","","","","","","","","","",""
"","","plant-game","0","124","893744","0-0","","200","120","1","WHEAT CROP","Right","200","120","2","THISTLE WEED","experimental","49","1,2","120,143.46859953963494","2,1","THISTLE WEED,THISTLE WEED","120,190","1,1","WHEAT CROP,CORN CROP","0,0","20,20","10,10","20,20","20,20","20,20","0,0","20,20","10,10","20,20","20,20","20,20","1,1","2277,1527","23.468599539634926,11.464639690618217","18.96723168185019,28.276946207159256","0","0"
"464","86","text","0","125","894312","0-0","","","","","","","","","","","","","","","","","","","","","","","","","","","","","","","","","","","","",""
"","","plant-game","0","126","902208","0-0","","200","120","4","CORN CROP","Right","200","190","1","THISTLE WEED","experimental","50","1,2,3,4","190,170,218.3832023053567,202.6369457366812","1,3,2,1","THISTLE WEED,NETTLE WEED,NETTLE WEED,NETTLE WEED","120,139.2097306387821,164.07380508002845,155.95997733839124","4,3,2,1","CORN CROP,CORN CROP,CORN CROP,CORN CROP","0,0,0,0","20,20,20,20","10,10,10,10","20,20,20,20","20,20,20,20","20,20,20,20","0,0,0,0","20,20,20,20","10,10,10,10","20,20,20,20","20,20,20,20","20,20,20,20","0,1,1,1","1845,1599,584,487","16.772510283911444,48.3832023053567,-15.746256568675484,8.390842312418856","19.209730638782116,24.864074441246355,-8.113827741637209,0.15523365443169723","0","0"
"104","86","text","0","127","902440","0-0","","","","","","","","","","","","","","","","","","","","","","","","","","","","","","","","","","","","",""
"","","plant-game","0","128","914101","0-0","","200","180","8","WHEAT CROP","Right","200","180","4","NETTLE WEED","experimental","51","1,2,3,4,5,6,7,8","180,200.01968074123684,180.74179288492002,205.24587415869706,160,163.68908744568697,184.7837215332257,215.1643077379816","4,3,2,1,4,3,2,1","NETTLE WEED,NETTLE WEED,NETTLE WEED,NETTLE WEED,THISTLE WEED,THISTLE WEED,THISTLE WEED,THISTLE WEED","180,178.26946113326088,194.05662406608815,170.68932456985087,207.75522623457582,289.35842732015135,283.6497397157006,281.5109642198535","8,7,6,5,4,3,2,1","WHEAT CROP,WHEAT CROP,WHEAT CROP,WHEAT CROP,WHEAT CROP,WHEAT CROP,WHEAT CROP,WHEAT CROP","0,0,0,0,0,0,0,0","20,20,20,20,20,20,20,20","10,10,10,10,10,10,10,10","20,20,20,20,20,20,20,20","20,20,20,20,20,20,20,20","20,20,20,20,20,20,20,20","0,0,0,0,0,0,0,0","20,20,20,20,20,20,20,20","10,10,10,10,10,10,10,10","20,20,20,20,20,20,20,20","20,20,20,20,20,20,20,20","20,20,20,20,20,20,20,20","0,0,0,0,1,0,0,0","2810,487,222,887,1214,487,455,624","20.019680741236847,-19.277887856316816,24.504081273777054,30.815725946642125,3.6890874456869724,21.094634087538747,30.38058620475589,-0.7866997739205034","-1.730538866739121,15.78716293282726,-23.36729949623727,37.06590166472494,81.60320108557556,-5.708687604450766,-2.1387754958470673,28.4214678483143","0","0"
"272","86","text","0","129","914470","0-0","","","","","","","","","","","","","","","","","","","","","","","","","","","","","","","","","","","","",""
"","","plant-game","0","130","930389","0-0","","200","190","4","CORN CROP","Left","200","180","8","NETTLE WEED","experimental","52","1,2,3,4,5,6,7,8","190,184.13519247832255,171.87855043769287,214.89437854056234,160,137.14056673684405,165.61359430618072,188.8325282614906","4,3,2,1,4,3,2,1","CORN CROP,CORN CROP,CORN CROP,CORN CROP,WHEAT CROP,WHEAT CROP,WHEAT CROP,WHEAT CROP","180,197.10539221135693,219.79877215736522,242.85263451100636,247.04076870184636,252.30233846375643,276.44146140195755,265.5091586998378","8,7,6,5,4,3,2,1","NETTLE WEED,NETTLE WEED,NETTLE WEED,NETTLE WEED,NETTLE WEED,NETTLE WEED,NETTLE WEED,NETTLE WEED","20,20,20,20,20,20,20,20","20,20,20,20,20,20,20,20","10,10,10,10,10,10,10,10","20,20,20,20,20,20,20,20","0,0,0,0,0,0,0,0","20,20,20,20,20,20,20,20","20,20,20,20,20,20,20,20","20,20,20,20,20,20,20,20","10,10,10,10,10,10,10,10","20,20,20,20,20,20,20,20","0,0,0,0,0,0,0,0","20,20,20,20,20,20,20,20","1,0,0,1,1,0,0,0","4188,2167,559,1063,2567,847,352,416","-5.864807521677458,-12.256642040629679,43.01582810286946,-6.131347607589145,-22.859433263155942,28.47302756933666,23.21893395530988,13.805474903243034","17.10539221135693,22.6933799460083,23.05386235364114,4.188134190840004,5.261569761910067,24.139122938201112,-10.93230270211972,0.8996076164716129","0","0"
"464","86","text","0","131","930958","0-0","","","","","","","","","","","","","","","","","","","","","","","","","","","","","","","","","","","","",""
"","","plant-game","0","132","937997","0-0","","200","160","2","WHEAT CROP","Right","200","180","2","NETTLE WEED","experimental","53","1,2","180,152.1540952459055","2,1","NETTLE WEED,NETTLE WEED","160,140.93649549892723","2,1","WHEAT CROP,WHEAT CROP","0,0","20,20","10,10","20,20","20,20","20,20","0,0","20,20","10,10","20,20","20,20","20,20","0,0","3692,1255","-27.845904754094512,-26.380322863683837","-19.063504501072774,2.0096817409064154","0","0"
"240","86","text","0","133","938357","0-0","","","","","","","","","","","","","","","","","","","","","","","","","","","","","","","","","","","","",""
"","","plant-game","0","134","946628","0-0","","200","120","4","WHEAT CROP","Right","200","120","2","THISTLE WEED","experimental","54","1,2,3,4","120,118.78196581495199,180,197.66289259156508","2,1,2,1","THISTLE WEED,THISTLE WEED,NETTLE WEED,NETTLE WEED","120,111.61880083076613,116.40033296716368,99.92462903653464","4,3,2,1","WHEAT CROP,WHEAT CROP,WHEAT CROP,WHEAT CROP","0,0,0,0","20,20,20,20","10,10,10,10","20,20,20,20","20,20,20,20","20,20,20,20","0,0,0,0","20,20,20,20","10,10,10,10","20,20,20,20","20,20,20,20","20,20,20,20","0,0,0,0","2596,375,1207,703","-1.218034185048014,-15.640095859751185,17.662892591565075,-7.163152897057859","-8.381199169233867,4.781532136397546,-16.475703930629045,22.25020491488239","0","0"
"319","86","text","0","135","947044","0-0","","","","","","","","","","","","","","","","","","","","","","","","","","","","","","","","","","","","",""
"","","plant-game","0","136","955741","0-0","","200","180","2","WHEAT CROP","Right","200","120","8","THISTLE WEED","experimental","55","1,2,3,4,5,6,7,8","120,139.65504255575132,161.2297129364404,175.68416904472883,183.96669128061205,210.88504956864054,230.0757960321215,258.29289756112695","8,7,6,5,4,3,2,1","THISTLE WEED,THISTLE WEED,THISTLE WEED,THISTLE WEED,THISTLE WEED,THISTLE WEED,THISTLE WEED,THISTLE WEED","180,231.65276208299497,140,156.72439825388415,139.61342304752452,136.28591590437998,137.64276284697593,150.9721488990259","2,1,6,5,4,3,2,1","WHEAT CROP,WHEAT CROP,CORN CROP,CORN CROP,CORN CROP,CORN CROP,CORN CROP,CORN CROP","0,0,0,0,0,0,0,0","20,20,20,20,20,20,20,20","10,10,10,10,10,10,10,10","20,20,20,20,20,20,20,20","20,20,20,20,20,20,20,20","20,20,20,20,20,20,20,20","0,0,0,0,0,0,0,0","20,20,20,20,20,20,20,20","10,10,10,10,10,10,10,10","20,20,20,20,20,20,20,20","20,20,20,20,20,20,20,20","20,20,20,20,20,20,20,20","1,1,0,0,0,0,1,1","1996,542,822,310,383,479,551,64","19.65504255575132,21.57467038068907,14.454456108288436,8.282522235883231,26.91835828802848,19.19074646348096,28.217101529005433,34.82067749839604","51.65276208299498,19.191532361845624,16.724398253884143,-17.11097520635964,-3.3275071431445378,1.3568469425959528,13.329386052049982,9.829480124134427","0","0"
"72","86","text","0","137","955901","0-0","","","","","","","","","","","","","","","","","","","","","","","","","","","","","","","","","","","","",""
"","","plant-game","0","138","965045","0-0","","200","180","4","WHEAT CROP","Left","200","160","2","NETTLE WEED","experimental","56","1,2,3,4","180,175.23165632527008,161.54712151492322,187.4251947566811","4,3,2,1","WHEAT CROP,WHEAT CROP,WHEAT CROP,WHEAT CROP","160,240.7898019761872,180,206.54358895392247","2,1,2,1","NETTLE WEED,NETTLE WEED,THISTLE WEED,THISTLE WEED","20,20,20,20","20,20,20,20","10,10,10,10","20,20,20,20","0,0,0,0","20,20,20,20","20,20,20,20","20,20,20,20","10,10,10,10","20,20,20,20","0,0,0,0","20,20,20,20","0,1,0,0","2428,1343,1335,840","-4.76834367472993,-13.684534810346873,25.878073241757864,5.211110569038695","80.78980197618719,0.24089792455085438,26.54358895392246,10.35307413045237","0","0"
"360","86","text","0","139","965501","0-0","","","","","","","","","","","","","","","","","","","","","","","","","","","","","","","","","","","","",""
"","","plant-game","0","140","974105","0-0","","200","160","2","CORN CROP","Right","200","180","4","THISTLE WEED","experimental","57","1,2,3,4","180,207.94546258977573,207.38086256829388,214.55388380982743","4,3,2,1","THISTLE WEED,THISTLE WEED,THISTLE WEED,THISTLE WEED","160,176.81115412812707,180,178.62974482741862","2,1,2,1","CORN CROP,CORN CROP,WHEAT CROP,WHEAT CROP","0,0,0,0","20,20,20,20","10,10,10,10","20,20,20,20","20,20,20,20","20,20,20,20","0,0,0,0","20,20,20,20","10,10,10,10","20,20,20,20","20,20,20,20","20,20,20,20","1,1,0,0","3309,87,919,424","27.945462589775744,-0.5646000214818656,7.173021241533553,-10.372591759270078","16.811154128127082,27.326392976823886,-1.370255172581367,9.285613776319837","0","0"
"192","86","text","0","141","974425","0-0","","","","","","","","","","","","","","","","","","","","","","","","","","","","","","","","","","","","",""
"","","plant-game","0","142","983769","0-0","","200","160","4","CORN CROP","Left","200","120","2","NETTLE WEED","experimental","58","1,2,3,4","160,195.71352722688837,191.51536478205108,181.8201055573912","4,3,2,1","CORN CROP,CORN CROP,CORN CROP,CORN CROP","120,95.02647912379153,180,157.94263404053612","2,1,2,1","NETTLE WEED,NETTLE WEED,THISTLE WEED,THISTLE WEED","20,20,20,20","20,20,20,20","10,10,10,10","20,20,20,20","0,0,0,0","20,20,20,20","20,20,20,20","20,20,20,20","10,10,10,10","20,20,20,20","0,0,0,0","20,20,20,20","1,1,0,0","2493,535,1655,887","35.713527226888374,-4.198162444837298,-9.695259224659889,14.841322701254427","-24.97352087620847,2.8719305339559598,-22.05736595946388,30.925860994285504","0","0"
"416","86","text","0","143","984305","0-0","","","","","","","","","","","","","","","","","","","","","","","","","","","","","","","","","","","","",""
"","","plant-game","0","144","995089","0-0","","200","160","2","CORN CROP","Right","200","180","8","THISTLE WEED","experimental","59","1,2,3,4,5,6,7,8","180,225.08646873158614,266.1287824607035,231.14263727735823,230.72065259550635,228.79586279994263,197.33476060283823,178.6264176571488","8,7,6,5,4,3,2,1","THISTLE WEED,THISTLE WEED,THISTLE WEED,THISTLE WEED,THISTLE WEED,THISTLE WEED,THISTLE WEED,THISTLE WEED","160,203.76615012453664,140,130.64355990182347,129.6195175547676,129.55513854401525,115.6185219970646,70.52918742331985","2,1,6,5,4,3,2,1","CORN CROP,CORN CROP,WHEAT CROP,WHEAT CROP,WHEAT CROP,WHEAT CROP,WHEAT CROP,WHEAT CROP","0,0,0,0,0,0,0,0","20,20,20,20,20,20,20,20","10,10,10,10,10,10,10,10","20,20,20,20,20,20,20,20","20,20,20,20,20,20,20,20","20,20,20,20,20,20,20,20","0,0,0,0,0,0,0,0","20,20,20,20,20,20,20,20","10,10,10,10,10,10,10,10","20,20,20,20,20,20,20,20","20,20,20,20,20,20,20,20","20,20,20,20,20,20,20,20","1,1,0,0,0,0,0,0","2853,78,1703,367,399,344,119,808","45.08646873158612,41.04231372911741,-34.98614518334529,-0.4219846818518833,-1.9247897955637303,-31.46110219710438,-18.708342945689424,-2.168174075979753","43.76615012453665,1.440044826555745,-9.356440098176531,-1.0240423470558622,-0.06437901075235467,-13.936616546950649,-45.08933457374476,-0.22212717062924264","0","0"
"551","86","text","0","145","995737","0-0","","","","","","","","","","","","","","","","","","","","","","","","","","","","","","","","","","","","",""
"","","plant-game","0","146","1001385","0-0","","200","190","2","WHEAT CROP","Left","200","160","2","THISTLE WEED","experimental","60","1,2","190,190.38700399611912","2,1","WHEAT CROP,WHEAT CROP","160,175.9551444180637","2,1","THISTLE WEED,THISTLE WEED","20,20","20,20","10,10","20,20","0,0","20,20","20,20","20,20","10,10","20,20","0,0","20,20","0,1","2893,624","0.3870039961191054,-3.0346489456558197","15.955144418063705,-9.481724215721425","0","0"
"336","86","text","0","147","1001825","0-0","","","","","","","","","","","","","","","","","","","","","","","","","","","","","","","","","","","","",""
"","","plant-game","0","148","1008896","0-0","","200","180","4","CORN CROP","Left","200","190","4","THISTLE WEED","experimental","61","1,2,3,4","180,162.03739120515758,151.04966626061733,138.3035573313016","4,3,2,1","CORN CROP,CORN CROP,CORN CROP,CORN CROP","190,187.5961197967399,171.651705899037,204.00316825054063","4,3,2,1","THISTLE WEED,THISTLE WEED,THISTLE WEED,THISTLE WEED","20,20,20,20","20,20,20,20","10,10,10,10","20,20,20,20","0,0,0,0","20,20,20,20","20,20,20,20","20,20,20,20","10,10,10,10","20,20,20,20","0,0,0,0","20,20,20,20","1,1,1,1","2900,359,271,711","-17.962608794842435,-10.987724944540256,-12.74610892931574,32.95450692224344","-2.4038802032600852,-15.944413897702907,32.351462351503606,-4.906212840505029","0","0"
"599","86","text","0","149","1009609","0-0","","","","","","","","","","","","","","","","","","","","","","","","","","","","","","","","","","","","",""
"","","plant-game","0","150","1020585","0-0","","200","160","2","WHEAT CROP","Left","200","190","4","NETTLE WEED","experimental","62","1,2,3,4","160,179.31498580803083,180,132.45576563153926","2,1,2,1","WHEAT CROP,WHEAT CROP,CORN CROP,CORN CROP","190,211.47381440882398,198.63352130823702,187.54032422407084","4,3,2,1","NETTLE WEED,NETTLE WEED,NETTLE WEED,NETTLE WEED","20,20,20,20","20,20,20,20","10,10,10,10","20,20,20,20","0,0,0,0","20,20,20,20","20,20,20,20","20,20,20,20","10,10,10,10","20,20,20,20","0,0,0,0","20,20,20,20","1,1,1,1","2613,527,3958,719","19.31498580803083,-6.218265183341098,-47.544234368460735,-26.053593785745548","21.47381440882399,-12.840293100586956,-11.093197084166171,4.107761249967797","0","0"
"384","86","text","0","151","1021065","0-0","","","","","","","","","","","","","","","","","","","","","","","","","","","","","","","","","","","","",""
"","","plant-game","0","152","1032941","0-0","","200","190","8","CORN CROP","Right","200","180","1","NETTLE WEED","experimental","63","1,2,3,4,5,6,7,8","180,130,136.9654305569574,135.5557587237845,149.35213897903222,127.23903777586587,154.2164300834945,115.46654138262275","1,7,6,5,4,3,2,1","NETTLE WEED,THISTLE WEED,THISTLE WEED,THISTLE WEED,THISTLE WEED,THISTLE WEED,THISTLE WEED,THISTLE WEED","190,177.70387977353704,210.1851367110088,168.460933472942,195.04923946094203,219.57276567124907,236.76754147624686,268.2472046948404","8,7,6,5,4,3,2,1","CORN CROP,CORN CROP,CORN CROP,CORN CROP,CORN CROP,CORN CROP,CORN CROP,CORN CROP","0,0,0,0,0,0,0,0","20,20,20,20,20,20,20,20","10,10,10,10,10,10,10,10","20,20,20,20,20,20,20,20","20,20,20,20,20,20,20,20","20,20,20,20,20,20,20,20","0,0,0,0,0,0,0,0","20,20,20,20,20,20,20,20","10,10,10,10,10,10,10,10","20,20,20,20,20,20,20,20","20,20,20,20,20,20,20,20","20,20,20,20,20,20,20,20","0,1,0,1,1,1,0,0","2885,1019,876,639,463,1126,559,543","-1.9994304664750824,6.965430556957379,-1.409671833172905,13.796380255247731,-22.11310120316635,26.97739230762861,-38.749888700871736,-9.545028741533224","-12.29612022646296,32.48125693747174,-41.7242032380668,26.588305988000023,24.52352621030704,17.194775804997796,31.479663218593533,8.941248144978887","0","0"
"224","86","text","0","153","1033277","0-0","","","","","","","","","","","","","","","","","","","","","","","","","","","","","","","","","","","","",""
"","","plant-game","0","154","1040957","0-0","","200","190","2","WHEAT CROP","Right","200","160","1","THISTLE WEED","experimental","64","1,2","160,190","1,1","THISTLE WEED,NETTLE WEED","190,192.11017876065063","2,1","WHEAT CROP,WHEAT CROP","0,0","20,20","10,10","20,20","20,20","20,20","0,0","20,20","10,10","20,20","20,20","20,20","0,1","2350,2015","2.418813444667488,52.434056656423984","2.1101787606506397,10.379809196886733","0","0"
"111","86","text","0","155","1041181","0-0","","","","","","","","","","","","","","","","","","","","","","","","","","","","","","","","","","","","",""
"","","plant-game","0","156","1054797","0-0","","200","190","8","CORN CROP","Left","200","180","2","NETTLE WEED","experimental","65","1,2,3,4,5,6,7,8","190,206.42043427959888,189.9737704648796,212.5004782618643,184.00622230389604,204.23884640435782,183.60682833639254,209.3664884855987","8,7,6,5,4,3,2,1","CORN CROP,CORN CROP,CORN CROP,CORN CROP,CORN CROP,CORN CROP,CORN CROP,CORN CROP","180,187.15070301985403,140,148.75150900561917,150.53263561553766,128.4342375085817,119.66778384110191,130.01853796732763","2,1,6,5,4,3,2,1","NETTLE WEED,NETTLE WEED,THISTLE WEED,THISTLE WEED,THISTLE WEED,THISTLE WEED,THISTLE WEED,THISTLE WEED","20,20,20,20,20,20,20,20","20,20,20,20,20,20,20,20","10,10,10,10,10,10,10,10","20,20,20,20,20,20,20,20","0,0,0,0,0,0,0,0","20,20,20,20,20,20,20,20","20,20,20,20,20,20,20,20","20,20,20,20,20,20,20,20","10,10,10,10,10,10,10,10","20,20,20,20,20,20,20,20","0,0,0,0,0,0,0,0","20,20,20,20,20,20,20,20","1,1,0,1,0,1,0,0","4013,78,1846,607,583,511,520,487","16.42043427959888,-16.446663814719262,22.526707796984688,-28.49425595796824,20.232624100461774,-20.632018067965273,25.759660149206148,28.165919907434436","7.150703019854042,-4.917225348260321,8.75150900561916,1.7811266099184926,-22.09839810695597,-8.766453667479798,10.35075412622573,13.004525655845313","0","0"
"608","86","text","0","157","1055502","0-0","","","","","","","","","","","","","","","","","","","","","","","","","","","","","","","","","","","","",""
"","","plant-game","0","158","1067557","0-0","","200","160","8","WHEAT CROP","Right","200","190","4","THISTLE WEED","experimental","66","1,2,3,4,5,6,7,8","190,185.5989161230577,168.832328941044,162.0211966393572,160,162.53812081880056,154.53544095295592,148.3123707536535","4,3,2,1,4,3,2,1","THISTLE WEED,THISTLE WEED,THISTLE WEED,THISTLE WEED,NETTLE WEED,NETTLE WEED,NETTLE WEED,NETTLE WEED","160,164.46631074888145,126.62075009103637,108.89860285614827,114.30726688783079,150.582289557834,157.4845303499461,188.39659380996025","8,7,6,5,4,3,2,1","WHEAT CROP,WHEAT CROP,WHEAT CROP,WHEAT CROP,WHEAT CROP,WHEAT CROP,WHEAT CROP,WHEAT CROP","0,0,0,0,0,0,0,0","20,20,20,20,20,20,20,20","10,10,10,10,10,10,10,10","20,20,20,20,20,20,20,20","20,20,20,20,20,20,20,20","20,20,20,20,20,20,20,20","0,0,0,0,0,0,0,0","20,20,20,20,20,20,20,20","10,10,10,10,10,10,10,10","20,20,20,20,20,20,20,20","20,20,20,20,20,20,20,20","20,20,20,20,20,20,20,20","0,0,0,0,1,1,1,1","3156,335,430,327,1990,751,487,447","-4.401083876942286,-16.76658718201368,-6.811132301686791,-26.956034610946492,2.53812081880055,-8.002679865844652,-6.223070199302416,42.45506281072666","4.466310748881453,-37.84556065784508,-17.72214723488809,5.408664031682514,36.27502267000321,6.902240792112121,30.91206346001413,8.666062640317161","0","0"
"336","86","text","0","159","1067989","0-0","","","","","","","","","","","","","","","","","","","","","","","","","","","","","","","","","","","","",""
"","","plant-game","0","160","1078709","0-0","","200","190","2","WHEAT CROP","Right","200","180","8","NETTLE WEED","experimental","67","1,2,3,4,5,6,7,8","180,170.6656740282885,151.32470121866896,141.40412191346567,136.75222908364802,114.22031155647625,103.58523353982883,99.4980080454943","8,7,6,5,4,3,2,1","NETTLE WEED,NETTLE WEED,NETTLE WEED,NETTLE WEED,NETTLE WEED,NETTLE WEED,NETTLE WEED,NETTLE WEED","190,234.1883186437173,140,133.40139926108117,145.4348992466222,155.13015262137918,152.927709221014,142.50722660025542","2,1,6,5,4,3,2,1","WHEAT CROP,WHEAT CROP,CORN CROP,CORN CROP,CORN CROP,CORN CROP,CORN CROP,CORN CROP","0,0,0,0,0,0,0,0","20,20,20,20,20,20,20,20","10,10,10,10,10,10,10,10","20,20,20,20,20,20,20,20","20,20,20,20,20,20,20,20","20,20,20,20,20,20,20,20","0,0,0,0,0,0,0,0","20,20,20,20,20,20,20,20","10,10,10,10,10,10,10,10","20,20,20,20,20,20,20,20","20,20,20,20,20,20,20,20","20,20,20,20,20,20,20,20","1,1,0,0,0,0,0,0","4470,70,1478,310,86,79,303,79","-9.334325971711497,-19.340972809619522,-9.92057930520329,-4.651892829817648,-22.531917527171764,-10.635078016647405,-4.087225494334537,-9.874633160625203","44.188318643717324,22.058650962098234,-6.598600738918828,12.033499985541017,9.695253374756973,-2.2024434003651807,-10.420482620758587,-16.21864015642611","0","0"
"64","86","text","0","161","1078877","0-0","","","","","","","","","","","","","","","","","","","","","","","","","","","","","","","","","","","","",""
"","","plant-game","0","162","1088361","0-0","","200","160","8","CORN CROP","Left","200","190","8","NETTLE WEED","experimental","68","1,2,3,4,5,6,7,8","160,170.74631161769923,203.0408320488388,217.4831841078249,216.5106559169572,231.77443995324907,234.72251148376256,230.7884753080377","8,7,6,5,4,3,2,1","CORN CROP,CORN CROP,CORN CROP,CORN CROP,CORN CROP,CORN CROP,CORN CROP,CORN CROP","190,191.49246845991632,179.76757862260374,172.22738589441087,177.3178811697608,172.87960216263912,206.4575756050639,198.94793657370118","8,7,6,5,4,3,2,1","NETTLE WEED,NETTLE WEED,NETTLE WEED,NETTLE WEED,NETTLE WEED,NETTLE WEED,NETTLE WEED,NETTLE WEED","20,20,20,20,20,20,20,20","20,20,20,20,20,20,20,20","10,10,10,10,10,10,10,10","20,20,20,20,20,20,20,20","0,0,0,0,0,0,0,0","20,20,20,20,20,20,20,20","20,20,20,20,20,20,20,20","20,20,20,20,20,20,20,20","10,10,10,10,10,10,10,10","20,20,20,20,20,20,20,20","0,0,0,0,0,0,0,0","20,20,20,20,20,20,20,20","1,1,1,1,1,1,1,1","3085,335,295,399,407,367,791,679","10.746311617699238,32.294520431139574,14.4423520589861,-0.972528190867705,15.263784036291867,2.948071530513486,-3.9340361757248594,-16.360890815321877","1.4924684599163145,-11.724889837312594,-7.540192728192858,5.090495275349928,-4.438279007121691,33.5779734424248,-7.509639031362731,-5.564266060828851","0","0"
"375","86","text","0","163","1088850","0-0","","","","","","","","","","","","","","","","","","","","","","","","","","","","","","","","","","","","",""
"","","plant-game","0","164","1099193","0-0","","200","160","8","WHEAT CROP","Right","200","180","4","THISTLE WEED","experimental","69","1,2,3,4,5,6,7,8","180,206.92390712744145,183.61201067750093,195.39294541329326,160,199.2404645141782,214.01711182616177,244.9439802921854","4,3,2,1,4,3,2,1","THISTLE WEED,THISTLE WEED,THISTLE WEED,THISTLE WEED,NETTLE WEED,NETTLE WEED,NETTLE WEED,NETTLE WEED","160,194.8997351987627,179.14900306938628,164.39418136311232,147.16768602890096,189.78270578946422,210.84765035619426,249.29269313195596","8,7,6,5,4,3,2,1","WHEAT CROP,WHEAT CROP,WHEAT CROP,WHEAT CROP,WHEAT CROP,WHEAT CROP,WHEAT CROP,WHEAT CROP","0,0,0,0,0,0,0,0","20,20,20,20,20,20,20,20","10,10,10,10,10,10,10,10","20,20,20,20,20,20,20,20","20,20,20,20,20,20,20,20","20,20,20,20,20,20,20,20","0,0,0,0,0,0,0,0","20,20,20,20,20,20,20,20","10,10,10,10,10,10,10,10","20,20,20,20,20,20,20,20","20,20,20,20,20,20,20,20","20,20,20,20,20,20,20,20","0,0,0,0,1,1,1,1","1868,86,103,438,895,591,839,1087","26.923907127441446,-23.311896449940516,11.780934735792322,-4.34760655425639,39.240464514178214,14.776647311983574,30.92686846602363,38.68117012905863","34.89973519876271,-15.750732129376422,-14.754821706273958,-17.226495334211368,42.61501976056327,21.06494456673005,38.445042775761685,59.95416423162564","0","0"
"472","86","text","0","165","1099761","0-0","","","","","","","","","","","","","","","","","","","","","","","","","","","","","","","","","","","","",""
"","","plant-game","0","166","1110249","0-0","","200","190","2","CORN CROP","Right","200","180","4","THISTLE WEED","experimental","70","1,2,3,4","180,246.9083544063557,293.0067028227435,267.06962412127154","4,3,2,1","THISTLE WEED,THISTLE WEED,THISTLE WEED,THISTLE WEED","190,214.60374462848705,180,184.84796452920997","2,1,2,1","CORN CROP,CORN CROP,WHEAT CROP,WHEAT CROP","0,0,0,0","20,20,20,20","10,10,10,10","20,20,20,20","20,20,20,20","20,20,20,20","0,0,0,0","20,20,20,20","10,10,10,10","20,20,20,20","20,20,20,20","20,20,20,20","1,1,0,0","5533,55,1303,71","66.9083544063557,46.09834841638778,-25.937078701471922,-4.0287627483906014","24.603744628487036,39.256552669150025,4.847964529209962,-23.464933768559565","0","0"
"424","86","text","0","167","1110769","0-0","","","","","","","","","","","","","","","","","","","","","","","","","","","","","","","","","","","","",""
"","","plant-game","0","168","1117232","0-0","","200","180","2","WHEAT CROP","Right","200","120","2","NETTLE WEED","experimental","71","1,2","120,139.80046604677779","2,1","NETTLE WEED,NETTLE WEED","180,193.52368643435994","2,1","WHEAT CROP,WHEAT CROP","0,0","20,20","10,10","20,20","20,20","20,20","0,0","20,20","10,10","20,20","20,20","20,20","1,1","3581,407","19.80046604677777,26.041687282358147","13.523686434359943,2.1374490000159803","0","0"
"360","86","text","0","169","1117665","0-0","","","","","","","","","","","","","","","","","","","","","","","","","","","","","","","","","","","","",""
"","","plant-game","0","170","1127961","0-0","","200","180","1","WHEAT CROP","Left","200","160","8","NETTLE WEED","experimental","72","1,2,3,4,5,6,7,8","180,130,159.31468604115378,110.72688396538337,124.14053971053978,123.21066956458344,82.4753088406031,89.73722360828565","1,7,6,5,4,3,2,1","WHEAT CROP,CORN CROP,CORN CROP,CORN CROP,CORN CROP,CORN CROP,CORN CROP,CORN CROP","160,170.67204496044013,156.11934583423195,149.96028703801665,165.63201828139228,177.8314662813934,174.37939860766272,188.1284816367921","8,7,6,5,4,3,2,1","NETTLE WEED,NETTLE WEED,NETTLE WEED,NETTLE WEED,NETTLE WEED,NETTLE WEED,NETTLE WEED,NETTLE WEED","20,20,20,20,20,20,20,20","20,20,20,20,20,20,20,20","10,10,10,10,10,10,10,10","20,20,20,20,20,20,20,20","0,0,0,0,0,0,0,0","20,20,20,20,20,20,20,20","20,20,20,20,20,20,20,20","20,20,20,20,20,20,20,20","10,10,10,10,10,10,10,10","20,20,20,20,20,20,20,20","0,0,0,0,0,0,0,0","20,20,20,20,20,20,20,20","0,1,1,1,1,1,1,1","2965,1078,230,246,695,383,367,455","13.453781858347078,29.314686041153763,-48.58780207577041,13.41365574515642,-0.929870145956338,-40.735360723980335,7.2619147676825415,-69.7567819445874","10.672044960440138,-14.552699126208182,-6.159058796215296,15.671731243375639,12.199448000001121,-3.45206767373067,13.749083029129368,-23.750203103080473","0","0"
"440","86","text","0","171","1128489","0-0","","","","","","","","","","","","","","","","","","","","","","","","","","","","","","","","","","","","",""
"","","plant-game","0","172","1136040","0-0","","200","160","4","WHEAT CROP","Right","200","120","4","THISTLE WEED","experimental","73","1,2,3,4","120,134.71931302971606,155.30317251140684,155.8067494675727","4,3,2,1","THISTLE WEED,THISTLE WEED,THISTLE WEED,THISTLE WEED","160,168.0040464922557,195.41462336307308,229.30423436072243","4,3,2,1","WHEAT CROP,WHEAT CROP,WHEAT CROP,WHEAT CROP","0,0,0,0","20,20,20,20","10,10,10,10","20,20,20,20","20,20,20,20","20,20,20,20","0,0,0,0","20,20,20,20","10,10,10,10","20,20,20,20","20,20,20,20","20,20,20,20","1,1,1,0","3797,335,479,470","14.719313029716064,20.583859481690766,0.5035769561658476,14.96229161171405","8.004046492255707,27.41057687081738,33.88961099764937,23.809594911653747","0","0"
"208","86","text","0","173","1136344","0-0","","","","","","","","","","","","","","","","","","","","","","","","","","","","","","","","","","","","",""
"","","plant-game","0","174","1147089","0-0","","200","190","1","CORN CROP","Left","200","190","8","NETTLE WEED","experimental","74","1,2,3,4,5,6,7,8","190,130,99.25963723134029,104.90027036611299,120.50172025843139,100.96322176227099,108.75486554750282,101.68158170807928","1,7,6,5,4,3,2,1","CORN CROP,WHEAT CROP,WHEAT CROP,WHEAT CROP,WHEAT CROP,WHEAT CROP,WHEAT CROP,WHEAT CROP","190,228.80689178836292,253.85992341744924,266.3982967055737,261.79228692462425,202.49862492357727,193.55921696058658,176.65292344552728","8,7,6,5,4,3,2,1","NETTLE WEED,NETTLE WEED,NETTLE WEED,NETTLE WEED,NETTLE WEED,NETTLE WEED,NETTLE WEED,NETTLE WEED","20,20,20,20,20,20,20,20","20,20,20,20,20,20,20,20","10,10,10,10,10,10,10,10","20,20,20,20,20,20,20,20","0,0,0,0,0,0,0,0","20,20,20,20,20,20,20,20","20,20,20,20,20,20,20,20","20,20,20,20,20,20,20,20","10,10,10,10,10,10,10,10","20,20,20,20,20,20,20,20","0,0,0,0,0,0,0,0","20,20,20,20,20,20,20,20","0,1,1,1,1,1,1,1","3766,798,247,215,159,119,1063,391","46.40084809314895,-30.74036276865971,5.6406331347726955,15.601449892318405,-19.538498496160393,7.791643785231832,-7.073283839423538,-6.178028353728689","38.80689178836291,25.053031629086313,12.5383732881245,-4.606009780949475,-59.29366200104698,-8.939407962990686,-16.906293515059318,-1.782863919636081","0","0"
"192","86","text","0","175","1147417","0-0","","","","","","","","","","","","","","","","","","","","","","","","","","","","","","","","","","","","",""
"","","plant-game","0","176","1157569","0-0","","200","160","2","CORN CROP","Left","200","120","8","NETTLE WEED","experimental","75","1,2,3,4,5,6,7,8","160,170.59876528178813,140,152.63217829719926,195.34668223366685,237.6471485799586,228.63055008332913,217.36639706861857","2,1,6,5,4,3,2,1","CORN CROP,CORN CROP,WHEAT CROP,WHEAT CROP,WHEAT CROP,WHEAT CROP,WHEAT CROP,WHEAT CROP","120,132.11994860452623,172.03888110576224,159.8007290667998,172.72689265124833,178.23035662982045,153.45091231842784,100.89189743183977","8,7,6,5,4,3,2,1","NETTLE WEED,NETTLE WEED,NETTLE WEED,NETTLE WEED,NETTLE WEED,NETTLE WEED,NETTLE WEED,NETTLE WEED","20,20,20,20,20,20,20,20","20,20,20,20,20,20,20,20","10,10,10,10,10,10,10,10","20,20,20,20,20,20,20,20","0,0,0,0,0,0,0,0","20,20,20,20,20,20,20,20","20,20,20,20,20,20,20,20","20,20,20,20,20,20,20,20","10,10,10,10,10,10,10,10","20,20,20,20,20,20,20,20","0,0,0,0,0,0,0,0","20,20,20,20,20,20,20,20","0,0,1,1,1,1,1,0","2675,71,1118,79,54,822,391,1519","10.59876528178814,7.529620405006019,12.632178297199271,42.71450393646759,42.30046634629176,-9.016598496629477,-11.26415301471056,11.3263539565042","12.11994860452622,39.91893250123603,-12.238152038962443,12.926163584448538,5.503463978572122,-24.77944431139262,-52.559014886588066,28.21036256134611","0","0"
"248","86","text","0","177","1157889","0-0","","","","","","","","","","","","","","","","","","","","","","","","","","","","","","","","","","","","",""
"","","plant-game","0","178","1163161","0-0","","200","160","1","WHEAT CROP","Right","200","160","1","NETTLE WEED","experimental","76","1","160","1","NETTLE WEED","160","1","WHEAT CROP","0","20","10","20","20","20","0","20","10","20","20","20","0","3045","-15.410193792645362","-14.306447521978578","0","0"
"384","86","text","0","179","1163657","0-0","","","","","","","","","","","","","","","","","","","","","","","","","","","","","","","","","","","","",""
"","","plant-game","0","180","1173024","0-0","","200","190","4","CORN CROP","Left","200","190","2","NETTLE WEED","experimental","77","1,2,3,4","190,186.78931699828297,181.7709911788501,174.3677923645132","4,3,2,1","CORN CROP,CORN CROP,CORN CROP,CORN CROP","190,189.70776524439245,180,243.1812959962666","2,1,2,1","NETTLE WEED,NETTLE WEED,THISTLE WEED,THISTLE WEED","20,20,20,20","20,20,20,20","10,10,10,10","20,20,20,20","0,0,0,0","20,20,20,20","20,20,20,20","20,20,20,20","10,10,10,10","20,20,20,20","0,0,0,0","20,20,20,20","1,1,0,0","3141,102,1679,935","-3.210683001717044,-5.018325819432876,-7.4031988143369,35.447939330888616","-0.2922347556075401,-13.471336134158767,63.1812959962666,52.63485295604756","0","0"
"168","86","text","0","181","1173344","0-0","","","","","","","","","","","","","","","","","","","","","","","","","","","","","","","","","","","","",""
"","","plant-game","0","182","1184424","0-0","","200","180","1","CORN CROP","Left","200","180","8","THISTLE WEED","experimental","78","1,2,3,4,5,6,7,8","180,130,105.80716413924179,126.01905093435904,171.68821651796884,207.25021695484708,224.82622449968494,251.29024799159893","1,7,6,5,4,3,2,1","CORN CROP,WHEAT CROP,WHEAT CROP,WHEAT CROP,WHEAT CROP,WHEAT CROP,WHEAT CROP,WHEAT CROP","180,223.60054570029553,201.75234900479265,169.48617668565393,187.0017233851896,168.42144479638966,153.61000893282804,147.16023158875424","8,7,6,5,4,3,2,1","THISTLE WEED,THISTLE WEED,THISTLE WEED,THISTLE WEED,THISTLE WEED,THISTLE WEED,THISTLE WEED,THISTLE WEED","20,20,20,20,20,20,20,20","20,20,20,20,20,20,20,20","10,10,10,10,10,10,10,10","20,20,20,20,20,20,20,20","0,0,0,0,0,0,0,0","20,20,20,20,20,20,20,20","20,20,20,20,20,20,20,20","20,20,20,20,20,20,20,20","10,10,10,10,10,10,10,10","20,20,20,20,20,20,20,20","0,0,0,0,0,0,0,0","20,20,20,20,20,20,20,20","0,1,1,0,1,1,0,1","2254,447,231,727,519,950,1296,879","25.29466558322305,-24.1928358607582,20.211886795117252,45.66916558360981,35.56200043687825,17.57600754483787,26.46402349191399,4.309571604987578","43.60054570029554,-21.848196695502878,-32.26617231913871,17.515546699535665,-18.580278588799935,-14.81143586356163,-6.4497773440738015,-19.11057114217133","0","0"
"416","86","text","0","183","1184960","0-0","","","","","","","","","","","","","","","","","","","","","","","","","","","","","","","","","","","","",""
"","","plant-game","0","184","1193185","0-0","","200","160","1","WHEAT CROP","Left","200","160","4","THISTLE WEED","experimental","79","1,2,3,4","160,170,178.9308565641076,188.62512269570507","1,3,2,1","WHEAT CROP,CORN CROP,CORN CROP,CORN CROP","160,166.0091307064546,202.03373355173264,190.08767827373615","4,3,2,1","THISTLE WEED,THISTLE WEED,THISTLE WEED,THISTLE WEED","20,20,20,20","20,20,20,20","10,10,10,10","20,20,20,20","0,0,0,0","20,20,20,20","20,20,20,20","20,20,20,20","10,10,10,10","20,20,20,20","0,0,0,0","20,20,20,20","0,0,1,0","2012,1334,503,495","18.127242762065457,8.930856564107582,9.694266131597491,16.843449996992632","6.009130706454622,36.02460284527803,-11.946055277996493,-2.549951171262851","0","0"
"360","86","text","0","185","1193689","0-0","","","","","","","","","","","","","","","","","","","","","","","","","","","","","","","","","","","","",""
"","","plant-game","0","186","1204616","0-0","","200","190","2","CORN CROP","Left","200","160","8","NETTLE WEED","experimental","80","1,2,3,4,5,6,7,8","190,209.00692673394744,140,139.48202968779418,136.5599688863234,130.81181205274524,134.18228974302582,120.6548566532743","2,1,6,5,4,3,2,1","CORN CROP,CORN CROP,WHEAT CROP,WHEAT CROP,WHEAT CROP,WHEAT CROP,WHEAT CROP,WHEAT CROP","160,211.03940694289918,205.4715450684109,214.32449995910395,201.10723192736526,223.6697443465609,237.79698201396778,225.59055840559265","8,7,6,5,4,3,2,1","NETTLE WEED,NETTLE WEED,NETTLE WEED,NETTLE WEED,NETTLE WEED,NETTLE WEED,NETTLE WEED,NETTLE WEED","20,20,20,20,20,20,20,20","20,20,20,20,20,20,20,20","10,10,10,10,10,10,10,10","20,20,20,20,20,20,20,20","0,0,0,0,0,0,0,0","20,20,20,20,20,20,20,20","20,20,20,20,20,20,20,20","20,20,20,20,20,20,20,20","10,10,10,10,10,10,10,10","20,20,20,20,20,20,20,20","0,0,0,0,0,0,0,0","20,20,20,20,20,20,20,20","0,1,1,1,1,1,1,1","2157,766,1590,430,374,447,1183,343","19.006926733947427,-10.716576573153882,-0.5179703122058302,-2.9220608014708,-5.748156833578148,3.3704776902805724,-13.527433089751518,-14.496627287294853","51.03940694289918,-5.567861874488261,8.852954890693052,-13.217268031738694,22.562512419195627,14.127237667406886,-12.20642360837514,28.387165767357917","0","0"
"96","86","text","0","187","1204824","0-0","","","","","","","","","","","","","","","","","","","","","","","","","","","","","","","","","","","","",""
"","","plant-game","0","188","1221699","0-0","","200","190","1","CORN CROP","Right","200","180","4","NETTLE WEED","experimental","81","1,2,3,4","180,229.4117239631021,230.04665475413282,252.4621033335591","4,3,2,1","NETTLE WEED,NETTLE WEED,NETTLE WEED,NETTLE WEED","190,170,195.66806542592772,189.74174366483444","1,3,2,1","CORN CROP,WHEAT CROP,WHEAT CROP,WHEAT CROP","0,0,0,0","20,20,20,20","10,10,10,10","20,20,20,20","20,20,20,20","20,20,20,20","0,0,0,0","20,20,20,20","10,10,10,10","20,20,20,20","20,20,20,20","20,20,20,20","1,0,0,0","11113,406,326,464","49.411723963102105,0.6349307910307138,22.415448579426275,-9.577399950059878","39.567587432979835,25.668065425927722,-5.92632176109327,13.927234253731118","0","0"
"464","86","text","0","189","1222267","0-0","","","","","","","","","","","","","","","","","","","","","","","","","","","","","","","","","","","","",""
"","","plant-game","0","190","1229379","0-0","","200","120","2","CORN CROP","Left","200","180","1","THISTLE WEED","experimental","82","1,2","120,135.04550776540776","2,1","CORN CROP,CORN CROP","180,190","1,1","THISTLE WEED,NETTLE WEED","20,20","20,20","10,10","20,20","0,0","20,20","20,20","20,20","10,10","20,20","0,0","20,20","1,1","2525,976","15.045507765407777,27.2236883765269","10.560925280753741,5.750521278522886","0","0"
"375","86","text","0","191","1229883","0-0","","","","","","","","","","","","","","","","","","","","","","","","","","","","","","","","","","","","",""
"","","plant-game","0","192","1241818","0-0","","200","180","4","CORN CROP","Right","200","190","2","NETTLE WEED","experimental","83","1,2,3,4","190,167.33875127539784,180,180.1047800750643","2,1,2,1","NETTLE WEED,NETTLE WEED,THISTLE WEED,THISTLE WEED","180,198.18324256271072,188.36248830949944,226.9352500691337","4,3,2,1","CORN CROP,CORN CROP,CORN CROP,CORN CROP","0,0,0,0","20,20,20,20","10,10,10,10","20,20,20,20","20,20,20,20","20,20,20,20","0,0,0,0","20,20,20,20","10,10,10,10","20,20,20,20","20,20,20,20","20,20,20,20","0,0,1,0","6373,343,1199,542","-22.661248724602146,-5.925424532260278,0.10478007506429066,2.740368597100289","18.18324256271072,-9.820754253211279,38.572761759634275,-48.736217193794616","0","0"
