"rt","key_press","trial_type","trial_index","trial_index_global","time_elapsed","internal_chunk_id","responses","experimental_goal_height","experimental_start_height","experimental_weeks_total","experimental_crop_type","experimental_crop_side","fixed_goal_height","fixed_start_height","fixed_weeks_total","fixed_crop_type","trial_kind","trial_number","stage","left_current_height","left_weeks_remaining","left_crop_type","right_current_height","right_weeks_remaining","right_crop_type","mean_left_growth_given_left","sd_left_growth_given_left","mean_left_growth_given_middle","sd_left_growth_given_middle","mean_left_growth_given_right","sd_left_growth_given_right","mean_right_growth_given_left","sd_right_growth_given_left","mean_right_growth_given_middle","sd_right_growth_given_middle","mean_right_growth_given_right","sd_right_growth_given_right","response","response_time","left_growth","right_growth","other_key_pressed","mouse_clicked"
"4490732","77","text","0","0","4490873","0-0","","","","","","","","","","","","","","","","","","","","","","","","","","","","","","","","","","","","",""
"5665","","survey-text","0","1","4497559","0-0","{""Q0"":""19""}","","","","","","","","","","","","","","","","","","","","","","","","","","","","","","","","","","","",""
"3142","86","text","0","2","3298","0-0","","","","","","","","","","","","","","","","","","","","","","","","","","","","","","","","","","","","",""
"","","plant-game","0","3","60095","0-0","","200","120","8","WHEAT CROP","Left","200","120","8","NETTLE WEED","practice","1","1,2,3,4,5,6,7,8","120,154.65446719590747,151.35024416589613,128.37878568780224,107.9192965656136,119.64470394011978,130.5733136070137,147.69851860114133","8,7,6,5,4,3,2,1","WHEAT CROP,WHEAT CROP,WHEAT CROP,WHEAT CROP,WHEAT CROP,WHEAT CROP,WHEAT CROP,WHEAT CROP","120,118.83999157351393,118.77072171666472,153.36614679325686,182.63047280483806,172.4991450354195,187.02289654138062,212.071478371689","8,7,6,5,4,3,2,1","NETTLE WEED,NETTLE WEED,NETTLE WEED,NETTLE WEED,NETTLE WEED,NETTLE WEED,NETTLE WEED,NETTLE WEED","20,20,20,20,20,20,20,20","20,20,20,20,20,20,20,20","10,10,10,10,10,10,10,10","20,20,20,20,20,20,20,20","0,0,0,0,0,0,0,0","20,20,20,20,20,20,20,20","20,20,20,20,20,20,20,20","20,20,20,20,20,20,20,20","10,10,10,10,10,10,10,10","20,20,20,20,20,20,20,20","0,0,0,0,0,0,0,0","20,20,20,20,20,20,20,20","0,0,0,1,1,1,1,1","5890,3487,1810,2505,2475,5223,1702,2436","34.654467195907465,-3.304223030011343,-22.9714584780939,-20.45948912218863,11.725407374506172,10.928609666893918,17.12520499412764,0.4610173731898162","-1.1600084264860726,-0.06926985684919629,34.59542507659214,29.264326011581193,-10.131327769418558,14.523751505961119,25.048581830308407,-30.062955648579752","0","0"
"1266","86","text","0","4","61551","0-0","","","","","","","","","","","","","","","","","","","","","","","","","","","","","","","","","","","","",""
"","","plant-game","0","5","87552","0-0","","200","160","4","CORN CROP","Left","200","160","4","THISTLE WEED","practice","2","1,2,3,4","160,163.0402641317564,171.23295226857374,192.15990962333336","4,3,2,1","CORN CROP,CORN CROP,CORN CROP,CORN CROP","160,161.50344745131065,168.72304759783196,183.08316918433985","4,3,2,1","THISTLE WEED,THISTLE WEED,THISTLE WEED,THISTLE WEED","20,20,20,20","20,20,20,20","10,10,10,10","20,20,20,20","0,0,0,0","20,20,20,20","20,20,20,20","20,20,20,20","10,10,10,10","20,20,20,20","0,0,0,0","20,20,20,20","1,0,0,0","4988,1433,942,1108","3.0402641317564125,8.192688136817338,20.92695735475962,31.667686052909335","1.5034474513106522,7.219600146521305,14.360121586507873,46.03762881139957","0","0"
"786","86","text","0","6","88518","0-0","","","","","","","","","","","","","","","","","","","","","","","","","","","","","","","","","","","","",""
"","","plant-game","0","7","107676","0-0","","200","180","2","WHEAT CROP","Left","200","180","2","THISTLE WEED","practice","3","1,2","180,225.8083611835391","2,1","WHEAT CROP,WHEAT CROP","180,179.28566702698538","2,1","THISTLE WEED,THISTLE WEED","20,20","20,20","10,10","20,20","0,0","20,20","20,20","20,20","10,10","20,20","0,0","20,20","0,1","6012,1660","45.808361183539105,-0.3032588136998706","-0.7143329730146348,26.461383389744086","0","0"
"631","86","text","0","8","108497","0-0","","","","","","","","","","","","","","","","","","","","","","","","","","","","","","","","","","","","",""
"","","plant-game","0","9","129222","0-0","","200","190","1","CORN CROP","Left","200","190","1","THISTLE WEED","practice","4","1","190","1","CORN CROP","190","1","THISTLE WEED","20","20","10","20","0","20","20","20","10","20","0","20","1","6099","8.15084455868465","-4.792433224763026","0","0"
"701","86","text","0","10","130064","0-0","","","","","","","","","","","","","","","","","","","","","","","","","","","","","","","","","","","","",""
"","","plant-game","0","11","157118","0-0","","200","120","8","CORN CROP","Right","200","160","8","THISTLE WEED","practice","5","1,2,3,4,5,6,7,8","160,168.99041664328783,153.9183052225341,194.79232386622851,210.05358710348335,249.82648872572526,265.87999105807955,285.35158464864696","8,7,6,5,4,3,2,1","THISTLE WEED,THISTLE WEED,THISTLE WEED,THISTLE WEED,THISTLE WEED,THISTLE WEED,THISTLE WEED,THISTLE WEED","120,113.53146125240762,131.36555239062568,137.9054506919934,114.8526086275246,100.27413790353557,112.08423727403269,109.02154605931659","8,7,6,5,4,3,2,1","CORN CROP,CORN CROP,CORN CROP,CORN CROP,CORN CROP,CORN CROP,CORN CROP,CORN CROP","0,0,0,0,0,0,0,0","20,20,20,20,20,20,20,20","10,10,10,10,10,10,10,10","20,20,20,20,20,20,20,20","20,20,20,20,20,20,20,20","20,20,20,20,20,20,20,20","0,0,0,0,0,0,0,0","20,20,20,20,20,20,20,20","10,10,10,10,10,10,10,10","20,20,20,20,20,20,20,20","20,20,20,20,20,20,20,20","20,20,20,20,20,20,20,20","0,0,1,0,0,0,0,0","7400,659,1326,593,583,806,1423,1116","8.99041664328784,-15.072111420753755,40.87401864369442,15.261263237254827,39.7729016222419,16.0535023323543,19.471593590567416,5.422541688886435","-6.46853874759238,17.83409113821807,6.5398983013677,-23.052842064468795,-14.578470723989025,11.81009937049711,-3.0626912147160996,-8.531235562428256","0","0"
"454","86","text","0","12","157772","0-0","","","","","","","","","","","","","","","","","","","","","","","","","","","","","","","","","","","","",""
"","","plant-game","0","13","178892","0-0","","200","180","4","CORN CROP","Right","200","160","4","NETTLE WEED","practice","6","1,2,3,4","160,177.67878613306488,194.7961780693568,181.94572596935882","4,3,2,1","NETTLE WEED,NETTLE WEED,NETTLE WEED,NETTLE WEED","180,169.71994338548743,207.40621488685989,138.9464293024459","4,3,2,1","CORN CROP,CORN CROP,CORN CROP,CORN CROP","0,0,0,0","20,20,20,20","10,10,10,10","20,20,20,20","20,20,20,20","20,20,20,20","0,0,0,0","20,20,20,20","10,10,10,10","20,20,20,20","20,20,20,20","20,20,20,20","1,1,0,1","9047,719,826,725","17.67878613306489,17.117391936291934,-12.850452099997984,34.507188466529165","-10.280056614512585,37.68627150137246,-68.45978558441399,-16.54366512541357","0","0"
"647","86","text","0","14","179719","0-0","","","","","","","","","","","","","","","","","","","","","","","","","","","","","","","","","","","","",""
"","","plant-game","0","15","195601","0-0","","200","180","2","WHEAT CROP","Right","200","190","2","NETTLE WEED","practice","7","1,2","190,171.09294952517251","2,1","NETTLE WEED,NETTLE WEED","180,201.68326607182166","2,1","WHEAT CROP,WHEAT CROP","0,0","20,20","10,10","20,20","20,20","20,20","0,0","20,20","10,10","20,20","20,20","20,20","0,1","2493,3827","-18.90705047482748,-15.236792812837024","21.683266071821667,-8.229447415342129","0","0"
"501","86","text","0","16","196282","0-0","","","","","","","","","","","","","","","","","","","","","","","","","","","","","","","","","","","","",""
"","","plant-game","0","17","238985","0-0","","200","120","4","WHEAT CROP","Left","200","120","8","NETTLE WEED","practice","8","1,2,3,4,5,6,7,8","120,144.90299140257252,192.70440566750213,223.0250839585212,160,120.78621712081748,113.30792591395296,90.2200680463663","4,3,2,1,4,3,2,1","WHEAT CROP,WHEAT CROP,WHEAT CROP,WHEAT CROP,CORN CROP,CORN CROP,CORN CROP,CORN CROP","120,168.0738090687874,188.57765990538044,217.3228827150799,200.27950593161717,204.4651481172142,219.32932874893078,242.1437938116255","8,7,6,5,4,3,2,1","NETTLE WEED,NETTLE WEED,NETTLE WEED,NETTLE WEED,NETTLE WEED,NETTLE WEED,NETTLE WEED,NETTLE WEED","20,20,20,20,20,20,20,20","20,20,20,20,20,20,20,20","10,10,10,10,10,10,10,10","20,20,20,20,20,20,20,20","0,0,0,0,0,0,0,0","20,20,20,20,20,20,20,20","20,20,20,20,20,20,20,20","20,20,20,20,20,20,20,20","10,10,10,10,10,10,10,10","20,20,20,20,20,20,20,20","0,0,0,0,0,0,0,0","20,20,20,20,20,20,20,20","0,0,0,1,1,1,1,1","11833,2466,563,1386,4109,871,485,652","24.90299140257251,47.8014142649296,30.32067829101909,22.267583718027634,-39.21378287918252,-7.4782912068645295,-23.08785786758666,-21.176836493603073","48.073809068787384,20.503850836593045,28.74522280969948,-17.043376783462758,4.185642185597021,14.864180631716582,22.81446506269472,1.4652038286891564","0","0"
"520","86","text","0","18","239724","0-0","","","","","","","","","","","","","","","","","","","","","","","","","","","","","","","","","","","","",""
"","","plant-game","0","19","260445","0-0","","200","160","4","CORN CROP","Left","200","160","2","NETTLE WEED","practice","9","1,2,3,4","160,152.27303917470863,158.66947515484125,156.8557291477084","4,3,2,1","CORN CROP,CORN CROP,CORN CROP,CORN CROP","160,164.60852166454325,180,194.2280448580228","2,1,2,1","NETTLE WEED,NETTLE WEED,THISTLE WEED,THISTLE WEED","20,20,20,20","20,20,20,20","10,10,10,10","20,20,20,20","0,0,0,0","20,20,20,20","20,20,20,20","20,20,20,20","10,10,10,10","20,20,20,20","0,0,0,0","20,20,20,20","1,1,0,0","5442,571,1533,590","-7.726960825291381,6.396435980132621,-1.8137460071328633,35.46232222084322","4.608521664543251,9.114386693411417,14.228044858022795,26.244010313509857","0","0"
"508","86","text","0","20","261140","0-0","","","","","","","","","","","","","","","","","","","","","","","","","","","","","","","","","","","","",""
"","","plant-game","0","21","277667","0-0","","200","180","2","CORN CROP","Left","200","180","1","THISTLE WEED","practice","10","1,2","180,191.277289795906","2,1","CORN CROP,CORN CROP","180,190","1,1","THISTLE WEED,NETTLE WEED","20,20","20,20","10,10","20,20","0,0","20,20","20,20","20,20","10,10","20,20","0,0","20,20","1,0","3192,426","11.277289795905999,59.43901752339804","-25.464006269521473,46.173910571166616","0","0"
"559","86","text","0","22","278396","0-0","","","","","","","","","","","","","","","","","","","","","","","","","","","","","","","","","","","","",""
"","","plant-game","0","23","312559","0-0","","200","120","8","WHEAT CROP","Right","200","160","4","NETTLE WEED","practice","11","1,2,3,4,5,6,7,8","160,146.652853330141,169.13111600903528,202.82170696253633,160,170.18666044889855,158.39453345061676,159.3778464760528","4,3,2,1,4,3,2,1","NETTLE WEED,NETTLE WEED,NETTLE WEED,NETTLE WEED,THISTLE WEED,THISTLE WEED,THISTLE WEED,THISTLE WEED","120,126.51917966641662,129.8875819399722,136.75480066509945,107.61608996291457,94.06841376655684,92.53483794303345,143.94987653640126","8,7,6,5,4,3,2,1","WHEAT CROP,WHEAT CROP,WHEAT CROP,WHEAT CROP,WHEAT CROP,WHEAT CROP,WHEAT CROP,WHEAT CROP","0,0,0,0,0,0,0,0","20,20,20,20,20,20,20,20","10,10,10,10,10,10,10,10","20,20,20,20,20,20,20,20","20,20,20,20,20,20,20,20","20,20,20,20,20,20,20,20","0,0,0,0,0,0,0,0","20,20,20,20,20,20,20,20","10,10,10,10,10,10,10,10","20,20,20,20,20,20,20,20","20,20,20,20,20,20,20,20","20,20,20,20,20,20,20,20","1,1,1,0,0,0,1,1","7166,437,717,608,2154,1603,880,685","-13.347146669859015,22.478262678894286,33.69059095350103,-13.404810002262938,10.186660448898543,-11.792126998281782,0.9833130254360327,41.250723893244455","6.519179666416626,3.3684022735555814,6.867218725127257,-29.13871070218488,-13.54767619635773,-1.5335758235233916,51.41503859336781,39.948635431215294","0","0"
"569","86","text","0","24","313268","0-0","","","","","","","","","","","","","","","","","","","","","","","","","","","","","","","","","","","","",""
"","","plant-game","0","25","347488","0-0","","200","180","2","WHEAT CROP","Right","200","160","4","THISTLE WEED","practice","12","1,2,3,4","160,212.00058547620165,251.2105027324002,265.6867129148004","4,3,2,1","THISTLE WEED,THISTLE WEED,THISTLE WEED,THISTLE WEED","180,233.44139495936224,180,181.4001707760233","2,1,2,1","WHEAT CROP,WHEAT CROP,CORN CROP,CORN CROP","0,0,0,0","20,20,20,20","10,10,10,10","20,20,20,20","20,20,20,20","20,20,20,20","0,0,0,0","20,20,20,20","10,10,10,10","20,20,20,20","20,20,20,20","20,20,20,20","1,1,0,0","8214,2282,506,731","52.000585476201636,39.20991725619854,14.476210182400198,-11.951231774679297","53.44139495936224,29.179118065784465,1.4001707760232927,-10.249212467486167","0","0"
"580","86","text","0","26","348228","0-0","","","","","","","","","","","","","","","","","","","","","","","","","","","","","","","","","","","","",""
"15696","86","text","0","27","365100","0-0","","","","","","","","","","","","","","","","","","","","","","","","","","","","","","","","","","","","",""
"","","plant-game","0","28","380066","0-0","","200","120","4","CORN CROP","Left","200","180","4","THISTLE WEED","experimental","1","1,2,3,4","120,167.60361831193964,168.9627975527239,192.15257435360613","4,3,2,1","CORN CROP,CORN CROP,CORN CROP,CORN CROP","180,168.92296739394678,158.27779730147208,199.86617356972897","4,3,2,1","THISTLE WEED,THISTLE WEED,THISTLE WEED,THISTLE WEED","20,20,20,20","20,20,20,20","10,10,10,10","20,20,20,20","0,0,0,0","20,20,20,20","20,20,20,20","20,20,20,20","10,10,10,10","20,20,20,20","0,0,0,0","20,20,20,20","1,1,0,1","5907,1478,885,675","47.60361831193964,1.359179240784261,23.189776800882214,6.3224968227767615","-11.077032606053233,-10.645170092474707,41.58837626825688,31.44729907119705","0","0"
"542","86","text","0","29","380728","0-0","","","","","","","","","","","","","","","","","","","","","","","","","","","","","","","","","","","","",""
"","","plant-game","0","30","395380","0-0","","200","180","2","CORN CROP","Right","200","120","1","THISTLE WEED","experimental","2","1,2","120,190","1,1","THISTLE WEED,NETTLE WEED","180,192.767640889557","2,1","CORN CROP,CORN CROP","0,0","20,20","10,10","20,20","20,20","20,20","0,0","20,20","10,10","20,20","20,20","20,20","1,1","5454,2558","22.64113705468752,38.696755418197455","12.767640889556983,13.724721025322838","0","0"
"509","86","text","0","31","396049","0-0","","","","","","","","","","","","","","","","","","","","","","","","","","","","","","","","","","","","",""
"","","plant-game","0","32","414695","0-0","","200","180","1","CORN CROP","Left","200","160","4","THISTLE WEED","experimental","3","1,2,3,4","180,170,201.41598635320713,229.62324700751702","1,3,2,1","CORN CROP,WHEAT CROP,WHEAT CROP,WHEAT CROP","160,169.60621026778142,192.1880523054332,195.8799251582567","4,3,2,1","THISTLE WEED,THISTLE WEED,THISTLE WEED,THISTLE WEED","20,20,20,20","20,20,20,20","10,10,10,10","20,20,20,20","0,0,0,0","20,20,20,20","20,20,20,20","20,20,20,20","10,10,10,10","20,20,20,20","0,0,0,0","20,20,20,20","0,0,1,1","4607,2965,1293,1394","9.871682324623166,31.41598635320714,28.207260654309877,-6.047591571076229","9.606210267781423,22.581842037651764,3.6918728528235105,9.649010011770798","0","0"
"520","86","text","0","33","415371","0-0","","","","","","","","","","","","","","","","","","","","","","","","","","","","","","","","","","","","",""
"","","plant-game","0","34","423666","0-0","","200","120","2","WHEAT CROP","Left","200","120","2","NETTLE WEED","experimental","4","1,2","120,158.78232071040307","2,1","WHEAT CROP,WHEAT CROP","120,99.0483710398157","2,1","NETTLE WEED,NETTLE WEED","20,20","20,20","10,10","20,20","0,0","20,20","20,20","20,20","10,10","20,20","0,0","20,20","0,0","2419,910","38.78232071040307,49.76349834335153","-20.951628960184294,44.69048349413896","0","0"
"599","86","text","0","35","424445","0-0","","","","","","","","","","","","","","","","","","","","","","","","","","","","","","","","","","","","",""
"","","plant-game","0","36","435083","0-0","","200","120","1","WHEAT CROP","Left","200","160","1","NETTLE WEED","experimental","5","1","120","1","WHEAT CROP","160","1","NETTLE WEED","20","20","10","20","0","20","20","20","10","20","0","20","1","6227","-15.79565878238135","-21.420205318408247","0","0"
"706","86","text","0","37","435949","0-0","","","","","","","","","","","","","","","","","","","","","","","","","","","","","","","","","","","","",""
"","","plant-game","0","38","451484","0-0","","200","180","1","CORN CROP","Left","200","160","8","THISTLE WEED","experimental","6","1,2,3,4,5,6,7,8","180,130,161.85644681481705,158.83501576103495,157.92009734054386,171.94862375711193,194.06675161705502,181.1407293890229","1,7,6,5,4,3,2,1","CORN CROP,WHEAT CROP,WHEAT CROP,WHEAT CROP,WHEAT CROP,WHEAT CROP,WHEAT CROP,WHEAT CROP","160,201.13551085235704,209.67191851892247,238.81233874215866,253.26734294874254,277.1140852310197,285.95853908541693,275.4825848010393","8,7,6,5,4,3,2,1","THISTLE WEED,THISTLE WEED,THISTLE WEED,THISTLE WEED,THISTLE WEED,THISTLE WEED,THISTLE WEED,THISTLE WEED","20,20,20,20,20,20,20,20","20,20,20,20,20,20,20,20","10,10,10,10,10,10,10,10","20,20,20,20,20,20,20,20","0,0,0,0,0,0,0,0","20,20,20,20,20,20,20,20","20,20,20,20,20,20,20,20","20,20,20,20,20,20,20,20","10,10,10,10,10,10,10,10","20,20,20,20,20,20,20,20","0,0,0,0,0,0,0,0","20,20,20,20,20,20,20,20","0,0,0,0,0,0,0,0","4002,2054,393,341,234,182,220,477","7.2832502582062215,31.85644681481704,-3.021431053782088,-0.9149184204910839,14.02852641656806,22.118127859943087,-12.926022228032096,-23.700972045222322","41.13551085235705,8.536407666565413,29.14042022323619,14.455004206583872,23.84674228227719,8.844453854397191,-10.475954284377632,10.75466039542491","0","0"
"494","86","text","0","39","452158","0-0","","","","","","","","","","","","","","","","","","","","","","","","","","","","","","","","","","","","",""
"","","plant-game","0","40","464045","0-0","","200","190","1","WHEAT CROP","Right","200","120","2","THISTLE WEED","experimental","7","1,2","120,137.52862345320708","2,1","THISTLE WEED,THISTLE WEED","190,190","1,1","WHEAT CROP,CORN CROP","0,0","20,20","10,10","20,20","20,20","20,20","0,0","20,20","10,10","20,20","20,20","20,20","1,1","3563,1542","17.528623453207068,59.66889861914702","31.938123898570225,23.268252370880536","0","0"
"554","86","text","0","41","464716","0-0","","","","","","","","","","","","","","","","","","","","","","","","","","","","","","","","","","","","",""
"","","plant-game","0","42","478859","0-0","","200","160","1","WHEAT CROP","Left","200","190","4","NETTLE WEED","experimental","8","1,2,3,4","160,170,201.83744148447562,179.0328240783279","1,3,2,1","WHEAT CROP,CORN CROP,CORN CROP,CORN CROP","190,193.49880694793896,195.3532723139986,228.81074643090307","4,3,2,1","NETTLE WEED,NETTLE WEED,NETTLE WEED,NETTLE WEED","20,20,20,20","20,20,20,20","10,10,10,10","20,20,20,20","0,0,0,0","20,20,20,20","20,20,20,20","20,20,20,20","10,10,10,10","20,20,20,20","0,0,0,0","20,20,20,20","1,1,1,1","5035,936,1101,576","-14.670241649073063,31.837441484475608,-22.804617406147717,27.732741346624653","3.498806947938959,1.8544653660596144,33.45747411690447,12.618102093493487","0","0"
"481","86","text","0","43","479493","0-0","","","","","","","","","","","","","","","","","","","","","","","","","","","","","","","","","","","","",""
"","","plant-game","0","44","489012","0-0","","200","120","8","WHEAT CROP","Left","200","180","8","THISTLE WEED","experimental","9","1,2,3,4,5,6,7,8","120,152.55270673933444,185.3595461486984,159.44475739086897,167.36822422706234,171.90999386696495,181.5813294954153,165.6896739455516","8,7,6,5,4,3,2,1","WHEAT CROP,WHEAT CROP,WHEAT CROP,WHEAT CROP,WHEAT CROP,WHEAT CROP,WHEAT CROP,WHEAT CROP","180,146.8967308838659,166.68069466873328,208.1053043112423,212.51118399352546,212.35490320221643,233.1040866267736,253.10261623479474","8,7,6,5,4,3,2,1","THISTLE WEED,THISTLE WEED,THISTLE WEED,THISTLE WEED,THISTLE WEED,THISTLE WEED,THISTLE WEED,THISTLE WEED","20,20,20,20,20,20,20,20","20,20,20,20,20,20,20,20","10,10,10,10,10,10,10,10","20,20,20,20,20,20,20,20","0,0,0,0,0,0,0,0","20,20,20,20,20,20,20,20","20,20,20,20,20,20,20,20","20,20,20,20,20,20,20,20","10,10,10,10,10,10,10,10","20,20,20,20,20,20,20,20","0,0,0,0,0,0,0,0","20,20,20,20,20,20,20,20","1,1,1,1,1,1,1,1","2323,943,754,529,376,118,99,89","32.552706739334425,32.80683940936395,-25.914788757829427,7.923466836193381,4.541769639902608,9.67133562845036,-15.891655549863703,-6.147174710121802","-33.10326911613411,19.783963784867396,41.42460964250901,4.4058796822831745,-0.1562807913090417,20.749183424557167,19.998529608021123,15.272462506592511","0","0"
"542","86","text","0","45","489694","0-0","","","","","","","","","","","","","","","","","","","","","","","","","","","","","","","","","","","","",""
"","","plant-game","0","46","513574","0-0","","200","190","8","CORN CROP","Right","200","160","2","NETTLE WEED","experimental","10","1,2,3,4,5,6,7,8","160,157.24468920697356,140,123.03716717371401,144.04516476780674,181.54111655712632,179.86856936219783,153.33530404182432","2,1,6,5,4,3,2,1","NETTLE WEED,NETTLE WEED,THISTLE WEED,THISTLE WEED,THISTLE WEED,THISTLE WEED,THISTLE WEED,THISTLE WEED","190,197.06770519399177,248.26527123372136,269.12825607487554,281.1658056072741,252.23604672159456,220.33996618502354,208.73070685577474","8,7,6,5,4,3,2,1","CORN CROP,CORN CROP,CORN CROP,CORN CROP,CORN CROP,CORN CROP,CORN CROP,CORN CROP","0,0,0,0,0,0,0,0","20,20,20,20,20,20,20,20","10,10,10,10,10,10,10,10","20,20,20,20,20,20,20,20","20,20,20,20,20,20,20,20","20,20,20,20,20,20,20,20","0,0,0,0,0,0,0,0","20,20,20,20,20,20,20,20","10,10,10,10,10,10,10,10","20,20,20,20,20,20,20,20","20,20,20,20,20,20,20,20","20,20,20,20,20,20,20,20","1,1,0,0,0,0,0,0","8968,1542,2297,1114,667,1386,955,500","-2.755310793026446,31.3320538536389,-16.962832826285997,21.00799759409273,37.49595178931957,-1.6725471949284842,-26.533265320373516,-5.906943441434382","7.067705193991783,51.197566039729594,20.862984841154194,12.037549532398558,-28.92975888567952,-31.896080536571016,-11.609259329248797,-1.171395554244796","0","0"
"471","86","text","0","47","514125","0-0","","","","","","","","","","","","","","","","","","","","","","","","","","","","","","","","","","","","",""
"","","plant-game","0","48","529075","0-0","","200","180","8","WHEAT CROP","Right","200","180","8","THISTLE WEED","experimental","11","1,2,3,4,5,6,7,8","180,168.59874902492012,138.6302656251626,153.85629784241556,162.04648500708248,152.6948456128397,158.2895111770378,179.9495701726346","8,7,6,5,4,3,2,1","THISTLE WEED,THISTLE WEED,THISTLE WEED,THISTLE WEED,THISTLE WEED,THISTLE WEED,THISTLE WEED,THISTLE WEED","180,164.30101637504103,156.9789369576043,186.27761079894725,221.2302526044848,219.0824935249479,180.65484991903867,216.33778944492627","8,7,6,5,4,3,2,1","WHEAT CROP,WHEAT CROP,WHEAT CROP,WHEAT CROP,WHEAT CROP,WHEAT CROP,WHEAT CROP,WHEAT CROP","0,0,0,0,0,0,0,0","20,20,20,20,20,20,20,20","10,10,10,10,10,10,10,10","20,20,20,20,20,20,20,20","20,20,20,20,20,20,20,20","20,20,20,20,20,20,20,20","0,0,0,0,0,0,0,0","20,20,20,20,20,20,20,20","10,10,10,10,10,10,10,10","20,20,20,20,20,20,20,20","20,20,20,20,20,20,20,20","20,20,20,20,20,20,20,20","0,0,0,1,0,0,1,0","5922,988,441,555,720,378,472,886","-11.401250975079888,-29.968483399757524,15.226032217252962,8.190187164666929,-9.351639394242762,5.594665564198103,21.6600589955968,9.04173313906725","-15.69898362495897,-7.322079417436736,29.298673841342932,34.95264180553755,-2.147759079536899,-38.42764360590924,35.68293952588762,-36.868779671169676","0","0"
"416","86","text","0","49","529621","0-0","","","","","","","","","","","","","","","","","","","","","","","","","","","","","","","","","","","","",""
"","","plant-game","0","50","541778","0-0","","200","180","1","WHEAT CROP","Right","200","120","4","THISTLE WEED","experimental","12","1,2,3,4","120,162.90116008501928,208.34599114049504,206.0095118513128","4,3,2,1","THISTLE WEED,THISTLE WEED,THISTLE WEED,THISTLE WEED","180,170,196.98070775573544,196.24781571564193","1,3,2,1","WHEAT CROP,CORN CROP,CORN CROP,CORN CROP","0,0,0,0","20,20,20,20","10,10,10,10","20,20,20,20","20,20,20,20","20,20,20,20","0,0,0,0","20,20,20,20","10,10,10,10","20,20,20,20","20,20,20,20","20,20,20,20","1,1,0,0","3468,688,619,2149","42.90116008501928,45.44483105547576,-2.336479289182261,-4.152833410810929","19.493492550055528,26.980707755735434,-0.7328920400935114,49.21279996014657","0","0"
"512","86","text","0","51","542450","0-0","","","","","","","","","","","","","","","","","","","","","","","","","","","","","","","","","","","","",""
"","","plant-game","0","52","556072","0-0","","200","120","8","WHEAT CROP","Left","200","180","4","NETTLE WEED","experimental","13","1,2,3,4,5,6,7,8","120,109.75271350468569,94.43101054998469,102.85601728405969,161.21028787418862,163.70174808897866,150.1741576301631,184.28242196606692","8,7,6,5,4,3,2,1","WHEAT CROP,WHEAT CROP,WHEAT CROP,WHEAT CROP,WHEAT CROP,WHEAT CROP,WHEAT CROP,WHEAT CROP","180,153.15399774354265,151.47624252632002,177.27943775860138,160,193.22408860655668,192.46043626871779,206.7402565394333","4,3,2,1,4,3,2,1","NETTLE WEED,NETTLE WEED,NETTLE WEED,NETTLE WEED,THISTLE WEED,THISTLE WEED,THISTLE WEED,THISTLE WEED","20,20,20,20,20,20,20,20","20,20,20,20,20,20,20,20","10,10,10,10,10,10,10,10","20,20,20,20,20,20,20,20","0,0,0,0,0,0,0,0","20,20,20,20,20,20,20,20","20,20,20,20,20,20,20,20","20,20,20,20,20,20,20,20","10,10,10,10,10,10,10,10","20,20,20,20,20,20,20,20","0,0,0,0,0,0,0,0","20,20,20,20,20,20,20,20","1,1,0,1,0,1,0,0","1625,423,3420,634,448,770,439,608","-10.247286495314311,-15.321702954700992,8.425006734075001,58.35427059012895,2.491460214790031,-13.527590458815567,34.108264335903804,42.67203621977605","-26.84600225645736,-1.6777552172226187,25.803195232281343,-1.2201270358780887,33.22408860655669,-0.7636523378389026,14.279820270715508,16.244945965856438","0","0"
"644","86","text","0","53","556876","0-0","","","","","","","","","","","","","","","","","","","","","","","","","","","","","","","","","","","","",""
"","","plant-game","0","54","568041","0-0","","200","190","4","CORN CROP","Right","200","190","1","THISTLE WEED","experimental","14","1,2,3,4","190,170,196.00325778427526,216.69217395099687","1,3,2,1","THISTLE WEED,NETTLE WEED,NETTLE WEED,NETTLE WEED","190,233.4202343307561,219.56426429916837,205.30831960445667","4,3,2,1","CORN CROP,CORN CROP,CORN CROP,CORN CROP","0,0,0,0","20,20,20,20","10,10,10,10","20,20,20,20","20,20,20,20","20,20,20,20","0,0,0,0","20,20,20,20","10,10,10,10","20,20,20,20","20,20,20,20","20,20,20,20","1,0,0,0","1453,2732,903,532","7.955672585375442,26.003257784275277,20.68891616672161,18.50311137191818","43.42023433075612,-13.855970031587733,-14.255944694711696,-22.327071854796138","0","0"
"499","86","text","0","55","568660","0-0","","","","","","","","","","","","","","","","","","","","","","","","","","","","","","","","","","","","",""
"","","plant-game","0","56","592334","0-0","","200","180","8","CORN CROP","Left","200","190","8","NETTLE WEED","experimental","15","1,2,3,4,5,6,7,8","180,186.61863043719293,156.4570515997935,177.4027515900334,236.38884146946543,271.6896970612618,291.26232495881186,308.8482141228716","8,7,6,5,4,3,2,1","CORN CROP,CORN CROP,CORN CROP,CORN CROP,CORN CROP,CORN CROP,CORN CROP,CORN CROP","190,179.65503605760603,206.28236987914553,181.43977494816622,194.17050666061064,209.62962812411172,203.09212843931195,229.34646982590345","8,7,6,5,4,3,2,1","NETTLE WEED,NETTLE WEED,NETTLE WEED,NETTLE WEED,NETTLE WEED,NETTLE WEED,NETTLE WEED,NETTLE WEED","20,20,20,20,20,20,20,20","20,20,20,20,20,20,20,20","10,10,10,10,10,10,10,10","20,20,20,20,20,20,20,20","0,0,0,0,0,0,0,0","20,20,20,20,20,20,20,20","20,20,20,20,20,20,20,20","20,20,20,20,20,20,20,20","10,10,10,10,10,10,10,10","20,20,20,20,20,20,20,20","0,0,0,0,0,0,0,0","20,20,20,20,20,20,20,20","1,1,0,0,0,1,1,1","8175,2314,4761,549,1177,687,1109,594","6.618630437192936,-30.161578837399436,20.945699990239902,58.98608987943203,35.30085559179638,19.572627897550035,17.585889164059708,-22.36610600518269","-10.34496394239397,26.627333821539505,-24.84259493097931,12.73073171244442,15.459121463501079,-6.537499684799757,26.254341386591513,5.315675974017246","0","0"
"511","86","text","0","57","593005","0-0","","","","","","","","","","","","","","","","","","","","","","","","","","","","","","","","","","","","",""
"","","plant-game","0","58","601276","0-0","","200","180","4","CORN CROP","Left","200","190","2","THISTLE WEED","experimental","16","1,2,3,4","180,148.29106099747327,173.18054603134328,216.38551502647275","4,3,2,1","CORN CROP,CORN CROP,CORN CROP,CORN CROP","190,185.24441964896084,180,204.46625258522042","2,1,2,1","THISTLE WEED,THISTLE WEED,NETTLE WEED,NETTLE WEED","20,20,20,20","20,20,20,20","10,10,10,10","20,20,20,20","0,0,0,0","20,20,20,20","20,20,20,20","20,20,20,20","10,10,10,10","20,20,20,20","0,0,0,0","20,20,20,20","1,0,0,1","1263,769,709,631","-31.708939002526737,24.889485033870017,43.20496899512946,2.022883515370365","-4.755580351039146,-0.9273582684919113,24.466252585220428,-15.475543469354363","0","0"
"4312","86","text","0","59","605757","0-0","","","","","","","","","","","","","","","","","","","","","","","","","","","","","","","","","","","","",""
"","","plant-game","0","60","619461","0-0","","200","190","2","CORN CROP","Left","200","120","8","THISTLE WEED","experimental","17","1,2,3,4,5,6,7,8","190,193.56913095710237,140,141.31063839139406,140.57460361197155,150.08817764681226,176.62198092558205,186.1770945098808","2,1,6,5,4,3,2,1","CORN CROP,CORN CROP,WHEAT CROP,WHEAT CROP,WHEAT CROP,WHEAT CROP,WHEAT CROP,WHEAT CROP","120,130.7194036420436,127.33259920119426,126.63985586732147,130.48030562021853,118.50621058692104,125.52048621839688,160.70821601116552","8,7,6,5,4,3,2,1","THISTLE WEED,THISTLE WEED,THISTLE WEED,THISTLE WEED,THISTLE WEED,THISTLE WEED,THISTLE WEED,THISTLE WEED","20,20,20,20,20,20,20,20","20,20,20,20,20,20,20,20","10,10,10,10,10,10,10,10","20,20,20,20,20,20,20,20","0,0,0,0,0,0,0,0","20,20,20,20,20,20,20,20","20,20,20,20,20,20,20,20","20,20,20,20,20,20,20,20","10,10,10,10,10,10,10,10","20,20,20,20,20,20,20,20","0,0,0,0,0,0,0,0","20,20,20,20,20,20,20,20","0,0,1,0,0,0,0,0","2425,719,1476,894,1335,683,553,581","3.569130957102363,18.555010573387197,1.310638391394071,-0.7360347794225035,9.513574034840694,26.533803278769785,9.55511358429873,28.32529366650494","10.719403642043602,-3.386804440849339,-0.6927433338727846,3.840449752897058,-11.974095033297488,7.014275631475845,35.18772979276865,6.637203299977497","0","0"
"495","86","text","0","61","620087","0-0","","","","","","","","","","","","","","","","","","","","","","","","","","","","","","","","","","","","",""
"","","plant-game","0","62","626003","0-0","","200","160","1","WHEAT CROP","Left","200","120","1","THISTLE WEED","experimental","18","1","160","1","WHEAT CROP","120","1","THISTLE WEED","20","20","10","20","0","20","20","20","10","20","0","20","0","2341","42.862317723464045","12.782819540614678","0","0"
"579","86","text","0","63","626749","0-0","","","","","","","","","","","","","","","","","","","","","","","","","","","","","","","","","","","","",""
"","","plant-game","0","64","636004","0-0","","200","190","1","CORN CROP","Left","200","190","2","THISTLE WEED","experimental","19","1,2","190,190","1,1","CORN CROP,WHEAT CROP","190,189.9338084202345","2,1","THISTLE WEED,THISTLE WEED","20,20","20,20","10,10","20,20","0,0","20,20","20,20","20,20","10,10","20,20","0,0","20,20","1,0","3532,781","2.4956889169992076,56.869904491497735","-0.06619157976550058,27.65892667854154","0","0"
"559","86","text","0","65","636693","0-0","","","","","","","","","","","","","","","","","","","","","","","","","","","","","","","","","","","","",""
"","","plant-game","0","66","644068","0-0","","200","120","1","WHEAT CROP","Left","200","190","1","NETTLE WEED","experimental","20","1","120","1","WHEAT CROP","190","1","NETTLE WEED","20","20","10","20","0","20","20","20","10","20","0","20","1","4881","24.933849452535682","14.065572245052373","0","0"
"439","86","text","0","67","644647","0-0","","","","","","","","","","","","","","","","","","","","","","","","","","","","","","","","","","","","",""
"","","plant-game","0","68","650207","0-0","","200","120","1","WHEAT CROP","Left","200","120","1","NETTLE WEED","experimental","21","1","120","1","WHEAT CROP","120","1","NETTLE WEED","20","20","10","20","0","20","20","20","10","20","0","20","0","3172","31.900336612065825","37.01162233205537","0","0"
"482","86","text","0","69","650829","0-0","","","","","","","","","","","","","","","","","","","","","","","","","","","","","","","","","","","","",""
"","","plant-game","0","70","655107","0-0","","200","180","1","CORN CROP","Left","200","180","1","THISTLE WEED","experimental","22","1","180","1","CORN CROP","180","1","THISTLE WEED","20","20","10","20","0","20","20","20","10","20","0","20","0","1572","26.69722024379204","-14.769178388233797","0","0"
"475","86","text","0","71","655752","0-0","","","","","","","","","","","","","","","","","","","","","","","","","","","","","","","","","","","","",""
"","","plant-game","0","72","667744","0-0","","200","190","2","CORN CROP","Left","200","190","8","THISTLE WEED","experimental","23","1,2,3,4,5,6,7,8","190,226.40407865451328,140,152.53040288548084,183.9077420271947,195.8392560278221,166.94417179075256,178.92994353153105","2,1,6,5,4,3,2,1","CORN CROP,CORN CROP,WHEAT CROP,WHEAT CROP,WHEAT CROP,WHEAT CROP,WHEAT CROP,WHEAT CROP","190,187.2347781930885,170.29829908476515,190.4710249984916,221.1214071881169,238.9066248647299,278.1357974949646,280.81595681118665","8,7,6,5,4,3,2,1","THISTLE WEED,THISTLE WEED,THISTLE WEED,THISTLE WEED,THISTLE WEED,THISTLE WEED,THISTLE WEED,THISTLE WEED","20,20,20,20,20,20,20,20","20,20,20,20,20,20,20,20","10,10,10,10,10,10,10,10","20,20,20,20,20,20,20,20","0,0,0,0,0,0,0,0","20,20,20,20,20,20,20,20","20,20,20,20,20,20,20,20","20,20,20,20,20,20,20,20","10,10,10,10,10,10,10,10","20,20,20,20,20,20,20,20","0,0,0,0,0,0,0,0","20,20,20,20,20,20,20,20","0,1,0,1,1,1,1,1","1581,2258,848,545,594,437,121,123","36.40407865451327,8.6740610169307,12.530402885480825,31.37733914171387,11.931514000627397,-28.895084237069536,11.985771740778477,0.10585146217011784","-2.765221806911505,-16.93647910832334,20.172725913726467,30.65038218962532,17.785217676612998,39.22917263023471,2.68015931622204,-5.595333474811273","0","0"
"510","86","text","0","73","668454","0-0","","","","","","","","","","","","","","","","","","","","","","","","","","","","","","","","","","","","",""
"","","plant-game","0","74","673486","0-0","","200","160","2","CORN CROP","Left","200","180","2","THISTLE WEED","experimental","24","1,2","160,142.76279497693494","2,1","CORN CROP,CORN CROP","180,190.5739505569871","2,1","THISTLE WEED,THISTLE WEED","20,20","20,20","10,10","20,20","0,0","20,20","20,20","20,20","10,10","20,20","0,0","20,20","1,0","1854,505","-17.237205023065066,34.54887195955055","10.573950556987109,39.83698982432455","0","0"
"456","86","text","0","75","674082","0-0","","","","","","","","","","","","","","","","","","","","","","","","","","","","","","","","","","","","",""
"","","plant-game","0","76","688405","0-0","","200","190","8","WHEAT CROP","Right","200","160","4","THISTLE WEED","experimental","25","1,2,3,4,5,6,7,8","160,188.21154420510052,179.78902297274232,173.9760754280193,160,170.6649607107644,160.7788935746666,184.7633387255808","4,3,2,1,4,3,2,1","THISTLE WEED,THISTLE WEED,THISTLE WEED,THISTLE WEED,NETTLE WEED,NETTLE WEED,NETTLE WEED,NETTLE WEED","190,222.27744112993597,229.17122176932415,211.9929161045643,223.57785253875815,232.48894262856146,258.45300849977014,275.7544753973819","8,7,6,5,4,3,2,1","WHEAT CROP,WHEAT CROP,WHEAT CROP,WHEAT CROP,WHEAT CROP,WHEAT CROP,WHEAT CROP,WHEAT CROP","0,0,0,0,0,0,0,0","20,20,20,20,20,20,20,20","10,10,10,10,10,10,10,10","20,20,20,20,20,20,20,20","20,20,20,20,20,20,20,20","20,20,20,20,20,20,20,20","0,0,0,0,0,0,0,0","20,20,20,20,20,20,20,20","10,10,10,10,10,10,10,10","20,20,20,20,20,20,20,20","20,20,20,20,20,20,20,20","20,20,20,20,20,20,20,20","1,0,0,0,1,0,0,0","1181,2141,1198,1287,1227,719,540,427","28.211544205100523,-8.422521232358214,-5.812947544723005,13.616407935108715,10.664960710764394,-9.886067136097797,23.984445150914226,-15.287413351167745","32.277441129935966,6.893780639388181,-17.178305664759847,11.584936434193846,8.911090089803302,25.96406587120866,17.301466897611775,-8.589651379577104","0","0"
"389","86","text","0","77","688944","0-0","","","","","","","","","","","","","","","","","","","","","","","","","","","","","","","","","","","","",""
"","","plant-game","0","78","697769","0-0","","200","160","8","CORN CROP","Right","200","160","8","NETTLE WEED","experimental","26","1,2,3,4,5,6,7,8","160,197.43346850427375,222.09588736237706,221.51692200545767,254.06704939664434,272.3158668118322,234.3112451662928,221.69282938127995","8,7,6,5,4,3,2,1","NETTLE WEED,NETTLE WEED,NETTLE WEED,NETTLE WEED,NETTLE WEED,NETTLE WEED,NETTLE WEED,NETTLE WEED","160,182.82417900878806,157.7523451523764,131.17875596510365,133.74611523105565,112.37440612368931,85.84813989123192,123.76181237358618","8,7,6,5,4,3,2,1","CORN CROP,CORN CROP,CORN CROP,CORN CROP,CORN CROP,CORN CROP,CORN CROP,CORN CROP","0,0,0,0,0,0,0,0","20,20,20,20,20,20,20,20","10,10,10,10,10,10,10,10","20,20,20,20,20,20,20,20","20,20,20,20,20,20,20,20","20,20,20,20,20,20,20,20","0,0,0,0,0,0,0,0","20,20,20,20,20,20,20,20","10,10,10,10,10,10,10,10","20,20,20,20,20,20,20,20","20,20,20,20,20,20,20,20","20,20,20,20,20,20,20,20","1,0,0,1,0,0,0,0","1611,678,656,735,460,282,271,592","37.43346850427374,24.662418858103308,-0.5789653569193876,32.55012739118666,18.248817415187872,-38.004621645539444,-12.618415785012848,16.86463347744695","22.824179008788054,-25.071833856411683,-26.573589187272745,2.5673592659520033,-21.37170910736635,-26.52626623245739,37.91367248235426,2.4240612700015967","0","0"
"247","86","text","0","79","698106","0-0","","","","","","","","","","","","","","","","","","","","","","","","","","","","","","","","","","","","",""
"","","plant-game","0","80","707691","0-0","","200","190","1","CORN CROP","Left","200","190","4","NETTLE WEED","experimental","27","1,2,3,4","190,170,194.33400686243334,227.59379323731815","1,3,2,1","CORN CROP,WHEAT CROP,WHEAT CROP,WHEAT CROP","190,231.00384987356398,234.60752563585626,246.73276509264036","4,3,2,1","NETTLE WEED,NETTLE WEED,NETTLE WEED,NETTLE WEED","20,20,20,20","20,20,20,20","10,10,10,10","20,20,20,20","0,0,0,0","20,20,20,20","20,20,20,20","20,20,20,20","10,10,10,10","20,20,20,20","0,0,0,0","20,20,20,20","0,1,1,1","869,1652,535,563","27.521256820728016,24.334006862433355,33.259786374884804,16.06107789794343","41.003849873563965,3.6036757622922777,12.125239456784096,-18.52346134883212","0","0"
"387","86","text","0","81","708238","0-0","","","","","","","","","","","","","","","","","","","","","","","","","","","","","","","","","","","","",""
"","","plant-game","0","82","715174","0-0","","200","120","4","WHEAT CROP","Right","200","160","4","THISTLE WEED","experimental","28","1,2,3,4","160,180.10581424301168,239.08551050041999,238.9722401954997","4,3,2,1","THISTLE WEED,THISTLE WEED,THISTLE WEED,THISTLE WEED","120,93.8272608159937,114.0330383883042,160.0161454218924","4,3,2,1","WHEAT CROP,WHEAT CROP,WHEAT CROP,WHEAT CROP","0,0,0,0","20,20,20,20","10,10,10,10","20,20,20,20","20,20,20,20","20,20,20,20","0,0,0,0","20,20,20,20","10,10,10,10","20,20,20,20","20,20,20,20","20,20,20,20","0,1,0,0","815,2294,527,253","20.105814243011668,58.9796962574083,-0.11327030492029977,30.986098371411703","-26.172739184006296,20.20577757231051,45.98310703358818,-2.3390047780027277","0","0"
"475","86","text","0","83","715779","0-0","","","","","","","","","","","","","","","","","","","","","","","","","","","","","","","","","","","","",""
"","","plant-game","0","84","722731","0-0","","200","180","2","CORN CROP","Right","200","180","2","NETTLE WEED","experimental","29","1,2","180,194.020522116504","2,1","NETTLE WEED,NETTLE WEED","180,210.65400179483345","2,1","CORN CROP,CORN CROP","0,0","20,20","10,10","20,20","20,20","20,20","0,0","20,20","10,10","20,20","20,20","20,20","1,0","3531,911","14.020522116503997,-23.629197089358875","30.654001794833448,-12.732617356275766","0","0"
"504","86","text","0","85","723375","0-0","","","","","","","","","","","","","","","","","","","","","","","","","","","","","","","","","","","","",""
"","","plant-game","0","86","737097","0-0","","200","180","8","WHEAT CROP","Left","200","120","1","THISTLE WEED","experimental","30","1,2,3,4,5,6,7,8","180,153.11442904369645,168.61145002976485,173.19255436866644,156.9092474447822,174.0130178946342,225.33648711790778,225.53420942818784","8,7,6,5,4,3,2,1","WHEAT CROP,WHEAT CROP,WHEAT CROP,WHEAT CROP,WHEAT CROP,WHEAT CROP,WHEAT CROP,WHEAT CROP","120,130,154.14020101052859,118.39085248747548,147.95801935299508,154.7442429552509,193.9109593937742,191.18213633593174","1,7,6,5,4,3,2,1","THISTLE WEED,NETTLE WEED,NETTLE WEED,NETTLE WEED,NETTLE WEED,NETTLE WEED,NETTLE WEED,NETTLE WEED","20,20,20,20,20,20,20,20","20,20,20,20,20,20,20,20","10,10,10,10,10,10,10,10","20,20,20,20,20,20,20,20","0,0,0,0,0,0,0,0","20,20,20,20,20,20,20,20","20,20,20,20,20,20,20,20","20,20,20,20,20,20,20,20","10,10,10,10,10,10,10,10","20,20,20,20,20,20,20,20","0,0,0,0,0,0,0,0","20,20,20,20,20,20,20,20","0,0,0,0,0,0,1,1","2184,1403,449,434,397,327,1390,835","-26.885570956303546,15.497020986068396,4.5811043389015875,-16.283306923884226,17.103770449851993,51.32346922327358,0.19772231028004875,-17.536140107950892","53.10865414142751,24.140201010528592,-35.7493485230531,29.567166865519585,6.786223602255836,39.16671643852328,-2.728823057842442,-21.981250618584557","0","0"
"472","86","text","0","87","737719","0-0","","","","","","","","","","","","","","","","","","","","","","","","","","","","","","","","","","","","",""
"","","plant-game","0","88","745785","0-0","","200","160","2","CORN CROP","Left","200","120","4","THISTLE WEED","experimental","31","1,2,3,4","160,206.96122586963656,180,180.0753964470842","2,1,2,1","CORN CROP,CORN CROP,WHEAT CROP,WHEAT CROP","120,112.06946785086294,81.67822043658803,112.12403779992785","4,3,2,1","THISTLE WEED,THISTLE WEED,THISTLE WEED,THISTLE WEED","20,20,20,20","20,20,20,20","10,10,10,10","20,20,20,20","0,0,0,0","20,20,20,20","20,20,20,20","20,20,20,20","10,10,10,10","20,20,20,20","0,0,0,0","20,20,20,20","1,1,0,0","1233,779,700,439","46.96122586963658,-7.517194678558679,0.0753964470841737,71.01594609238191","-7.930532149137061,-30.391247414274897,30.445817363339817,12.28795770933762","0","0"
"406","86","text","0","89","746321","0-0","","","","","","","","","","","","","","","","","","","","","","","","","","","","","","","","","","","","",""
"","","plant-game","0","90","756360","0-0","","200","190","4","WHEAT CROP","Right","200","190","2","NETTLE WEED","experimental","32","1,2,3,4","190,189.31768450186445,180,190.99808777270812","2,1,2,1","NETTLE WEED,NETTLE WEED,THISTLE WEED,THISTLE WEED","190,199.4278463869523,180.0562713911189,171.46724068810857","4,3,2,1","WHEAT CROP,WHEAT CROP,WHEAT CROP,WHEAT CROP","0,0,0,0","20,20,20,20","10,10,10,10","20,20,20,20","20,20,20,20","20,20,20,20","0,0,0,0","20,20,20,20","10,10,10,10","20,20,20,20","20,20,20,20","20,20,20,20","0,0,0,1","1453,2377,1016,959","-0.6823154981355489,22.71421864411552,10.998087772708109,33.64026606980313","9.427846386952295,-19.371574995833388,-8.589030703010348,10.770771745965384","0","0"
"2037","86","text","0","91","758552","0-0","","","","","","","","","","","","","","","","","","","","","","","","","","","","","","","","","","","","",""
"","","plant-game","0","92","769754","0-0","","200","190","8","CORN CROP","Left","200","180","2","THISTLE WEED","experimental","33","1,2,3,4,5,6,7,8","190,157.23547297504933,138.18513338347734,151.8518984808931,190.25831338637744,210.90710812858748,220.32862187049048,230.5976375111565","8,7,6,5,4,3,2,1","CORN CROP,CORN CROP,CORN CROP,CORN CROP,CORN CROP,CORN CROP,CORN CROP,CORN CROP","180,207.65399966146737,140,145.42032925377143,168.0729374527476,214.51318352236387,226.60193768269275,223.282228750407","2,1,6,5,4,3,2,1","THISTLE WEED,THISTLE WEED,NETTLE WEED,NETTLE WEED,NETTLE WEED,NETTLE WEED,NETTLE WEED,NETTLE WEED","20,20,20,20,20,20,20,20","20,20,20,20,20,20,20,20","10,10,10,10,10,10,10,10","20,20,20,20,20,20,20,20","0,0,0,0,0,0,0,0","20,20,20,20,20,20,20,20","20,20,20,20,20,20,20,20","20,20,20,20,20,20,20,20","10,10,10,10,10,10,10,10","20,20,20,20,20,20,20,20","0,0,0,0,0,0,0,0","20,20,20,20,20,20,20,20","0,1,0,0,0,1,1,1","1835,1254,755,339,410,563,348,129","-32.76452702495065,-19.05033959157201,13.666765097415762,38.40641490548434,20.648794742210047,9.421513741903004,10.269015640666028,12.491570369991951","27.653999661467378,9.664853458541726,5.4203292537714365,22.652608198976175,46.44024606961629,12.088754160328888,-3.3197089322857587,-45.25632248592232","0","0"
"408","86","text","0","93","770298","0-0","","","","","","","","","","","","","","","","","","","","","","","","","","","","","","","","","","","","",""
"","","plant-game","0","94","781738","0-0","","200","160","8","CORN CROP","Right","200","190","2","THISTLE WEED","experimental","34","1,2,3,4,5,6,7,8","190,199.98482246485284,140,147.6828815128839,174.71265509319258,223.2902620142657,198.62892604193223,192.6743483689181","2,1,6,5,4,3,2,1","THISTLE WEED,THISTLE WEED,NETTLE WEED,NETTLE WEED,NETTLE WEED,NETTLE WEED,NETTLE WEED,NETTLE WEED","160,150.25995019305347,136.50130187085702,163.39085655437714,186.94211195367163,235.45407599351225,242.44394302682943,265.0123231460398","8,7,6,5,4,3,2,1","CORN CROP,CORN CROP,CORN CROP,CORN CROP,CORN CROP,CORN CROP,CORN CROP,CORN CROP","0,0,0,0,0,0,0,0","20,20,20,20,20,20,20,20","10,10,10,10,10,10,10,10","20,20,20,20,20,20,20,20","20,20,20,20,20,20,20,20","20,20,20,20,20,20,20,20","0,0,0,0,0,0,0,0","20,20,20,20,20,20,20,20","10,10,10,10,10,10,10,10","20,20,20,20,20,20,20,20","20,20,20,20,20,20,20,20","20,20,20,20,20,20,20,20","0,0,1,1,1,0,0,0","2914,660,893,314,272,472,421,334","9.984822464852837,-16.655083430218724,7.6828815128839185,27.029773580308678,48.57760692107313,-24.661335972333475,-5.954577673014133,8.734070438400117","-9.740049806946518,-13.758648322196462,26.88955468352013,23.551255399294483,48.51196403984061,6.989867033317192,22.56838011921037,1.0951797534560965","0","0"
"344","86","text","0","95","782257","0-0","","","","","","","","","","","","","","","","","","","","","","","","","","","","","","","","","","","","",""
"","","plant-game","0","96","793990","0-0","","200","160","8","CORN CROP","Left","200","190","8","THISTLE WEED","experimental","35","1,2,3,4,5,6,7,8","160,188.05623282500835,231.25462806622875,248.2816995342974,252.20335745161523,227.1811895229101,197.4142765276673,219.46213089603265","8,7,6,5,4,3,2,1","CORN CROP,CORN CROP,CORN CROP,CORN CROP,CORN CROP,CORN CROP,CORN CROP,CORN CROP","190,174.3436567771371,201.327280368757,203.53901764190192,191.57437465568438,179.71319930533514,168.13619361014935,149.15776817908153","8,7,6,5,4,3,2,1","THISTLE WEED,THISTLE WEED,THISTLE WEED,THISTLE WEED,THISTLE WEED,THISTLE WEED,THISTLE WEED,THISTLE WEED","20,20,20,20,20,20,20,20","20,20,20,20,20,20,20,20","10,10,10,10,10,10,10,10","20,20,20,20,20,20,20,20","0,0,0,0,0,0,0,0","20,20,20,20,20,20,20,20","20,20,20,20,20,20,20,20","20,20,20,20,20,20,20,20","10,10,10,10,10,10,10,10","20,20,20,20,20,20,20,20","0,0,0,0,0,0,0,0","20,20,20,20,20,20,20,20","0,0,1,1,1,1,0,0","899,736,1802,753,872,669,599,1085","28.056232825008355,43.19839524122041,17.027071468068627,3.9216579173178485,-25.022167928705137,-29.766912995242794,22.047854368365325,20.25666665842857","-15.656343222862887,26.98362359161989,2.211737273144945,-11.964642986217545,-11.861175350349233,-11.57700569518579,-18.978425431067805,15.060478672853133","0","0"
"464","86","text","0","97","794571","0-0","","","","","","","","","","","","","","","","","","","","","","","","","","","","","","","","","","","","",""
"","","plant-game","0","98","805348","0-0","","200","160","4","CORN CROP","Right","200","180","2","NETTLE WEED","experimental","36","1,2,3,4","180,178.14902172716975,180,187.25693316694998","2,1,2,1","NETTLE WEED,NETTLE WEED,THISTLE WEED,THISTLE WEED","160,159.33559919844697,180.5217909080773,202.04432940598613","4,3,2,1","CORN CROP,CORN CROP,CORN CROP,CORN CROP","0,0,0,0","20,20,20,20","10,10,10,10","20,20,20,20","20,20,20,20","20,20,20,20","0,0,0,0","20,20,20,20","10,10,10,10","20,20,20,20","20,20,20,20","20,20,20,20","0,0,1,0","1754,2610,793,741","-1.8509782728302469,-6.691477319531867,7.256933166949972,-3.7017286771353612","-0.6644008015530358,21.186191709630332,21.52253849790884,2.212645255393098","0","0"
"306","86","text","0","99","805781","0-0","","","","","","","","","","","","","","","","","","","","","","","","","","","","","","","","","","","","",""
"","","plant-game","0","100","813582","0-0","","200","190","1","WHEAT CROP","Left","200","160","2","THISTLE WEED","experimental","37","1,2","190,190","1,1","WHEAT CROP,CORN CROP","160,169.13818957177014","2,1","THISTLE WEED,THISTLE WEED","20,20","20,20","10,10","20,20","0,0","20,20","20,20","20,20","10,10","20,20","0,0","20,20","0,0","2623,1218","16.78347150164887,12.539780568556868","9.13818957177015,18.70233225630266","0","0"
"602","86","text","0","101","814374","0-0","","","","","","","","","","","","","","","","","","","","","","","","","","","","","","","","","","","","",""
"","","plant-game","0","102","836397","0-0","","200","190","2","CORN CROP","Right","200","180","8","THISTLE WEED","experimental","38","1,2,3,4,5,6,7,8","180,206.24631583378704,187.7028878131379,185.527835618763,175.2336491876287,186.04884440970147,211.74800810841006,207.45166397774406","8,7,6,5,4,3,2,1","THISTLE WEED,THISTLE WEED,THISTLE WEED,THISTLE WEED,THISTLE WEED,THISTLE WEED,THISTLE WEED,THISTLE WEED","190,207.97776716532465,140,135.30278737038375,151.25450984984644,199.68378589710719,159.78395296744847,201.07792073935914","2,1,6,5,4,3,2,1","CORN CROP,CORN CROP,WHEAT CROP,WHEAT CROP,WHEAT CROP,WHEAT CROP,WHEAT CROP,WHEAT CROP","0,0,0,0,0,0,0,0","20,20,20,20,20,20,20,20","10,10,10,10,10,10,10,10","20,20,20,20,20,20,20,20","20,20,20,20,20,20,20,20","20,20,20,20,20,20,20,20","0,0,0,0,0,0,0,0","20,20,20,20,20,20,20,20","10,10,10,10,10,10,10,10","20,20,20,20,20,20,20,20","20,20,20,20,20,20,20,20","20,20,20,20,20,20,20,20","1,0,0,1,1,0,1,0","6165,1145,577,1965,600,1249,1113,1032","26.24631583378703,-18.543428020649138,-2.1750521943749055,-10.294186431134275,10.815195222072752,25.69916369870859,-4.296344130665997,26.679224109596866","17.977767165324643,-0.634020937904028,-4.6972126296162555,15.951722479462699,48.42927604726074,-39.89983292965871,41.29396777191068,-12.751428584277228","0","0"
"410","86","text","0","103","836949","0-0","","","","","","","","","","","","","","","","","","","","","","","","","","","","","","","","","","","","",""
"","","plant-game","0","104","847791","0-0","","200","120","2","CORN CROP","Right","200","160","8","NETTLE WEED","experimental","39","1,2,3,4,5,6,7,8","160,152.3034314102513,167.93355617118934,157.00063806097194,116.14112045836094,129.770672238622,133.71490857623786,129.79798330158073","8,7,6,5,4,3,2,1","NETTLE WEED,NETTLE WEED,NETTLE WEED,NETTLE WEED,NETTLE WEED,NETTLE WEED,NETTLE WEED,NETTLE WEED","120,111.51787144520283,140,128.88822509982197,120.30453528549953,160.19818859839242,177.00219251062123,187.07283465170164","2,1,6,5,4,3,2,1","CORN CROP,CORN CROP,WHEAT CROP,WHEAT CROP,WHEAT CROP,WHEAT CROP,WHEAT CROP,WHEAT CROP","0,0,0,0,0,0,0,0","20,20,20,20,20,20,20,20","10,10,10,10,10,10,10,10","20,20,20,20,20,20,20,20","20,20,20,20,20,20,20,20","20,20,20,20,20,20,20,20","0,0,0,0,0,0,0,0","20,20,20,20,20,20,20,20","10,10,10,10,10,10,10,10","20,20,20,20,20,20,20,20","20,20,20,20,20,20,20,20","20,20,20,20,20,20,20,20","0,1,0,0,1,1,1,1","1429,636,536,431,770,328,310,615","-7.6965685897486855,15.630124760938036,-10.932918110217402,-40.85951760261099,13.629551780261071,3.944236337615859,-3.9169252746571246,19.599627957887606","-8.482128554797175,18.038697906273722,-11.11177490017803,-8.583689814322437,39.8936533128929,16.80400391222881,10.070642141080425,-0.21415821445894068","0","0"
"505","86","text","0","105","848446","0-0","","","","","","","","","","","","","","","","","","","","","","","","","","","","","","","","","","","","",""
"","","plant-game","0","106","863663","0-0","","200","120","8","CORN CROP","Left","200","160","4","THISTLE WEED","experimental","40","1,2,3,4,5,6,7,8","120,127.91306711758376,143.21379844141356,163.62388296196065,178.7236933050383,194.7819796663382,234.85705710488298,216.8699205751322","8,7,6,5,4,3,2,1","CORN CROP,CORN CROP,CORN CROP,CORN CROP,CORN CROP,CORN CROP,CORN CROP,CORN CROP","160,159.14610554530236,145.55794952112902,131.40848149029287,160,164.82077993173192,178.62540235489865,199.6309593425451","4,3,2,1,4,3,2,1","THISTLE WEED,THISTLE WEED,THISTLE WEED,THISTLE WEED,NETTLE WEED,NETTLE WEED,NETTLE WEED,NETTLE WEED","20,20,20,20,20,20,20,20","20,20,20,20,20,20,20,20","10,10,10,10,10,10,10,10","20,20,20,20,20,20,20,20","0,0,0,0,0,0,0,0","20,20,20,20,20,20,20,20","20,20,20,20,20,20,20,20","20,20,20,20,20,20,20,20","10,10,10,10,10,10,10,10","20,20,20,20,20,20,20,20","0,0,0,0,0,0,0,0","20,20,20,20,20,20,20,20","0,0,1,0,0,0,1,1","1449,532,2586,954,679,495,2012,1188","7.913067117583763,15.300731323829783,20.410084520547095,15.09981034307764,16.058286361299906,40.07507743854477,-17.98713652975078,-13.35987487084395","-0.853894454697631,-13.588156024173344,-14.149468030836145,44.628195044682485,4.82077993173192,13.804622423166723,21.00555698764647,17.98659420558067","0","0"
"454","86","text","0","107","864207","0-0","","","","","","","","","","","","","","","","","","","","","","","","","","","","","","","","","","","","",""
"","","plant-game","0","108","873988","0-0","","200","180","2","WHEAT CROP","Right","200","190","4","NETTLE WEED","experimental","41","1,2,3,4","190,187.15448042762483,193.99959573715415,178.0444671082606","4,3,2,1","NETTLE WEED,NETTLE WEED,NETTLE WEED,NETTLE WEED","180,191.24039955768063,180,159.8893054312816","2,1,2,1","WHEAT CROP,WHEAT CROP,CORN CROP,CORN CROP","0,0,0,0","20,20,20,20","10,10,10,10","20,20,20,20","20,20,20,20","20,20,20,20","0,0,0,0","20,20,20,20","10,10,10,10","20,20,20,20","20,20,20,20","20,20,20,20","1,0,0,0","2719,1210,913,574","-2.845519572375167,6.845115309529323,-15.955128628893567,7.6037504718290165","11.240399557680618,-2.0531317861515666,-20.11069456871841,-6.378470225781136","0","0"
"439","86","text","0","109","874527","0-0","","","","","","","","","","","","","","","","","","","","","","","","","","","","","","","","","","","","",""
"","","plant-game","0","110","883413","0-0","","200","160","1","WHEAT CROP","Left","200","180","2","NETTLE WEED","experimental","42","1,2","160,190","1,1","WHEAT CROP,CORN CROP","180,179.7198016413878","2,1","NETTLE WEED,NETTLE WEED","20,20","20,20","10,10","20,20","0,0","20,20","20,20","20,20","10,10","20,20","0,0","20,20","1,0","4012,854","-2.8693414069713836,30.228506081071387","-0.2801983586122124,28.649280037624028","0","0"
"453","86","text","0","111","883976","0-0","","","","","","","","","","","","","","","","","","","","","","","","","","","","","","","","","","","","",""
"","","plant-game","0","112","895664","0-0","","200","160","2","WHEAT CROP","Right","200","120","8","THISTLE WEED","experimental","43","1,2,3,4,5,6,7,8","120,81.67804193507999,69.01990058999334,90.40419490239063,104.5639529709742,145.3546528119698,225.38354084986358,274.33628427284157","8,7,6,5,4,3,2,1","THISTLE WEED,THISTLE WEED,THISTLE WEED,THISTLE WEED,THISTLE WEED,THISTLE WEED,THISTLE WEED,THISTLE WEED","160,144.16922263880792,140,110.11243010678433,102.13651992901202,122.80611547447893,146.68545404320415,190.52106445843438","2,1,6,5,4,3,2,1","WHEAT CROP,WHEAT CROP,CORN CROP,CORN CROP,CORN CROP,CORN CROP,CORN CROP,CORN CROP","0,0,0,0,0,0,0,0","20,20,20,20,20,20,20,20","10,10,10,10,10,10,10,10","20,20,20,20,20,20,20,20","20,20,20,20,20,20,20,20","20,20,20,20,20,20,20,20","0,0,0,0,0,0,0,0","20,20,20,20,20,20,20,20","10,10,10,10,10,10,10,10","20,20,20,20,20,20,20,20","20,20,20,20,20,20,20,20","20,20,20,20,20,20,20,20","0,0,1,0,1,1,1,1","1174,403,554,778,1973,340,582,228","-38.32195806492001,-12.658141345086644,21.384294312397284,14.159758068583567,40.790699840995615,80.02888803789378,48.952743422977974,19.559855429377162","-15.83077736119209,-35.66033944978483,-29.88756989321567,-7.975910177772311,20.66959554546691,23.879338568725217,43.835610415230235,14.350716703411553","0","0"
"439","86","text","0","113","896253","0-0","","","","","","","","","","","","","","","","","","","","","","","","","","","","","","","","","","","","",""
"","","plant-game","0","114","916417","0-0","","200","120","1","WHEAT CROP","Right","200","160","2","NETTLE WEED","experimental","44","1,2","160,206.08927198815292","2,1","NETTLE WEED,NETTLE WEED","120,190","1,1","WHEAT CROP,CORN CROP","0,0","20,20","10,10","20,20","20,20","20,20","0,0","20,20","10,10","20,20","20,20","20,20","1,1","2002,682","46.08927198815293,20.598925390474765","52.01020788520265,43.46274546444202","0","0"
"1046","86","text","0","115","917613","0-0","","","","","","","","","","","","","","","","","","","","","","","","","","","","","","","","","","","","",""
"","","plant-game","0","116","930758","0-0","","200","190","4","CORN CROP","Left","200","160","8","NETTLE WEED","experimental","45","1,2,3,4,5,6,7,8","190,200.46598336952337,235.49758428214602,241.59841928732885,160,171.58714200567778,175.0042620416097,193.35432743789102","4,3,2,1,4,3,2,1","CORN CROP,CORN CROP,CORN CROP,CORN CROP,WHEAT CROP,WHEAT CROP,WHEAT CROP,WHEAT CROP","160,171.40860068729376,182.1119181417564,175.86265401430674,146.78780733359213,153.5706889386223,155.94969594989684,175.6222817997696","8,7,6,5,4,3,2,1","NETTLE WEED,NETTLE WEED,NETTLE WEED,NETTLE WEED,NETTLE WEED,NETTLE WEED,NETTLE WEED,NETTLE WEED","20,20,20,20,20,20,20,20","20,20,20,20,20,20,20,20","10,10,10,10,10,10,10,10","20,20,20,20,20,20,20,20","0,0,0,0,0,0,0,0","20,20,20,20,20,20,20,20","20,20,20,20,20,20,20,20","20,20,20,20,20,20,20,20","10,10,10,10,10,10,10,10","20,20,20,20,20,20,20,20","0,0,0,0,0,0,0,0","20,20,20,20,20,20,20,20","0,0,1,1,0,0,0,0","2098,2276,934,695,712,479,392,651","10.465983369523363,35.03160091262264,6.100835005182832,-42.574047580942235,11.587142005677771,3.4171200359319442,18.350065396281302,34.78988970062848","11.408600687293745,10.703317454462644,-6.249264127449656,-29.07484668071462,6.782881605030177,2.379007011274524,19.67258584987278,47.100698519698","0","0"
"436","86","text","0","117","931304","0-0","","","","","","","","","","","","","","","","","","","","","","","","","","","","","","","","","","","","",""
"","","plant-game","0","118","942789","0-0","","200","180","4","CORN CROP","Right","200","180","8","NETTLE WEED","experimental","46","1,2,3,4,5,6,7,8","180,213.1800705791672,228.7263370127487,215.58950074845995,217.6388157996656,192.98822834044293,185.38766912803422,222.4719153082737","8,7,6,5,4,3,2,1","NETTLE WEED,NETTLE WEED,NETTLE WEED,NETTLE WEED,NETTLE WEED,NETTLE WEED,NETTLE WEED,NETTLE WEED","180,144.53319316322748,171.8374949129074,168.7346442022297,160,171.73379143453346,159.78135295943468,162.19705352891972","4,3,2,1,4,3,2,1","CORN CROP,CORN CROP,CORN CROP,CORN CROP,WHEAT CROP,WHEAT CROP,WHEAT CROP,WHEAT CROP","0,0,0,0,0,0,0,0","20,20,20,20,20,20,20,20","10,10,10,10,10,10,10,10","20,20,20,20,20,20,20,20","20,20,20,20,20,20,20,20","20,20,20,20,20,20,20,20","0,0,0,0,0,0,0,0","20,20,20,20,20,20,20,20","10,10,10,10,10,10,10,10","20,20,20,20,20,20,20,20","20,20,20,20,20,20,20,20","20,20,20,20,20,20,20,20","1,0,0,0,0,0,1,0","2095,1662,354,382,525,325,603,944","33.18007057916721,15.546266433581518,-13.136836264288736,2.0493150512056384,-24.65058745922267,-7.6005592124087205,37.084246180239504,4.554374169183683","-35.46680683677252,27.304301749679922,-3.102850710677707,29.03354093246815,11.73379143453346,-11.95243847509876,2.415700569485036,5.263158172704507","0","0"
"655","86","text","0","119","943534","0-0","","","","","","","","","","","","","","","","","","","","","","","","","","","","","","","","","","","","",""
"","","plant-game","0","120","948546","0-0","","200","180","2","WHEAT CROP","Right","200","120","2","THISTLE WEED","experimental","47","1,2","120,111.83919420204928","2,1","THISTLE WEED,THISTLE WEED","180,180.33828886016875","2,1","WHEAT CROP,WHEAT CROP","0,0","20,20","10,10","20,20","20,20","20,20","0,0","20,20","10,10","20,20","20,20","20,20","0,1","957,1199","-8.16080579795072,6.025006074918606","0.3382888601687525,29.73198364599847","0","0"
"521","86","text","0","121","949237","0-0","","","","","","","","","","","","","","","","","","","","","","","","","","","","","","","","","","","","",""
"","","plant-game","0","122","959969","0-0","","200","180","8","CORN CROP","Left","200","160","8","THISTLE WEED","experimental","48","1,2,3,4,5,6,7,8","180,171.5496574017218,155.67485899352604,176.49189857319664,205.6632063579095,220.32280117095726,224.09695852719878,217.43873496618778","8,7,6,5,4,3,2,1","CORN CROP,CORN CROP,CORN CROP,CORN CROP,CORN CROP,CORN CROP,CORN CROP,CORN CROP","160,170.65082154018756,168.78156210540848,221.88530255634333,244.70040718819007,210.20925385954683,241.6000672663521,253.27801192849472","8,7,6,5,4,3,2,1","THISTLE WEED,THISTLE WEED,THISTLE WEED,THISTLE WEED,THISTLE WEED,THISTLE WEED,THISTLE WEED,THISTLE WEED","20,20,20,20,20,20,20,20","20,20,20,20,20,20,20,20","10,10,10,10,10,10,10,10","20,20,20,20,20,20,20,20","0,0,0,0,0,0,0,0","20,20,20,20,20,20,20,20","20,20,20,20,20,20,20,20","20,20,20,20,20,20,20,20","10,10,10,10,10,10,10,10","20,20,20,20,20,20,20,20","0,0,0,0,0,0,0,0","20,20,20,20,20,20,20,20","0,0,0,0,1,1,1,1","3335,601,517,520,898,598,619,458","-8.450342598278201,-15.874798408195744,20.8170395796706,29.171307784712873,14.659594813047768,3.774157356241524,-6.6582235610110105,-4.791399318650187","10.65082154018756,-1.869259434779078,53.10374045093485,22.81510463184675,-34.49115332864325,31.390813406805282,11.677944662142604,4.867683155652333","0","0"
"5091","86","text","0","123","965200","0-0","","","","","","","","","","","","","","","","","","","","","","","","","","","","","","","","","","","","",""
"","","plant-game","0","124","977942","0-0","","200","120","8","WHEAT CROP","Left","200","190","1","THISTLE WEED","experimental","49","1,2,3,4,5,6,7,8","120,113.29290909483494,127.3892123483783,142.2034702832663,162.3365376090916,180.69156440797403,183.7452553360003,142.50601533473238","8,7,6,5,4,3,2,1","WHEAT CROP,WHEAT CROP,WHEAT CROP,WHEAT CROP,WHEAT CROP,WHEAT CROP,WHEAT CROP,WHEAT CROP","190,130,168.65520235623353,153.35419747511648,229.8908323470671,218.95165403281754,217.54489982632077,199.1466682944896","1,7,6,5,4,3,2,1","THISTLE WEED,NETTLE WEED,NETTLE WEED,NETTLE WEED,NETTLE WEED,NETTLE WEED,NETTLE WEED,NETTLE WEED","20,20,20,20,20,20,20,20","20,20,20,20,20,20,20,20","10,10,10,10,10,10,10,10","20,20,20,20,20,20,20,20","0,0,0,0,0,0,0,0","20,20,20,20,20,20,20,20","20,20,20,20,20,20,20,20","20,20,20,20,20,20,20,20","10,10,10,10,10,10,10,10","20,20,20,20,20,20,20,20","0,0,0,0,0,0,0,0","20,20,20,20,20,20,20,20","1,0,1,0,1,1,1,1","4685,1610,657,460,448,226,200,130","-6.707090905165058,14.096303253543361,14.814257934888023,20.1330673258253,18.35502679888243,3.053690928026274,-41.239240001267916,-31.640945966204153","47.008029307374855,38.655202356233545,-15.301004881117057,76.53663487195061,-10.939178314249542,-1.4067542064967777,-18.398231531831183,24.02497570940473","0","0"
"579","86","text","0","125","978706","0-0","","","","","","","","","","","","","","","","","","","","","","","","","","","","","","","","","","","","",""
"","","plant-game","0","126","987874","0-0","","200","180","1","CORN CROP","Left","200","180","2","THISTLE WEED","experimental","50","1,2","180,190","1,1","CORN CROP,WHEAT CROP","180,171.40226657761187","2,1","THISTLE WEED,THISTLE WEED","20,20","20,20","10,10","20,20","0,0","20,20","20,20","20,20","10,10","20,20","0,0","20,20","1,0","2792,414","-7.523841795537731,17.7035397826661","-8.597733422388119,6.982515478027434","0","0"
"436","86","text","0","127","988430","0-0","","","","","","","","","","","","","","","","","","","","","","","","","","","","","","","","","","","","",""
"","","plant-game","0","128","996742","0-0","","200","190","4","CORN CROP","Right","200","120","4","NETTLE WEED","experimental","51","1,2,3,4","120,116.16880468327787,123.37812979981953,146.7101645806164","4,3,2,1","NETTLE WEED,NETTLE WEED,NETTLE WEED,NETTLE WEED","190,181.72992788370522,179.4851508021752,212.24125090629212","4,3,2,1","CORN CROP,CORN CROP,CORN CROP,CORN CROP","0,0,0,0","20,20,20,20","10,10,10,10","20,20,20,20","20,20,20,20","20,20,20,20","0,0,0,0","20,20,20,20","10,10,10,10","20,20,20,20","20,20,20,20","20,20,20,20","0,0,1,1","1230,2290,607,923","-3.8311953167221278,7.209325116541657,23.33203478079688,7.118872988703028","-8.270072116294779,-2.2447770815300103,32.756100104116896,-5.264822131545831","0","0"
"311","86","text","0","129","997195","0-0","","","","","","","","","","","","","","","","","","","","","","","","","","","","","","","","","","","","",""
"","","plant-game","0","130","1008308","0-0","","200","120","4","CORN CROP","Right","200","190","8","THISTLE WEED","experimental","52","1,2,3,4,5,6,7,8","190,151.40882813990208,122.00280942836277,155.6682622531432,144.53134918706405,158.27133618313152,146.70643436759633,165.00868009499592","8,7,6,5,4,3,2,1","THISTLE WEED,THISTLE WEED,THISTLE WEED,THISTLE WEED,THISTLE WEED,THISTLE WEED,THISTLE WEED,THISTLE WEED","120,113.9524141083654,93.89188117240434,127.60028123819785,160,171.05311078641162,208.94645707374642,213.0951388594556","4,3,2,1,4,3,2,1","CORN CROP,CORN CROP,CORN CROP,CORN CROP,WHEAT CROP,WHEAT CROP,WHEAT CROP,WHEAT CROP","0,0,0,0,0,0,0,0","20,20,20,20,20,20,20,20","10,10,10,10,10,10,10,10","20,20,20,20,20,20,20,20","20,20,20,20,20,20,20,20","20,20,20,20,20,20,20,20","0,0,0,0,0,0,0,0","20,20,20,20,20,20,20,20","10,10,10,10,10,10,10,10","20,20,20,20,20,20,20,20","20,20,20,20,20,20,20,20","20,20,20,20,20,20,20,20","0,0,1,0,1,1,1,1","970,666,478,441,600,427,1317,695","-38.59117186009792,-29.406018711539318,33.66545282478043,-11.13691306607917,13.739986996067472,-11.564901815535183,18.302245727399583,2.490739520123139","-6.0475858916346015,-20.06053293596107,33.70840006579352,4.424664606107347,11.053110786411626,37.8933462873348,4.1486817857091935,42.095211223289866","0","0"
"365","86","text","0","131","1008783","0-0","","","","","","","","","","","","","","","","","","","","","","","","","","","","","","","","","","","","",""
"","","plant-game","0","132","1024123","0-0","","200","120","1","WHEAT CROP","Left","200","190","8","THISTLE WEED","experimental","53","1,2,3,4,5,6,7,8","120,130,152.17540731737972,148.5066258025805,144.48547966432596,161.14208570399958,163.7255101227236,205.72714437534066","1,7,6,5,4,3,2,1","WHEAT CROP,CORN CROP,CORN CROP,CORN CROP,CORN CROP,CORN CROP,CORN CROP,CORN CROP","190,193.93099448139128,203.25078446056372,189.09305544557682,224.39635457886516,260.08983066667486,275.20679489062405,271.509773880804","8,7,6,5,4,3,2,1","THISTLE WEED,THISTLE WEED,THISTLE WEED,THISTLE WEED,THISTLE WEED,THISTLE WEED,THISTLE WEED,THISTLE WEED","20,20,20,20,20,20,20,20","20,20,20,20,20,20,20,20","10,10,10,10,10,10,10,10","20,20,20,20,20,20,20,20","0,0,0,0,0,0,0,0","20,20,20,20,20,20,20,20","20,20,20,20,20,20,20,20","20,20,20,20,20,20,20,20","10,10,10,10,10,10,10,10","20,20,20,20,20,20,20,20","0,0,0,0,0,0,0,0","20,20,20,20,20,20,20,20","1,0,0,0,1,0,0,0","2472,3584,804,590,538,370,266,169","11.164731537107382,22.175407317379715,-3.6687815147992318,-4.021146138254515,16.65660603967361,2.5834244187240074,42.001634252617066,28.803319341101556","3.9309944813912736,9.31978997917245,-14.157729014986892,35.303299133288334,35.693476087809685,15.116964223949214,-3.6970210098200766,-5.341117745297176","0","0"
"222","86","text","0","133","1024505","0-0","","","","","","","","","","","","","","","","","","","","","","","","","","","","","","","","","","","","",""
"","","plant-game","0","134","1034618","0-0","","200","190","4","CORN CROP","Left","200","120","2","NETTLE WEED","experimental","54","1,2,3,4","190,198.0890703239892,203.27755060223234,190.5837988555587","4,3,2,1","CORN CROP,CORN CROP,CORN CROP,CORN CROP","120,97.37832200589521,180,176.4890371846473","2,1,2,1","NETTLE WEED,NETTLE WEED,THISTLE WEED,THISTLE WEED","20,20,20,20","20,20,20,20","10,10,10,10","20,20,20,20","0,0,0,0","20,20,20,20","20,20,20,20","20,20,20,20","10,10,10,10","20,20,20,20","0,0,0,0","20,20,20,20","0,0,1,0","2180,694,1248,468","8.089070323989208,5.188480278243134,-12.693751746673637,10.042575686496045","-22.621677994104786,52.954550559385844,-3.5109628153527157,23.51886872786116","0","0"
"500","86","text","0","135","1035218","0-0","","","","","","","","","","","","","","","","","","","","","","","","","","","","","","","","","","","","",""
"","","plant-game","0","136","1042727","0-0","","200","160","1","WHEAT CROP","Right","200","180","4","NETTLE WEED","experimental","55","1,2,3,4","180,213.45950012463837,219.9316064068463,240.52256188888953","4,3,2,1","NETTLE WEED,NETTLE WEED,NETTLE WEED,NETTLE WEED","160,170,184.72372794841024,215.7003124811504","1,3,2,1","WHEAT CROP,CORN CROP,CORN CROP,CORN CROP","0,0,0,0","20,20,20,20","10,10,10,10","20,20,20,20","20,20,20,20","20,20,20,20","0,0,0,0","20,20,20,20","10,10,10,10","20,20,20,20","20,20,20,20","20,20,20,20","1,1,1,0","990,1535,412,376","33.45950012463837,6.472106282207941,20.590955482043217,45.659778294398336","-0.9062966388559133,14.723727948410247,30.976584532740162,-3.960117862118561","0","0"
"454","86","text","0","137","1043301","0-0","","","","","","","","","","","","","","","","","","","","","","","","","","","","","","","","","","","","",""
"","","plant-game","0","138","1052437","0-0","","200","120","1","CORN CROP","Right","200","180","4","THISTLE WEED","experimental","56","1,2,3,4","180,187.915861990897,197.74300666127382,211.3385572421873","4,3,2,1","THISTLE WEED,THISTLE WEED,THISTLE WEED,THISTLE WEED","120,170,201.84822671930573,184.8434027441633","1,3,2,1","CORN CROP,WHEAT CROP,WHEAT CROP,WHEAT CROP","0,0,0,0","20,20,20,20","10,10,10,10","20,20,20,20","20,20,20,20","20,20,20,20","0,0,0,0","20,20,20,20","10,10,10,10","20,20,20,20","20,20,20,20","20,20,20,20","0,1,0,0","823,1905,839,765","7.915861990897009,9.827144670376821,13.59555058091348,-6.802376941478773","-29.20641568779039,31.84822671930572,-17.004823975142415,-4.3950356161411115","0","0"
"540","86","text","0","139","1053107","0-0","","","","","","","","","","","","","","","","","","","","","","","","","","","","","","","","","","","","",""
"","","plant-game","0","140","1060827","0-0","","200","160","4","CORN CROP","Right","200","120","4","NETTLE WEED","experimental","57","1,2,3,4","120,153.76900973454383,132.39116269066534,123.57730887658346","4,3,2,1","NETTLE WEED,NETTLE WEED,NETTLE WEED,NETTLE WEED","160,200.75193151445967,211.21704271002966,231.9795275001613","4,3,2,1","CORN CROP,CORN CROP,CORN CROP,CORN CROP","0,0,0,0","20,20,20,20","10,10,10,10","20,20,20,20","20,20,20,20","20,20,20,20","0,0,0,0","20,20,20,20","10,10,10,10","20,20,20,20","20,20,20,20","20,20,20,20","1,1,1,1","1510,1470,985,641","33.76900973454384,-21.377847043878475,-8.813853814081885,56.02964427707453","40.751931514459685,10.465111195569976,20.76248479013164,37.61712372644034","0","0"
"408","86","text","0","141","1061375","0-0","","","","","","","","","","","","","","","","","","","","","","","","","","","","","","","","","","","","",""
"","","plant-game","0","142","1069804","0-0","","200","120","4","WHEAT CROP","Right","200","190","2","THISTLE WEED","experimental","58","1,2,3,4","190,159.9428734293614,180,195.45871286733856","2,1,2,1","THISTLE WEED,THISTLE WEED,NETTLE WEED,NETTLE WEED","120,103.67222492123707,80.62388269396749,54.30201632954284","4,3,2,1","WHEAT CROP,WHEAT CROP,WHEAT CROP,WHEAT CROP","0,0,0,0","20,20,20,20","10,10,10,10","20,20,20,20","20,20,20,20","20,20,20,20","0,0,0,0","20,20,20,20","10,10,10,10","20,20,20,20","20,20,20,20","20,20,20,20","0,1,0,1","1506,1262,815,1023","-30.057126570638594,22.086739311338,15.458712867338571,6.6670105069098025","-16.327775078762933,-23.048342227269593,-26.32186636442465,22.758267804261724","0","0"
"506","86","text","0","143","1070460","0-0","","","","","","","","","","","","","","","","","","","","","","","","","","","","","","","","","","","","",""
"","","plant-game","0","144","1078643","0-0","","200","180","4","WHEAT CROP","Right","200","190","4","NETTLE WEED","experimental","59","1,2,3,4","190,202.05153041825923,205.68306504543762,205.66200370293197","4,3,2,1","NETTLE WEED,NETTLE WEED,NETTLE WEED,NETTLE WEED","180,210.56212217865198,201.4617686901312,198.37030920948663","4,3,2,1","WHEAT CROP,WHEAT CROP,WHEAT CROP,WHEAT CROP","0,0,0,0","20,20,20,20","10,10,10,10","20,20,20,20","20,20,20,20","20,20,20,20","0,0,0,0","20,20,20,20","10,10,10,10","20,20,20,20","20,20,20,20","20,20,20,20","1,0,0,0","2410,1417,433,498","12.05153041825923,3.631534627178371,-0.02106134250564076,-7.521786177880499","30.56212217865197,-9.10035348852077,-3.0914594806445805,11.377071101083327","0","0"
"537","86","text","0","145","1079340","0-0","","","","","","","","","","","","","","","","","","","","","","","","","","","","","","","","","","","","",""
"","","plant-game","0","146","1086666","0-0","","200","190","2","CORN CROP","Right","200","190","1","THISTLE WEED","experimental","60","1,2","190,190","1,1","THISTLE WEED,NETTLE WEED","190,178.6652039138895","2,1","CORN CROP,CORN CROP","0,0","20,20","10,10","20,20","20,20","20,20","0,0","20,20","10,10","20,20","20,20","20,20","1,1","2485,1603","59.297684729863725,-16.36843011275498","-11.334796086110487,33.51617928396823","0","0"
"471","86","text","0","147","1087287","0-0","","","","","","","","","","","","","","","","","","","","","","","","","","","","","","","","","","","","",""
"","","plant-game","0","148","1099450","0-0","","200","120","1","WHEAT CROP","Right","200","120","8","NETTLE WEED","experimental","61","1,2,3,4,5,6,7,8","120,119.55621452628154,135.81099930715598,166.68582077158803,167.97712850487076,156.2722764853302,138.28633924633627,148.49072910286634","8,7,6,5,4,3,2,1","NETTLE WEED,NETTLE WEED,NETTLE WEED,NETTLE WEED,NETTLE WEED,NETTLE WEED,NETTLE WEED,NETTLE WEED","120,130,172.4641870207601,215.9965869376091,243.26206081534272,269.4711443477676,279.25280275004053,284.7280481891674","1,7,6,5,4,3,2,1","WHEAT CROP,CORN CROP,CORN CROP,CORN CROP,CORN CROP,CORN CROP,CORN CROP,CORN CROP","0,0,0,0,0,0,0,0","20,20,20,20,20,20,20,20","10,10,10,10,10,10,10,10","20,20,20,20,20,20,20,20","20,20,20,20,20,20,20,20","20,20,20,20,20,20,20,20","0,0,0,0,0,0,0,0","20,20,20,20,20,20,20,20","10,10,10,10,10,10,10,10","20,20,20,20,20,20,20,20","20,20,20,20,20,20,20,20","20,20,20,20,20,20,20,20","1,1,1,0,0,0,0,0","1289,1030,471,1107,674,415,407,471","-0.44378547371846366,16.25478478087445,30.874821464432042,1.2913077332827476,-11.70485201954057,-17.985937238993934,10.204389856530081,13.679821959245563","45.87720074978465,42.4641870207601,43.53239991684899,27.265473877733637,26.20908353242489,9.78165840227293,5.475245439126844,5.272590227383009","0","0"
"531","86","text","0","149","1100131","0-0","","","","","","","","","","","","","","","","","","","","","","","","","","","","","","","","","","","","",""
"","","plant-game","0","150","1113629","0-0","","200","120","8","WHEAT CROP","Right","200","120","4","NETTLE WEED","experimental","62","1,2,3,4,5,6,7,8","120,166.13922213999518,194.70009657298888,171.15464468931225,160,162.3449785682874,193.29380027772825,189.39815770616508","4,3,2,1,4,3,2,1","NETTLE WEED,NETTLE WEED,NETTLE WEED,NETTLE WEED,THISTLE WEED,THISTLE WEED,THISTLE WEED,THISTLE WEED","120,160.75118445835625,202.50517267558442,207.70438192059459,197.2386300396542,218.60296150991047,251.80213689343034,277.43548756057635","8,7,6,5,4,3,2,1","WHEAT CROP,WHEAT CROP,WHEAT CROP,WHEAT CROP,WHEAT CROP,WHEAT CROP,WHEAT CROP,WHEAT CROP","0,0,0,0,0,0,0,0","20,20,20,20,20,20,20,20","10,10,10,10,10,10,10,10","20,20,20,20,20,20,20,20","20,20,20,20,20,20,20,20","20,20,20,20,20,20,20,20","0,0,0,0,0,0,0,0","20,20,20,20,20,20,20,20","10,10,10,10,10,10,10,10","20,20,20,20,20,20,20,20","20,20,20,20,20,20,20,20","20,20,20,20,20,20,20,20","1,1,0,0,1,1,0,0","2134,309,2282,453,736,909,546,727","46.13922213999519,28.5608744329937,-23.54545188367663,5.3224417312868075,2.344978568287395,30.948821709440868,-3.8956425715631804,-0.037714894724457666","40.751184458356235,41.753988217228176,5.19920924501017,-10.465751880940374,21.364331470256268,33.19917538351987,25.633350667146,-2.7597988549096906","0","0"
"405","86","text","0","151","1114124","0-0","","","","","","","","","","","","","","","","","","","","","","","","","","","","","","","","","","","","",""
"","","plant-game","0","152","1121009","0-0","","200","160","1","CORN CROP","Left","200","180","1","THISTLE WEED","experimental","63","1","160","1","CORN CROP","180","1","THISTLE WEED","20","20","10","20","0","20","20","20","10","20","0","20","1","4281","-11.280933460746239","15.11418725565109","0","0"
"238","86","text","0","153","1121397","0-0","","","","","","","","","","","","","","","","","","","","","","","","","","","","","","","","","","","","",""
"","","plant-game","0","154","1132961","0-0","","200","190","1","WHEAT CROP","Right","200","120","8","NETTLE WEED","experimental","64","1,2,3,4,5,6,7,8","120,115.45112799894764,109.06018919471555,117.87888230857045,119.40112936551897,127.97787029876233,193.6300312250996,178.35083321001565","8,7,6,5,4,3,2,1","NETTLE WEED,NETTLE WEED,NETTLE WEED,NETTLE WEED,NETTLE WEED,NETTLE WEED,NETTLE WEED,NETTLE WEED","190,130,103.21507859921303,115.31149271510402,111.13138530921272,99.6742165086334,114.5351582052096,124.76791443719725","1,7,6,5,4,3,2,1","WHEAT CROP,CORN CROP,CORN CROP,CORN CROP,CORN CROP,CORN CROP,CORN CROP,CORN CROP","0,0,0,0,0,0,0,0","20,20,20,20,20,20,20,20","10,10,10,10,10,10,10,10","20,20,20,20,20,20,20,20","20,20,20,20,20,20,20,20","20,20,20,20,20,20,20,20","0,0,0,0,0,0,0,0","20,20,20,20,20,20,20,20","10,10,10,10,10,10,10,10","20,20,20,20,20,20,20,20","20,20,20,20,20,20,20,20","20,20,20,20,20,20,20,20","1,0,0,0,1,1,1,0","2121,926,501,869,1124,563,386,751","-4.548872001052352,-6.3909388042321,8.818693113854904,1.5222470569485163,8.57674093324335,65.65216092633727,-15.27919801508395,2.987721573755939","39.05814849370474,-26.78492140078697,12.096414115891,-4.180107405891311,-11.457168800579318,14.860941696576198,10.232756231987652,12.210271858170785","0","0"
"1306","86","text","0","155","1134397","0-0","","","","","","","","","","","","","","","","","","","","","","","","","","","","","","","","","","","","",""
"","","plant-game","0","156","1138956","0-0","","200","120","1","CORN CROP","Right","200","180","1","THISTLE WEED","experimental","65","1","180","1","THISTLE WEED","120","1","CORN CROP","0","20","10","20","20","20","0","20","10","20","20","20","0","2069","-2.095821225318647","-29.230238311529384","0","0"
"561","86","text","0","157","1139677","0-0","","","","","","","","","","","","","","","","","","","","","","","","","","","","","","","","","","","","",""
"","","plant-game","0","158","1151514","0-0","","200","180","2","CORN CROP","Left","200","180","1","THISTLE WEED","experimental","66","1,2","180,234.36635551226226","2,1","CORN CROP,CORN CROP","180,190","1,1","THISTLE WEED,NETTLE WEED","20,20","20,20","10,10","20,20","0,0","20,20","20,20","20,20","10,10","20,20","0,0","20,20","0,1","1541,5791","54.36635551226225,21.684921589667493","18.908894601239574,-11.147060889892282","0","0"
"530","86","text","0","159","1152174","0-0","","","","","","","","","","","","","","","","","","","","","","","","","","","","","","","","","","","","",""
"","","plant-game","0","160","1166583","0-0","","200","160","8","WHEAT CROP","Left","200","190","1","THISTLE WEED","experimental","67","1,2,3,4,5,6,7,8","160,171.22143522307226,218.54460354230858,226.4922407046242,233.9681157848325,214.9571711592728,174.49112185394932,191.29948324996994","8,7,6,5,4,3,2,1","WHEAT CROP,WHEAT CROP,WHEAT CROP,WHEAT CROP,WHEAT CROP,WHEAT CROP,WHEAT CROP,WHEAT CROP","190,130,166.0424685523688,165.50575927355308,176.47318310241005,206.32004451818477,222.41039144304963,196.20721446853702","1,7,6,5,4,3,2,1","THISTLE WEED,NETTLE WEED,NETTLE WEED,NETTLE WEED,NETTLE WEED,NETTLE WEED,NETTLE WEED,NETTLE WEED","20,20,20,20,20,20,20,20","20,20,20,20,20,20,20,20","10,10,10,10,10,10,10,10","20,20,20,20,20,20,20,20","0,0,0,0,0,0,0,0","20,20,20,20,20,20,20,20","20,20,20,20,20,20,20,20","20,20,20,20,20,20,20,20","10,10,10,10,10,10,10,10","20,20,20,20,20,20,20,20","0,0,0,0,0,0,0,0","20,20,20,20,20,20,20,20","1,0,1,1,1,1,1,0","4399,405,884,473,354,659,1020,692","11.221435223072266,47.32316831923631,7.947637162315643,7.475875080208297,-19.010944625559684,-40.466049305323494,16.808361396020608,15.081771424168064","3.377102956070213,36.04246855236882,-0.5367092788157217,10.967423828856953,29.84686141577472,16.090346924864857,-26.203176974512612,46.252091408871074","0","0"
"363","86","text","0","161","1167086","0-0","","","","","","","","","","","","","","","","","","","","","","","","","","","","","","","","","","","","",""
"","","plant-game","0","162","1178885","0-0","","200","190","1","CORN CROP","Right","200","180","8","THISTLE WEED","experimental","68","1,2,3,4,5,6,7,8","180,200.84733708631006,230.64720517843688,231.45070257271163,214.6454210938353,200.17554267437058,157.37603216911,176.9768203281688","8,7,6,5,4,3,2,1","THISTLE WEED,THISTLE WEED,THISTLE WEED,THISTLE WEED,THISTLE WEED,THISTLE WEED,THISTLE WEED,THISTLE WEED","190,130,153.84933099661657,176.96115306719062,210.19939678679475,216.75720652436908,202.5609463008839,264.7375496324622","1,7,6,5,4,3,2,1","CORN CROP,WHEAT CROP,WHEAT CROP,WHEAT CROP,WHEAT CROP,WHEAT CROP,WHEAT CROP,WHEAT CROP","0,0,0,0,0,0,0,0","20,20,20,20,20,20,20,20","10,10,10,10,10,10,10,10","20,20,20,20,20,20,20,20","20,20,20,20,20,20,20,20","20,20,20,20,20,20,20,20","0,0,0,0,0,0,0,0","20,20,20,20,20,20,20,20","10,10,10,10,10,10,10,10","20,20,20,20,20,20,20,20","20,20,20,20,20,20,20,20","20,20,20,20,20,20,20,20","1,0,0,0,0,0,1,0","1992,1244,302,290,248,317,1542,1188","20.847337086310077,29.799868092126815,0.8034973942747707,-16.80528147887634,-14.469878419464733,-42.79951050526058,19.60078815905881,-5.218770218042211","0.08735777716657722,23.84933099661658,23.111822070574057,33.23824371960414,6.557809737574339,-14.196260223485186,62.17660333157835,-3.6545839711761356","0","0"
"408","86","text","0","163","1179463","0-0","","","","","","","","","","","","","","","","","","","","","","","","","","","","","","","","","","","","",""
"","","plant-game","0","164","1188621","0-0","","200","190","4","WHEAT CROP","Right","200","180","2","THISTLE WEED","experimental","69","1,2,3,4","180,172.42521554447973,180,189.9198362578101","2,1,2,1","THISTLE WEED,THISTLE WEED,NETTLE WEED,NETTLE WEED","190,212.33239780341904,219.12754455123982,215.55444609142313","4,3,2,1","WHEAT CROP,WHEAT CROP,WHEAT CROP,WHEAT CROP","0,0,0,0","20,20,20,20","10,10,10,10","20,20,20,20","20,20,20,20","20,20,20,20","0,0,0,0","20,20,20,20","10,10,10,10","20,20,20,20","20,20,20,20","20,20,20,20","0,0,0,0","1249,1452,760,551","-7.574784455520279,4.003629642014591,9.919836257810088,-8.577181433263878","22.332397803419035,6.795146747820785,-3.573098459816693,-9.183857257178952","0","0"
"279","86","text","0","165","1189050","0-0","","","","","","","","","","","","","","","","","","","","","","","","","","","","","","","","","","","","",""
"","","plant-game","0","166","1198049","0-0","","200","160","4","CORN CROP","Right","200","160","8","THISTLE WEED","experimental","70","1,2,3,4,5,6,7,8","160,169.12362265453314,125.88934210087803,149.61639786336883,164.90887614381387,152.2701074613605,148.58076384365847,173.18797168003306","8,7,6,5,4,3,2,1","THISTLE WEED,THISTLE WEED,THISTLE WEED,THISTLE WEED,THISTLE WEED,THISTLE WEED,THISTLE WEED,THISTLE WEED","160,151.51473467258987,118.17029325517127,159.64356416324298,160,176.08198562232434,159.0293681351552,131.4508003066173","4,3,2,1,4,3,2,1","CORN CROP,CORN CROP,CORN CROP,CORN CROP,WHEAT CROP,WHEAT CROP,WHEAT CROP,WHEAT CROP","0,0,0,0,0,0,0,0","20,20,20,20,20,20,20,20","10,10,10,10,10,10,10,10","20,20,20,20,20,20,20,20","20,20,20,20,20,20,20,20","20,20,20,20,20,20,20,20","0,0,0,0,0,0,0,0","20,20,20,20,20,20,20,20","10,10,10,10,10,10,10,10","20,20,20,20,20,20,20,20","20,20,20,20,20,20,20,20","20,20,20,20,20,20,20,20","0,0,1,1,0,0,1,0","1001,611,924,112,374,159,568,907","9.123622654533147,-43.23428055365512,23.72705576249081,15.292478280445053,-12.638768682453348,-3.6893436177020438,24.607207836374577,20.67095013810414","-8.485265327410126,-33.344441417418594,41.47327090807171,48.473669537269394,16.081985622324343,-17.052617487169123,-27.5785678285379,2.60066108522232","0","0"
"420","86","text","0","167","1198639","0-0","","","","","","","","","","","","","","","","","","","","","","","","","","","","","","","","","","","","",""
"","","plant-game","0","168","1207106","0-0","","200","180","8","WHEAT CROP","Right","200","160","1","NETTLE WEED","experimental","71","1,2,3,4,5,6,7,8","160,130,165.48702011677238,224.6801119096818,237.95853732687243,248.69601924849837,239.16385855356944,234.31566438636096","1,7,6,5,4,3,2,1","NETTLE WEED,THISTLE WEED,THISTLE WEED,THISTLE WEED,THISTLE WEED,THISTLE WEED,THISTLE WEED,THISTLE WEED","180,158.98601303954842,189.2308821967799,165.624186393887,191.3614659220462,237.40633315318797,238.07677988443206,256.9505174560273","8,7,6,5,4,3,2,1","WHEAT CROP,WHEAT CROP,WHEAT CROP,WHEAT CROP,WHEAT CROP,WHEAT CROP,WHEAT CROP,WHEAT CROP","0,0,0,0,0,0,0,0","20,20,20,20,20,20,20,20","10,10,10,10,10,10,10,10","20,20,20,20,20,20,20,20","20,20,20,20,20,20,20,20","20,20,20,20,20,20,20,20","0,0,0,0,0,0,0,0","20,20,20,20,20,20,20,20","10,10,10,10,10,10,10,10","20,20,20,20,20,20,20,20","20,20,20,20,20,20,20,20","20,20,20,20,20,20,20,20","0,1,1,0,1,0,0,0","1140,759,234,518,52,828,364,363","22.679735301988284,35.4870201167724,59.19309179290942,13.278425417190626,10.73748192162595,-9.532160694928931,-4.8481941672084865,-14.361096443331451","-21.01398696045157,30.244869157231484,-23.60669580289293,25.737279528159217,46.044867231141794,0.6704467312440734,18.87373757159522,-32.625898821731255","0","0"
"287","86","text","0","169","1207533","0-0","","","","","","","","","","","","","","","","","","","","","","","","","","","","","","","","","","","","",""
"","","plant-game","0","170","1213222","0-0","","200","190","1","WHEAT CROP","Left","200","160","1","THISTLE WEED","experimental","72","1","190","1","WHEAT CROP","160","1","THISTLE WEED","20","20","10","20","0","20","20","20","10","20","0","20","0","3400","-2.7332663012727565","9.098926125634373","0","0"
"465","86","text","0","171","1213837","0-0","","","","","","","","","","","","","","","","","","","","","","","","","","","","","","","","","","","","",""
"","","plant-game","0","172","1223469","0-0","","200","120","8","WHEAT CROP","Left","200","120","2","THISTLE WEED","experimental","73","1,2,3,4,5,6,7,8","120,125.15569376639394,142.17719937555762,180.0534786287707,163.2605995901591,181.93335807175845,212.9884555875487,199.48231405793223","8,7,6,5,4,3,2,1","WHEAT CROP,WHEAT CROP,WHEAT CROP,WHEAT CROP,WHEAT CROP,WHEAT CROP,WHEAT CROP,WHEAT CROP","120,132.28845063582065,140,180.47024602175313,183.42321188110134,219.64721124358363,231.4593718586762,256.1500484044556","2,1,6,5,4,3,2,1","THISTLE WEED,THISTLE WEED,NETTLE WEED,NETTLE WEED,NETTLE WEED,NETTLE WEED,NETTLE WEED,NETTLE WEED","20,20,20,20,20,20,20,20","20,20,20,20,20,20,20,20","10,10,10,10,10,10,10,10","20,20,20,20,20,20,20,20","0,0,0,0,0,0,0,0","20,20,20,20,20,20,20,20","20,20,20,20,20,20,20,20","20,20,20,20,20,20,20,20","10,10,10,10,10,10,10,10","20,20,20,20,20,20,20,20","0,0,0,0,0,0,0,0","20,20,20,20,20,20,20,20","0,0,0,0,0,0,0,0","2248,280,461,273,452,458,233,440","5.1556937663939415,17.02150560916367,37.87627925321309,-16.79287903861161,18.67275848159936,31.055097515790262,-13.506141529616471,1.627931058778973","12.288450635820656,10.459226231321248,40.47024602175313,2.952965859348197,36.223999362482274,11.812160615092576,24.690676545779418,-17.56111092715208","0","0"
"124","86","text","0","173","1223693","0-0","","","","","","","","","","","","","","","","","","","","","","","","","","","","","","","","","","","","",""
"","","plant-game","0","174","1236714","0-0","","200","120","2","WHEAT CROP","Left","200","180","8","NETTLE WEED","experimental","74","1,2,3,4,5,6,7,8","120,102.8325186744267,140,151.1963568086941,149.21633964887067,159.75039969668688,197.08656433029438,210.09225175511853","2,1,6,5,4,3,2,1","WHEAT CROP,WHEAT CROP,CORN CROP,CORN CROP,CORN CROP,CORN CROP,CORN CROP,CORN CROP","180,171.9839145430855,189.24592742035372,215.198876589662,180.7862422566311,182.8091133143822,192.82396931302645,196.1697357136619","8,7,6,5,4,3,2,1","NETTLE WEED,NETTLE WEED,NETTLE WEED,NETTLE WEED,NETTLE WEED,NETTLE WEED,NETTLE WEED,NETTLE WEED","20,20,20,20,20,20,20,20","20,20,20,20,20,20,20,20","10,10,10,10,10,10,10,10","20,20,20,20,20,20,20,20","0,0,0,0,0,0,0,0","20,20,20,20,20,20,20,20","20,20,20,20,20,20,20,20","20,20,20,20,20,20,20,20","10,10,10,10,10,10,10,10","20,20,20,20,20,20,20,20","0,0,0,0,0,0,0,0","20,20,20,20,20,20,20,20","1,0,0,1,1,0,0,1","2885,689,519,428,122,277,794,2531","-17.1674813255733,17.797059262076314,11.19635680869411,-1.9800171598234253,10.534060047816213,37.33616463360749,13.005687424824158,36.16711562858153","-8.016085456914507,17.262012877268237,25.95294916930829,-34.412634333030894,2.022871057751089,10.014855998644274,3.3457664006354584,5.919738014946558","0","0"
"455","86","text","0","175","1237299","0-0","","","","","","","","","","","","","","","","","","","","","","","","","","","","","","","","","","","","",""
"","","plant-game","0","176","1247396","0-0","","200","120","8","WHEAT CROP","Left","200","190","4","NETTLE WEED","experimental","75","1,2,3,4,5,6,7,8","120,153.47799727185924,179.73838220712202,165.7341451210475,179.24953938575098,206.38708030657028,246.37875051481785,229.43128011910116","8,7,6,5,4,3,2,1","WHEAT CROP,WHEAT CROP,WHEAT CROP,WHEAT CROP,WHEAT CROP,WHEAT CROP,WHEAT CROP,WHEAT CROP","190,169.2810386686626,169.04341681971997,150.08939733667816,160,151.3562886709601,193.83698679113445,215.3456760849528","4,3,2,1,4,3,2,1","NETTLE WEED,NETTLE WEED,NETTLE WEED,NETTLE WEED,THISTLE WEED,THISTLE WEED,THISTLE WEED,THISTLE WEED","20,20,20,20,20,20,20,20","20,20,20,20,20,20,20,20","10,10,10,10,10,10,10,10","20,20,20,20,20,20,20,20","0,0,0,0,0,0,0,0","20,20,20,20,20,20,20,20","20,20,20,20,20,20,20,20","20,20,20,20,20,20,20,20","10,10,10,10,10,10,10,10","20,20,20,20,20,20,20,20","0,0,0,0,0,0,0,0","20,20,20,20,20,20,20,20","1,1,1,0,0,0,1,1","1645,732,550,583,485,520,680,538","33.47799727185924,26.260384935262767,-14.004237086074498,13.515394264703485,27.137540920819315,39.99167020824756,-16.94747039571669,13.571373886879991","-20.718961331337407,-0.23762184894265073,-18.95401948304181,39.2199604230091,-8.643711329039903,42.48069812017434,21.508689293818357,28.19912022521294","0","0"
"424","86","text","0","177","1247950","0-0","","","","","","","","","","","","","","","","","","","","","","","","","","","","","","","","","","","","",""
"","","plant-game","0","178","1254702","0-0","","200","120","1","CORN CROP","Left","200","190","4","NETTLE WEED","experimental","76","1,2,3,4","120,170,158.3519936448969,190.9166465111185","1,3,2,1","CORN CROP,WHEAT CROP,WHEAT CROP,WHEAT CROP","190,172.35787016892905,205.89266795827544,204.62458340462462","4,3,2,1","NETTLE WEED,NETTLE WEED,NETTLE WEED,NETTLE WEED","20,20,20,20","20,20,20,20","10,10,10,10","20,20,20,20","0,0,0,0","20,20,20,20","20,20,20,20","20,20,20,20","10,10,10,10","20,20,20,20","0,0,0,0","20,20,20,20","1,0,0,0","1785,493,456,544","-10.107215551619026,-11.648006355103089,32.56465286622159,44.776120622710344","-17.642129831070957,33.534797789346385,-1.26808455365083,16.79155405008229","0","0"
"472","86","text","0","179","1255304","0-0","","","","","","","","","","","","","","","","","","","","","","","","","","","","","","","","","","","","",""
"","","plant-game","0","180","1264477","0-0","","200","160","2","WHEAT CROP","Left","200","160","4","NETTLE WEED","experimental","77","1,2,3,4","160,162.52151111930593,180,148.59156663374816","2,1,2,1","WHEAT CROP,WHEAT CROP,CORN CROP,CORN CROP","160,167.9598712031591,203.18232929116718,199.73163469989842","4,3,2,1","NETTLE WEED,NETTLE WEED,NETTLE WEED,NETTLE WEED","20,20,20,20","20,20,20,20","10,10,10,10","20,20,20,20","0,0,0,0","20,20,20,20","20,20,20,20","20,20,20,20","10,10,10,10","20,20,20,20","0,0,0,0","20,20,20,20","0,0,1,1","1733,682,2777,567","2.5215111193059165,17.32069662841673,-31.408433366251842,-35.035375960927205","7.959871203159114,35.22245808800806,-3.4506945912687437,33.89786048276812","0","0"
"240","86","text","0","181","1264840","0-0","","","","","","","","","","","","","","","","","","","","","","","","","","","","","","","","","","","","",""
"","","plant-game","0","182","1272143","0-0","","200","190","1","CORN CROP","Right","200","180","4","THISTLE WEED","experimental","78","1,2,3,4","180,148.97001478739824,148.515474733856,184.68468135648743","4,3,2,1","THISTLE WEED,THISTLE WEED,THISTLE WEED,THISTLE WEED","190,170,148.85832310808536,166.41765955361524","1,3,2,1","CORN CROP,WHEAT CROP,WHEAT CROP,WHEAT CROP","0,0,0,0","20,20,20,20","10,10,10,10","20,20,20,20","20,20,20,20","20,20,20,20","0,0,0,0","20,20,20,20","10,10,10,10","20,20,20,20","20,20,20,20","20,20,20,20","1,0,0,0","1630,813,597,501","-31.02998521260175,-0.45454005354223537,36.16920662263142,-13.347486694312028","38.73728240175575,-21.14167689191465,17.559336445529883,33.062648381892295","0","0"
"480","86","text","0","183","1272783","0-0","","","","","","","","","","","","","","","","","","","","","","","","","","","","","","","","","","","","",""
"","","plant-game","0","184","1283237","0-0","","200","160","1","CORN CROP","Right","200","180","8","NETTLE WEED","experimental","79","1,2,3,4,5,6,7,8","180,133.09354273949896,118.8759584003288,112.28761277227377,113.5758449377496,118.21786553838471,110.07058893298662,109.16012312383653","8,7,6,5,4,3,2,1","NETTLE WEED,NETTLE WEED,NETTLE WEED,NETTLE WEED,NETTLE WEED,NETTLE WEED,NETTLE WEED,NETTLE WEED","160,130,95.37293974595246,39.09175578869703,31.391205730783643,35.35359119581455,26.161357520123268,22.77694120928197","1,7,6,5,4,3,2,1","CORN CROP,WHEAT CROP,WHEAT CROP,WHEAT CROP,WHEAT CROP,WHEAT CROP,WHEAT CROP,WHEAT CROP","0,0,0,0,0,0,0,0","20,20,20,20,20,20,20,20","10,10,10,10,10,10,10,10","20,20,20,20,20,20,20,20","20,20,20,20,20,20,20,20","20,20,20,20,20,20,20,20","0,0,0,0,0,0,0,0","20,20,20,20,20,20,20,20","10,10,10,10,10,10,10,10","20,20,20,20,20,20,20,20","20,20,20,20,20,20,20,20","20,20,20,20,20,20,20,20","1,0,0,0,0,1,1,1","1106,1026,648,415,400,2032,127,337","-46.90645726050104,-14.217584339170163,-6.588345628055028,1.2882321654758158,4.642020600635127,-8.147276605398098,-0.9104658091500966,30.929395271167856","66.03518925815997,-34.627060254047535,-56.281183957255436,-7.700550057913387,3.962385465030907,-9.192233675691284,-3.3844163108412992,29.920428453971486","0","0"
"478","86","text","0","185","1283865","0-0","","","","","","","","","","","","","","","","","","","","","","","","","","","","","","","","","","","","",""
"","","plant-game","0","186","1295126","0-0","","200","190","1","WHEAT CROP","Right","200","160","8","NETTLE WEED","experimental","80","1,2,3,4,5,6,7,8","160,167.3439875112069,169.54317123689964,175.72403026206132,203.42593308450685,194.40031857618675,227.53876454841583,222.57778304659968","8,7,6,5,4,3,2,1","NETTLE WEED,NETTLE WEED,NETTLE WEED,NETTLE WEED,NETTLE WEED,NETTLE WEED,NETTLE WEED,NETTLE WEED","190,130,176.366211027001,179.59278550306777,191.7274231971087,225.45806498770796,225.39467119903918,210.66736068726695","1,7,6,5,4,3,2,1","WHEAT CROP,CORN CROP,CORN CROP,CORN CROP,CORN CROP,CORN CROP,CORN CROP,CORN CROP","0,0,0,0,0,0,0,0","20,20,20,20,20,20,20,20","10,10,10,10,10,10,10,10","20,20,20,20,20,20,20,20","20,20,20,20,20,20,20,20","20,20,20,20,20,20,20,20","0,0,0,0,0,0,0,0","20,20,20,20,20,20,20,20","10,10,10,10,10,10,10,10","20,20,20,20,20,20,20,20","20,20,20,20,20,20,20,20","20,20,20,20,20,20,20,20","1,0,0,1,0,0,0,0","2337,1299,996,681,455,809,366,287","7.343987511206908,2.1991837256927336,6.180859025161691,27.701902822445525,-9.025614508320118,33.13844597222909,-4.960981501816139,-5.52547902858768","15.940339050390271,46.36621102700098,3.2265744760667974,12.134637694040915,33.73064179059926,-0.06339378866876763,-14.727310511772224,-9.342900940899366","0","0"
"1203","86","text","0","187","1296489","0-0","","","","","","","","","","","","","","","","","","","","","","","","","","","","","","","","","","","","",""
"","","plant-game","0","188","1302890","0-0","","200","180","4","WHEAT CROP","Right","200","180","1","THISTLE WEED","experimental","81","1,2,3,4","180,170,213.56882402124006,234.10150813691632","1,3,2,1","THISTLE WEED,NETTLE WEED,NETTLE WEED,NETTLE WEED","180,156.5358603712177,144.57546877973616,155.96340220856177","4,3,2,1","WHEAT CROP,WHEAT CROP,WHEAT CROP,WHEAT CROP","0,0,0,0","20,20,20,20","10,10,10,10","20,20,20,20","20,20,20,20","20,20,20,20","0,0,0,0","20,20,20,20","10,10,10,10","20,20,20,20","20,20,20,20","20,20,20,20","0,1,1,1","1948,568,206,256","-35.5594215067951,43.568824021240076,20.53268411567625,17.874009125920345","-23.464139628782302,-11.960391591481546,11.387933428825612,26.358874818729923","0","0"
"204","86","text","0","189","1303254","0-0","","","","","","","","","","","","","","","","","","","","","","","","","","","","","","","","","","","","",""
"","","plant-game","0","190","1313653","0-0","","200","120","8","CORN CROP","Left","200","180","2","THISTLE WEED","experimental","82","1,2,3,4,5,6,7,8","120,141.73641833209498,172.8394308900138,177.8576010272503,207.3759722132564,203.4483843980101,194.83655379129976,192.48639017606456","8,7,6,5,4,3,2,1","CORN CROP,CORN CROP,CORN CROP,CORN CROP,CORN CROP,CORN CROP,CORN CROP,CORN CROP","180,191.91414083186905,140,149.6369059722285,148.0884408932209,183.55418869968005,239.69107023406792,252.84882199925408","2,1,6,5,4,3,2,1","THISTLE WEED,THISTLE WEED,NETTLE WEED,NETTLE WEED,NETTLE WEED,NETTLE WEED,NETTLE WEED,NETTLE WEED","20,20,20,20,20,20,20,20","20,20,20,20,20,20,20,20","10,10,10,10,10,10,10,10","20,20,20,20,20,20,20,20","0,0,0,0,0,0,0,0","20,20,20,20,20,20,20,20","20,20,20,20,20,20,20,20","20,20,20,20,20,20,20,20","10,10,10,10,10,10,10,10","20,20,20,20,20,20,20,20","0,0,0,0,0,0,0,0","20,20,20,20,20,20,20,20","0,1,0,0,0,0,1,1","1552,675,426,433,473,458,520,182","21.73641833209498,31.10301255791882,5.018170137236487,29.518371186006103,-3.9275878152463086,-8.611830606710335,-2.350163615235195,-12.27504088294828","11.914140831869046,11.567170131045234,9.636905972228508,-1.5484650790076095,35.465747806459156,56.136881534387854,13.157751765186168,8.109892749943842","0","0"
"472","86","text","0","191","1314265","0-0","","","","","","","","","","","","","","","","","","","","","","","","","","","","","","","","","","","","",""
