"rt","key_press","trial_type","trial_index","trial_index_global","time_elapsed","internal_chunk_id","responses","experimental_goal_height","experimental_start_height","experimental_weeks_total","experimental_crop_type","experimental_crop_side","fixed_goal_height","fixed_start_height","fixed_weeks_total","fixed_crop_type","trial_kind","trial_number","stage","left_current_height","left_weeks_remaining","left_crop_type","right_current_height","right_weeks_remaining","right_crop_type","mean_left_growth_given_left","sd_left_growth_given_left","mean_left_growth_given_middle","sd_left_growth_given_middle","mean_left_growth_given_right","sd_left_growth_given_right","mean_right_growth_given_left","sd_right_growth_given_left","mean_right_growth_given_middle","sd_right_growth_given_middle","mean_right_growth_given_right","sd_right_growth_given_right","response","response_time","left_growth","right_growth","other_key_pressed","mouse_clicked"
"4539996","77","text","0","0","4540092","0-0","","","","","","","","","","","","","","","","","","","","","","","","","","","","","","","","","","","","",""
"4262","","survey-text","0","1","4545371","0-0","{""Q0"":""19""}","","","","","","","","","","","","","","","","","","","","","","","","","","","","","","","","","","","",""
"2939","86","text","0","2","3017","0-0","","","","","","","","","","","","","","","","","","","","","","","","","","","","","","","","","","","","",""
"","","plant-game","0","3","50845","0-0","","200","120","8","CORN CROP","Left","200","120","8","NETTLE WEED","practice","1","1,2,3,4,5,6,7,8","120,128.78922822003096,128.8749783858319,102.92217990420406,78.46331651299624,86.5502808261923,135.50532070826728,170.0102432181693","8,7,6,5,4,3,2,1","CORN CROP,CORN CROP,CORN CROP,CORN CROP,CORN CROP,CORN CROP,CORN CROP,CORN CROP","120,110.44047981515483,164.4011324660271,142.2375300600238,114.84520259357429,122.9950545451209,142.8845477485295,161.6368743753708","8,7,6,5,4,3,2,1","NETTLE WEED,NETTLE WEED,NETTLE WEED,NETTLE WEED,NETTLE WEED,NETTLE WEED,NETTLE WEED,NETTLE WEED","20,20,20,20,20,20,20,20","20,20,20,20,20,20,20,20","10,10,10,10,10,10,10,10","20,20,20,20,20,20,20,20","0,0,0,0,0,0,0,0","20,20,20,20,20,20,20,20","20,20,20,20,20,20,20,20","20,20,20,20,20,20,20,20","10,10,10,10,10,10,10,10","20,20,20,20,20,20,20,20","0,0,0,0,0,0,0,0","20,20,20,20,20,20,20,20","0,0,1,1,1,0,0,0","9772,3157,2220,5037,3300,1543,1651,1971","8.789228220030957,0.08575016580092054,-25.95279848162783,-24.458863391207807,8.086964313196056,48.95503988207497,34.50492250990204,41.47060641596729","-9.55952018484517,53.96065265087225,-22.1636024060033,-27.39232746644952,8.149851951546609,19.889493203408612,18.752326626841285,9.842958257480198","0","0"
"825","86","text","0","4","51760","0-0","","","","","","","","","","","","","","","","","","","","","","","","","","","","","","","","","","","","",""
"","","plant-game","0","5","81571","0-0","","200","160","4","WHEAT CROP","Right","200","160","4","THISTLE WEED","practice","2","1,2,3,4","160,189.16388391587577,222.47546607685496,220.10546760547157","4,3,2,1","THISTLE WEED,THISTLE WEED,THISTLE WEED,THISTLE WEED","160,164.91175922065386,136.13794321417907,154.09232910022362","4,3,2,1","WHEAT CROP,WHEAT CROP,WHEAT CROP,WHEAT CROP","0,0,0,0","20,20,20,20","10,10,10,10","20,20,20,20","20,20,20,20","20,20,20,20","0,0,0,0","20,20,20,20","10,10,10,10","20,20,20,20","20,20,20,20","20,20,20,20","1,1,0,1","6439,2918,2791,4037","29.163883915875765,33.31158216097919,-2.3699984713833793,46.99214546797643","4.911759220653876,-28.77381600647478,17.95438588604454,27.99479804598504","0","0"
"619","86","text","0","6","82290","0-0","","","","","","","","","","","","","","","","","","","","","","","","","","","","","","","","","","","","",""
"","","plant-game","0","7","96348","0-0","","200","180","2","CORN CROP","Right","200","180","2","THISTLE WEED","practice","3","1,2","180,177.2348384758956","2,1","THISTLE WEED,THISTLE WEED","180,192.66220333913446","2,1","CORN CROP,CORN CROP","0,0","20,20","10,10","20,20","20,20","20,20","0,0","20,20","10,10","20,20","20,20","20,20","0,0","3260,1980","-2.7651615241043963,-5.87629199629304","12.662203339134477,7.804583004381858","0","0"
"585","86","text","0","8","97013","0-0","","","","","","","","","","","","","","","","","","","","","","","","","","","","","","","","","","","","",""
"","","plant-game","0","9","116727","0-0","","200","190","1","WHEAT CROP","Right","200","190","1","NETTLE WEED","practice","4","1","190","1","NETTLE WEED","190","1","WHEAT CROP","0","20","10","20","20","20","0","20","10","20","20","20","0","1288","9.803960770918055","24.364099696350028","0","0"
"705","86","text","0","10","117511","0-0","","","","","","","","","","","","","","","","","","","","","","","","","","","","","","","","","","","","",""
"","","plant-game","0","11","142114","0-0","","200","120","8","CORN CROP","Right","200","160","8","NETTLE WEED","practice","5","1,2,3,4,5,6,7,8","160,192.30265751110966,204.29877911030593,218.81867891885852,224.79321997917478,266.01155980964654,254.602221266104,274.8972655189026","8,7,6,5,4,3,2,1","NETTLE WEED,NETTLE WEED,NETTLE WEED,NETTLE WEED,NETTLE WEED,NETTLE WEED,NETTLE WEED,NETTLE WEED","120,181.34560087942566,199.56774373444162,157.97019529472487,148.8553139253475,123.18220520120676,121.2732798565484,102.0632452422883","8,7,6,5,4,3,2,1","CORN CROP,CORN CROP,CORN CROP,CORN CROP,CORN CROP,CORN CROP,CORN CROP,CORN CROP","0,0,0,0,0,0,0,0","20,20,20,20,20,20,20,20","10,10,10,10,10,10,10,10","20,20,20,20,20,20,20,20","20,20,20,20,20,20,20,20","20,20,20,20,20,20,20,20","0,0,0,0,0,0,0,0","20,20,20,20,20,20,20,20","10,10,10,10,10,10,10,10","20,20,20,20,20,20,20,20","20,20,20,20,20,20,20,20","20,20,20,20,20,20,20,20","1,0,0,0,0,0,0,1","2010,4080,1228,1857,693,4035,1502,1381","32.30265751110964,11.996121599196263,14.519899808552594,5.974541060316269,41.21833983047179,-11.409338543542521,20.29504425279859,38.54635616738054","61.34560087942566,18.222142855015953,-41.59754843971673,-9.114881369377382,-25.673108724140754,-1.9089253446583512,-19.210034614260103,3.628400674772191","0","0"
"731","86","text","0","12","142935","0-0","","","","","","","","","","","","","","","","","","","","","","","","","","","","","","","","","","","","",""
"","","plant-game","0","13","160270","0-0","","200","180","4","WHEAT CROP","Right","200","160","4","NETTLE WEED","practice","6","1,2,3,4","160,152.3782505729373,209.40523326844504,207.44011234992863","4,3,2,1","NETTLE WEED,NETTLE WEED,NETTLE WEED,NETTLE WEED","180,165.94193148045267,145.51125748656602,129.5953960657303","4,3,2,1","WHEAT CROP,WHEAT CROP,WHEAT CROP,WHEAT CROP","0,0,0,0","20,20,20,20","10,10,10,10","20,20,20,20","20,20,20,20","20,20,20,20","0,0,0,0","20,20,20,20","10,10,10,10","20,20,20,20","20,20,20,20","20,20,20,20","0,1,0,0","2275,2601,4093,858","-7.62174942706271,57.026982695507755,-1.9651209185164258,2.636837636001707","-14.058068519547337,-20.430673993886643,-15.915861420835702,13.16212498037838","0","0"
"533","86","text","0","14","160903","0-0","","","","","","","","","","","","","","","","","","","","","","","","","","","","","","","","","","","","",""
"","","plant-game","0","15","177129","0-0","","200","180","2","CORN CROP","Left","200","190","2","NETTLE WEED","practice","7","1,2","180,165.01622141286032","2,1","CORN CROP,CORN CROP","190,181.82222687288524","2,1","NETTLE WEED,NETTLE WEED","20,20","20,20","10,10","20,20","0,0","20,20","20,20","20,20","10,10","20,20","0,0","20,20","1,1","4948,2575","-14.983778587139678,-39.98670402659984","-8.177773127114774,13.815859016328993","0","0"
"588","86","text","0","16","177795","0-0","","","","","","","","","","","","","","","","","","","","","","","","","","","","","","","","","","","","",""
"","","plant-game","0","17","214271","0-0","","200","120","4","CORN CROP","Right","200","120","8","THISTLE WEED","practice","8","1,2,3,4,5,6,7,8","120,92.40972249272966,104.05702060740323,113.77348793205547,135.69958899169285,178.92026254459796,192.79140452383126,227.29975385896478","8,7,6,5,4,3,2,1","THISTLE WEED,THISTLE WEED,THISTLE WEED,THISTLE WEED,THISTLE WEED,THISTLE WEED,THISTLE WEED,THISTLE WEED","120,133.70534750974116,145.2802022291463,185.6182862638279,160,175.0516309932733,215.4712960747927,211.72909567208177","4,3,2,1,4,3,2,1","CORN CROP,CORN CROP,CORN CROP,CORN CROP,WHEAT CROP,WHEAT CROP,WHEAT CROP,WHEAT CROP","0,0,0,0,0,0,0,0","20,20,20,20,20,20,20,20","10,10,10,10,10,10,10,10","20,20,20,20,20,20,20,20","20,20,20,20,20,20,20,20","20,20,20,20,20,20,20,20","0,0,0,0,0,0,0,0","20,20,20,20,20,20,20,20","10,10,10,10,10,10,10,10","20,20,20,20,20,20,20,20","20,20,20,20,20,20,20,20","20,20,20,20,20,20,20,20","1,1,1,1,1,0,0,0","3709,1381,1726,1176,4768,1955,3364,1480","-27.590277507270343,11.647298114673578,9.716467324652244,21.926101059637368,43.2206735529051,13.8711419792333,34.50834933513351,9.462057066214246","13.705347509741165,11.574854719405149,40.33808403468159,25.02629538858421,15.05163099327332,40.41966508151937,-3.7422004027109335,1.025541395758265","0","0"
"640","86","text","0","18","215021","0-0","","","","","","","","","","","","","","","","","","","","","","","","","","","","","","","","","","","","",""
"","","plant-game","0","19","240955","0-0","","200","160","4","CORN CROP","Left","200","160","2","NETTLE WEED","practice","9","1,2,3,4","160,154.50933307669945,144.62719895761558,156.62305182571177","4,3,2,1","CORN CROP,CORN CROP,CORN CROP,CORN CROP","160,196.0318164739494,180,186.56874708499436","2,1,2,1","NETTLE WEED,NETTLE WEED,THISTLE WEED,THISTLE WEED","20,20,20,20","20,20,20,20","10,10,10,10","20,20,20,20","0,0,0,0","20,20,20,20","20,20,20,20","20,20,20,20","10,10,10,10","20,20,20,20","0,0,0,0","20,20,20,20","0,1,0,1","456,1534,3871,1713","-5.490666923300541,-9.882134119083858,11.995852868096184,19.665583131013122","36.031816473949405,8.637558195921867,6.568747084994369,-8.857567701360265","0","0"
"477","86","text","0","20","241532","0-0","","","","","","","","","","","","","","","","","","","","","","","","","","","","","","","","","","","","",""
"","","plant-game","0","21","265717","0-0","","200","180","2","CORN CROP","Right","200","180","1","THISTLE WEED","practice","10","1,2","180,190","1,1","THISTLE WEED,NETTLE WEED","180,189.43939999067905","2,1","CORN CROP,CORN CROP","0,0","20,20","10,10","20,20","20,20","20,20","0,0","20,20","10,10","20,20","20,20","20,20","0,0","755,2739","-4.405256338902456,-27.052079915365347","9.439399990679062,-19.52030871039339","0","0"
"596","86","text","0","22","266391","0-0","","","","","","","","","","","","","","","","","","","","","","","","","","","","","","","","","","","","",""
"","","plant-game","0","23","302250","0-0","","200","120","8","WHEAT CROP","Right","200","160","4","NETTLE WEED","practice","11","1,2,3,4,5,6,7,8","160,175.29483866990887,176.97565077596207,150.09429883595,160,163.44644047592732,194.90009685077365,190.75674378808895","4,3,2,1,4,3,2,1","NETTLE WEED,NETTLE WEED,NETTLE WEED,NETTLE WEED,THISTLE WEED,THISTLE WEED,THISTLE WEED,THISTLE WEED","120,154.46702211765566,135.17343059804162,140.13263396040375,135.6017101680823,153.16984149761154,189.07700713412405,162.3879148454425","8,7,6,5,4,3,2,1","WHEAT CROP,WHEAT CROP,WHEAT CROP,WHEAT CROP,WHEAT CROP,WHEAT CROP,WHEAT CROP,WHEAT CROP","0,0,0,0,0,0,0,0","20,20,20,20,20,20,20,20","10,10,10,10,10,10,10,10","20,20,20,20,20,20,20,20","20,20,20,20,20,20,20,20","20,20,20,20,20,20,20,20","0,0,0,0,0,0,0,0","20,20,20,20,20,20,20,20","10,10,10,10,10,10,10,10","20,20,20,20,20,20,20,20","20,20,20,20,20,20,20,20","20,20,20,20,20,20,20,20","0,0,0,0,0,1,0,0","4053,2546,2512,1421,2372,1181,1864,4058","15.294838669908861,1.6808121060532086,-26.881351940012056,-2.6115407534006714,3.4464404759273215,31.453656374846325,-4.1433530626846835,24.279828634905584","34.46702211765566,-19.29359151961403,4.959203362362119,-4.5309237923214525,17.56813132952926,35.9071656365125,-26.68909228868153,-29.017934804893972","0","0"
"557","86","text","0","24","302947","0-0","","","","","","","","","","","","","","","","","","","","","","","","","","","","","","","","","","","","",""
"","","plant-game","0","25","329605","0-0","","200","180","2","WHEAT CROP","Left","200","160","4","NETTLE WEED","practice","12","1,2,3,4","180,171.13497334349873,180,187.20086811049418","2,1,2,1","WHEAT CROP,WHEAT CROP,CORN CROP,CORN CROP","160,154.38625496065217,170.89539433924637,182.476847886564","4,3,2,1","NETTLE WEED,NETTLE WEED,NETTLE WEED,NETTLE WEED","20,20,20,20","20,20,20,20","10,10,10,10","20,20,20,20","0,0,0,0","20,20,20,20","20,20,20,20","20,20,20,20","10,10,10,10","20,20,20,20","0,0,0,0","20,20,20,20","0,0,0,0","7522,1338,4825,1099","-8.865026656501279,-10.92054310572372,7.200868110494188,41.3589787716366","-5.6137450393478225,16.509139378594202,11.58145354731764,14.891209748587203","0","0"
"2456","86","text","0","26","332181","0-0","","","","","","","","","","","","","","","","","","","","","","","","","","","","","","","","","","","","",""
"7987","86","text","0","27","341272","0-0","","","","","","","","","","","","","","","","","","","","","","","","","","","","","","","","","","","","",""
"","","plant-game","0","28","379861","0-0","","200","120","8","WHEAT CROP","Left","200","180","2","THISTLE WEED","experimental","1","1,2,3,4,5,6,7,8","120,105.24654162988278,99.28115459503243,62.15975202911137,113.40605058001759,89.35332894268618,70.91354966806935,46.97786794069349","8,7,6,5,4,3,2,1","WHEAT CROP,WHEAT CROP,WHEAT CROP,WHEAT CROP,WHEAT CROP,WHEAT CROP,WHEAT CROP,WHEAT CROP","180,162.01950665472305,140,163.80363987903527,198.94731940508092,229.33128558655488,239.62391434871958,233.245028868624","2,1,6,5,4,3,2,1","THISTLE WEED,THISTLE WEED,NETTLE WEED,NETTLE WEED,NETTLE WEED,NETTLE WEED,NETTLE WEED,NETTLE WEED","20,20,20,20,20,20,20,20","20,20,20,20,20,20,20,20","10,10,10,10,10,10,10,10","20,20,20,20,20,20,20,20","0,0,0,0,0,0,0,0","20,20,20,20,20,20,20,20","20,20,20,20,20,20,20,20","20,20,20,20,20,20,20,20","10,10,10,10,10,10,10,10","20,20,20,20,20,20,20,20","0,0,0,0,0,0,0,0","20,20,20,20,20,20,20,20","1,1,1,0,1,1,1,1","6818,4044,3324,5495,1276,2984,4800,2156","-14.753458370117222,-5.965387034850358,-37.121402565921066,51.246298550906225,-24.05272163733141,-18.439779274616818,-23.935681727375858,-28.706175810229336","-17.980493345276955,13.658223784167678,23.803639879035284,35.14367952604564,30.383966181473955,10.292628762164702,-6.37888548009559,38.22060571231832","0","0"
"655","86","text","0","29","380636","0-0","","","","","","","","","","","","","","","","","","","","","","","","","","","","","","","","","","","","",""
"","","plant-game","0","30","400550","0-0","","200","160","1","WHEAT CROP","Left","200","180","2","THISTLE WEED","experimental","2","1,2","160,190","1,1","WHEAT CROP,CORN CROP","180,210.59619487049886","2,1","THISTLE WEED,THISTLE WEED","20,20","20,20","10,10","20,20","0,0","20,20","20,20","20,20","10,10","20,20","0,0","20,20","1,0","6513,4441","2.4784190367748486,48.78500083502446","30.596194870498863,26.710097126752068","0","0"
"672","86","text","0","31","401334","0-0","","","","","","","","","","","","","","","","","","","","","","","","","","","","","","","","","","","","",""
"","","plant-game","0","32","428994","0-0","","200","180","2","CORN CROP","Left","200","180","4","THISTLE WEED","experimental","3","1,2,3,4","180,208.95299212584695,180,198.2032239350543","2,1,2,1","CORN CROP,CORN CROP,WHEAT CROP,WHEAT CROP","180,207.60520015166728,195.34679131509262,204.227361169834","4,3,2,1","THISTLE WEED,THISTLE WEED,THISTLE WEED,THISTLE WEED","20,20,20,20","20,20,20,20","10,10,10,10","20,20,20,20","0,0,0,0","20,20,20,20","20,20,20,20","20,20,20,20","10,10,10,10","20,20,20,20","0,0,0,0","20,20,20,20","0,1,1,1","8864,4157,3868,4264","28.952992125846954,-7.618183184836763,18.20322393505429,15.730266549184424","27.605200151667272,-12.258408836574672,8.88056985474139,13.434294152633994","0","0"
"526","86","text","0","33","429640","0-0","","","","","","","","","","","","","","","","","","","","","","","","","","","","","","","","","","","","",""
"","","plant-game","0","34","449219","0-0","","200","160","2","CORN CROP","Right","200","180","1","NETTLE WEED","experimental","4","1,2","180,190","1,1","NETTLE WEED,THISTLE WEED","160,135.62607141518663","2,1","CORN CROP,CORN CROP","0,0","20,20","10,10","20,20","20,20","20,20","0,0","20,20","10,10","20,20","20,20","20,20","0,0","8444,4669","-4.543712787111519,-7.900899443101799","-24.373928584813378,-18.74399608973009","0","0"
"686","86","text","0","35","449983","0-0","","","","","","","","","","","","","","","","","","","","","","","","","","","","","","","","","","","","",""
"","","plant-game","0","36","477576","0-0","","200","120","1","CORN CROP","Right","200","180","8","NETTLE WEED","experimental","5","1,2,3,4,5,6,7,8","180,196.92164988238326,229.35745762256803,263.72104793616256,255.28533834917317,283.8565762740501,270.97309985519183,284.1346254389855","8,7,6,5,4,3,2,1","NETTLE WEED,NETTLE WEED,NETTLE WEED,NETTLE WEED,NETTLE WEED,NETTLE WEED,NETTLE WEED,NETTLE WEED","120,130,158.24651696330827,172.0178761723147,145.5947973476656,138.90149828142336,146.77317066174496,166.37262070116108","1,7,6,5,4,3,2,1","CORN CROP,WHEAT CROP,WHEAT CROP,WHEAT CROP,WHEAT CROP,WHEAT CROP,WHEAT CROP,WHEAT CROP","0,0,0,0,0,0,0,0","20,20,20,20,20,20,20,20","10,10,10,10,10,10,10,10","20,20,20,20,20,20,20,20","20,20,20,20,20,20,20,20","20,20,20,20,20,20,20,20","0,0,0,0,0,0,0,0","20,20,20,20,20,20,20,20","10,10,10,10,10,10,10,10","20,20,20,20,20,20,20,20","20,20,20,20,20,20,20,20","20,20,20,20,20,20,20,20","0,1,1,0,1,0,1,1","9226,3788,3749,827,918,701,676,684","16.921649882383253,32.43580774018478,34.36359031359451,-8.435709586989386,28.571237924876918,-12.883476418858281,13.161525583793647,10.339641127074708","-14.21370471190739,28.246516963308256,13.77135920900643,-26.42307882464907,-6.693299066242258,7.871672380321594,19.59945003941612,-6.777877999879351","0","0"
"595","86","text","0","37","478251","0-0","","","","","","","","","","","","","","","","","","","","","","","","","","","","","","","","","","","","",""
"","","plant-game","0","38","494300","0-0","","200","120","4","WHEAT CROP","Left","200","180","4","THISTLE WEED","experimental","6","1,2,3,4","120,122.14303367823797,131.35078109365722,137.6239421857218","4,3,2,1","WHEAT CROP,WHEAT CROP,WHEAT CROP,WHEAT CROP","180,212.04325134378033,247.68876823500858,266.52622711764144","4,3,2,1","THISTLE WEED,THISTLE WEED,THISTLE WEED,THISTLE WEED","20,20,20,20","20,20,20,20","10,10,10,10","20,20,20,20","0,0,0,0","20,20,20,20","20,20,20,20","20,20,20,20","10,10,10,10","20,20,20,20","0,0,0,0","20,20,20,20","1,1,0,0","6110,3465,1445,1031","2.1430336782379715,9.207747415419258,6.273161092064591,21.779089806401526","32.04325134378033,35.64551689122824,18.837458882632863,44.403585158371705","0","0"
"588","86","text","0","39","494988","0-0","","","","","","","","","","","","","","","","","","","","","","","","","","","","","","","","","","","","",""
"","","plant-game","0","40","501161","0-0","","200","190","1","CORN CROP","Left","200","160","1","NETTLE WEED","experimental","7","1","190","1","CORN CROP","160","1","NETTLE WEED","20","20","10","20","0","20","20","20","10","20","0","20","0","2763","34.43616978769673","31.7849667633717","0","0"
"636","86","text","0","41","501904","0-0","","","","","","","","","","","","","","","","","","","","","","","","","","","","","","","","","","","","",""
"","","plant-game","0","42","531096","0-0","","200","180","8","CORN CROP","Right","200","190","1","NETTLE WEED","experimental","8","1,2,3,4,5,6,7,8","190,130,159.31308002634933,145.77472588381306,180.047004928596,185.17042297364267,191.08806937457342,201.50394363971867","1,7,6,5,4,3,2,1","NETTLE WEED,THISTLE WEED,THISTLE WEED,THISTLE WEED,THISTLE WEED,THISTLE WEED,THISTLE WEED,THISTLE WEED","180,161.68927693250825,184.3491240438065,193.52238921889855,190.8869027332916,231.04021943310966,226.54520473963643,243.39558569348247","8,7,6,5,4,3,2,1","CORN CROP,CORN CROP,CORN CROP,CORN CROP,CORN CROP,CORN CROP,CORN CROP,CORN CROP","0,0,0,0,0,0,0,0","20,20,20,20,20,20,20,20","10,10,10,10,10,10,10,10","20,20,20,20,20,20,20,20","20,20,20,20,20,20,20,20","20,20,20,20,20,20,20,20","0,0,0,0,0,0,0,0","20,20,20,20,20,20,20,20","10,10,10,10,10,10,10,10","20,20,20,20,20,20,20,20","20,20,20,20,20,20,20,20","20,20,20,20,20,20,20,20","0,1,1,1,1,0,0,0","6062,2862,2142,1944,1461,4670,2279,2147","-7.4927866165330546,29.31308002634933,-13.538354142536278,34.27227904478295,5.123418045046666,5.917646400930737,10.415874265145241,-4.922920273642341","-18.31072306749176,22.659847111298276,9.173265175092029,-2.6354864856069398,40.15331669981805,-4.495014693473236,16.85038095384604,-31.986542630663536","0","0"
"515","86","text","0","43","531702","0-0","","","","","","","","","","","","","","","","","","","","","","","","","","","","","","","","","","","","",""
"","","plant-game","0","44","542269","0-0","","200","180","1","CORN CROP","Right","200","160","2","NETTLE WEED","experimental","9","1,2","160,172.50188326741846","2,1","NETTLE WEED,NETTLE WEED","180,190","1,1","CORN CROP,WHEAT CROP","0,0","20,20","10,10","20,20","20,20","20,20","0,0","20,20","10,10","20,20","20,20","20,20","1,1","3081,1614","12.501883267418455,2.827675134526455","28.44289504470357,11.477124576044487","0","0"
"504","86","text","0","45","542883","0-0","","","","","","","","","","","","","","","","","","","","","","","","","","","","","","","","","","","","",""
"","","plant-game","0","46","549850","0-0","","200","120","2","CORN CROP","Right","200","160","2","THISTLE WEED","experimental","10","1,2","160,156.19694032264812","2,1","THISTLE WEED,THISTLE WEED","120,128.54212411688025","2,1","CORN CROP,CORN CROP","0,0","20,20","10,10","20,20","20,20","20,20","0,0","20,20","10,10","20,20","20,20","20,20","0,1","2748,962","-3.803059677351885,16.44676498754329","8.542124116880245,40.72613684882363","0","0"
"600","86","text","0","47","550550","0-0","","","","","","","","","","","","","","","","","","","","","","","","","","","","","","","","","","","","",""
"","","plant-game","0","48","574027","0-0","","200","180","8","CORN CROP","Left","200","160","2","NETTLE WEED","experimental","11","1,2,3,4,5,6,7,8","180,208.70076903838958,213.95252454931517,161.81902414393514,218.88582725905223,231.36725493868298,258.1096473192455,248.0898625705331","8,7,6,5,4,3,2,1","CORN CROP,CORN CROP,CORN CROP,CORN CROP,CORN CROP,CORN CROP,CORN CROP,CORN CROP","160,160.9326662763418,140,151.29364923323186,193.3039135482664,203.00114000151737,233.78954360343099,252.37732253168744","2,1,6,5,4,3,2,1","NETTLE WEED,NETTLE WEED,THISTLE WEED,THISTLE WEED,THISTLE WEED,THISTLE WEED,THISTLE WEED,THISTLE WEED","20,20,20,20,20,20,20,20","20,20,20,20,20,20,20,20","10,10,10,10,10,10,10,10","20,20,20,20,20,20,20,20","0,0,0,0,0,0,0,0","20,20,20,20,20,20,20,20","20,20,20,20,20,20,20,20","20,20,20,20,20,20,20,20","10,10,10,10,10,10,10,10","20,20,20,20,20,20,20,20","0,0,0,0,0,0,0,0","20,20,20,20,20,20,20,20","0,1,1,0,1,0,1,0","5810,3068,1437,708,1886,1451,1189,2165","28.700769038389573,5.251755510925581,-52.133500405380026,57.06680311511709,12.481427679630732,26.7423923805625,-10.019784748712382,-19.861528551651517","0.9326662763417986,-10.850902491018253,11.293649233231875,42.01026431503453,9.69722645325097,30.78840360191362,18.587778928256455,26.034422416036147","0","0"
"582","86","text","0","49","574729","0-0","","","","","","","","","","","","","","","","","","","","","","","","","","","","","","","","","","","","",""
"","","plant-game","0","50","588139","0-0","","200","180","4","WHEAT CROP","Left","200","120","1","THISTLE WEED","experimental","12","1,2,3,4","180,207.95592316060248,189.13524202097784,177.56268192886387","4,3,2,1","WHEAT CROP,WHEAT CROP,WHEAT CROP,WHEAT CROP","120,170,194.30741299574547,206.42803641534755","1,3,2,1","THISTLE WEED,NETTLE WEED,NETTLE WEED,NETTLE WEED","20,20,20,20","20,20,20,20","10,10,10,10","20,20,20,20","0,0,0,0","20,20,20,20","20,20,20,20","20,20,20,20","10,10,10,10","20,20,20,20","0,0,0,0","20,20,20,20","0,0,0,0","2683,1789,1162,1359","27.955923160602485,-18.82068113962464,-11.572560092113989,28.69474889389284","57.44622555293672,24.307412995745455,12.12062341960207,28.820880426459148","0","0"
"666","86","text","0","51","588905","0-0","","","","","","","","","","","","","","","","","","","","","","","","","","","","","","","","","","","","",""
"","","plant-game","0","52","602823","0-0","","200","190","1","WHEAT CROP","Right","200","120","4","NETTLE WEED","experimental","13","1,2,3,4","120,134.02921285566848,146.49495636149976,119.10034783977042","4,3,2,1","NETTLE WEED,NETTLE WEED,NETTLE WEED,NETTLE WEED","190,170,217.8804782876615,233.4614218362501","1,3,2,1","WHEAT CROP,CORN CROP,CORN CROP,CORN CROP","0,0,0,0","20,20,20,20","10,10,10,10","20,20,20,20","20,20,20,20","20,20,20,20","0,0,0,0","20,20,20,20","10,10,10,10","20,20,20,20","20,20,20,20","20,20,20,20","1,1,0,1","3250,1932,2190,686","14.029212855668463,12.46574350583128,-27.394608521729346,53.611526334126864","43.67966728342078,47.88047828766152,15.58094354858862,21.198337045135908","0","0"
"476","86","text","0","53","603389","0-0","","","","","","","","","","","","","","","","","","","","","","","","","","","","","","","","","","","","",""
"","","plant-game","0","54","619370","0-0","","200","180","2","WHEAT CROP","Right","200","160","4","NETTLE WEED","experimental","14","1,2,3,4","160,200.23725955054465,211.5473276231074,228.08312943382427","4,3,2,1","NETTLE WEED,NETTLE WEED,NETTLE WEED,NETTLE WEED","180,183.6706736274523,180,220.7229191141655","2,1,2,1","WHEAT CROP,WHEAT CROP,CORN CROP,CORN CROP","0,0,0,0","20,20,20,20","10,10,10,10","20,20,20,20","20,20,20,20","20,20,20,20","0,0,0,0","20,20,20,20","10,10,10,10","20,20,20,20","20,20,20,20","20,20,20,20","1,1,1,1","2339,1365,2303,3708","40.237259550544664,11.310068072562764,16.535801810716872,0.46788306654876877","3.6706736274522846,16.011667628401696,40.72291911416549,33.50843649764381","0","0"
"577","86","text","0","55","620057","0-0","","","","","","","","","","","","","","","","","","","","","","","","","","","","","","","","","","","","",""
"","","plant-game","0","56","633919","0-0","","200","120","4","CORN CROP","Left","200","160","2","NETTLE WEED","experimental","15","1,2,3,4","120,74.37188733112527,65.24005225607644,92.69941604781809","4,3,2,1","CORN CROP,CORN CROP,CORN CROP,CORN CROP","160,145.28171805128204,180,193.1719845883142","2,1,2,1","NETTLE WEED,NETTLE WEED,THISTLE WEED,THISTLE WEED","20,20,20,20","20,20,20,20","10,10,10,10","20,20,20,20","0,0,0,0","20,20,20,20","20,20,20,20","20,20,20,20","10,10,10,10","20,20,20,20","0,0,0,0","20,20,20,20","1,0,1,1","4568,1003,2136,1500","-45.62811266887473,-9.13183507504883,27.45936379174165,12.784100161665856","-14.718281948717966,24.978952594862868,13.171984588314201,-9.676063802423007","0","0"
"509","86","text","0","57","634506","0-0","","","","","","","","","","","","","","","","","","","","","","","","","","","","","","","","","","","","",""
"","","plant-game","0","58","656955","0-0","","200","160","2","CORN CROP","Left","200","190","8","NETTLE WEED","experimental","16","1,2,3,4,5,6,7,8","160,143.93805100550605,140,171.77246553990994,165.56422427749746,189.29496884340705,226.3974132658877,245.2575637949414","2,1,6,5,4,3,2,1","CORN CROP,CORN CROP,WHEAT CROP,WHEAT CROP,WHEAT CROP,WHEAT CROP,WHEAT CROP,WHEAT CROP","190,191.3136461839214,222.35745905473289,266.73834437486704,275.94825832792014,253.53905272595182,288.40753396930137,283.16915735062616","8,7,6,5,4,3,2,1","NETTLE WEED,NETTLE WEED,NETTLE WEED,NETTLE WEED,NETTLE WEED,NETTLE WEED,NETTLE WEED,NETTLE WEED","20,20,20,20,20,20,20,20","20,20,20,20,20,20,20,20","10,10,10,10,10,10,10,10","20,20,20,20,20,20,20,20","0,0,0,0,0,0,0,0","20,20,20,20,20,20,20,20","20,20,20,20,20,20,20,20","20,20,20,20,20,20,20,20","10,10,10,10,10,10,10,10","20,20,20,20,20,20,20,20","0,0,0,0,0,0,0,0","20,20,20,20,20,20,20,20","1,0,0,0,0,0,0,1","4595,4152,2112,857,1091,1198,1701,1006","-16.06194899449395,19.101896026521914,31.772465539909945,-6.208241262412496,23.730744565909582,37.102444422480666,18.8601505290537,-25.611777229858625","1.3136461839214175,31.043812870811482,44.38088532013414,9.209913953053084,-22.409205601968324,34.868481243349535,-5.238376618675193,-16.963130755906995","0","0"
"5125","86","text","0","59","662160","0-0","","","","","","","","","","","","","","","","","","","","","","","","","","","","","","","","","","","","",""
"","","plant-game","0","60","680508","0-0","","200","180","4","CORN CROP","Left","200","190","1","NETTLE WEED","experimental","17","1,2,3,4","180,234.19205477851654,267.8236255525164,259.1991490159193","4,3,2,1","CORN CROP,CORN CROP,CORN CROP,CORN CROP","190,170,199.83377944559996,229.69434793846708","1,3,2,1","NETTLE WEED,THISTLE WEED,THISTLE WEED,THISTLE WEED","20,20,20,20","20,20,20,20","10,10,10,10","20,20,20,20","0,0,0,0","20,20,20,20","20,20,20,20","20,20,20,20","10,10,10,10","20,20,20,20","0,0,0,0","20,20,20,20","1,1,1,1","5217,3327,2215,1759","54.19205477851652,33.63157077399984,-8.624476536597056,11.019333951845267","-14.912989666836696,29.833779445599966,29.860568492867117,-7.3802384219591355","0","0"
"613","86","text","0","61","681211","0-0","","","","","","","","","","","","","","","","","","","","","","","","","","","","","","","","","","","","",""
"","","plant-game","0","62","702084","0-0","","200","180","2","CORN CROP","Left","200","120","8","THISTLE WEED","experimental","18","1,2,3,4,5,6,7,8","180,180.82003217595894,140,174.76490418705308,197.6637199716298,244.39727953755124,224.27031877690985,230.07743160982827","2,1,6,5,4,3,2,1","CORN CROP,CORN CROP,WHEAT CROP,WHEAT CROP,WHEAT CROP,WHEAT CROP,WHEAT CROP,WHEAT CROP","120,122.49033467364417,158.00539996900145,179.37706474765395,181.49565490980237,205.89875982796661,197.78233113762116,209.58741833781278","8,7,6,5,4,3,2,1","THISTLE WEED,THISTLE WEED,THISTLE WEED,THISTLE WEED,THISTLE WEED,THISTLE WEED,THISTLE WEED,THISTLE WEED","20,20,20,20,20,20,20,20","20,20,20,20,20,20,20,20","10,10,10,10,10,10,10,10","20,20,20,20,20,20,20,20","0,0,0,0,0,0,0,0","20,20,20,20,20,20,20,20","20,20,20,20,20,20,20,20","20,20,20,20,20,20,20,20","10,10,10,10,10,10,10,10","20,20,20,20,20,20,20,20","0,0,0,0,0,0,0,0","20,20,20,20,20,20,20,20","0,0,0,0,0,1,0,1","4214,2083,2499,838,1606,1512,1774,673","0.8200321759589357,19.261194276558168,34.76490418705307,22.898815784576726,46.733559565921446,-20.12696076064138,5.807112832918415,-27.490730671285167","2.490334673644174,35.515065295357275,21.371664778652505,2.1185901621484255,24.40310491816424,-8.116428690345467,11.805087200191624,-20.504050469589412","0","0"
"688","86","text","0","63","702923","0-0","","","","","","","","","","","","","","","","","","","","","","","","","","","","","","","","","","","","",""
"","","plant-game","0","64","734673","0-0","","200","190","4","WHEAT CROP","Right","200","190","8","THISTLE WEED","experimental","19","1,2,3,4,5,6,7,8","190,227.04486713926192,248.86731916725253,276.63143314013524,283.2291484758391,294.3718072748905,320.4669038603494,320.03810027640105","8,7,6,5,4,3,2,1","THISTLE WEED,THISTLE WEED,THISTLE WEED,THISTLE WEED,THISTLE WEED,THISTLE WEED,THISTLE WEED,THISTLE WEED","190,236.9364601028817,255.07323000995083,242.9164736300868,160,187.91435328493094,240.635974872438,249.64793676534245","4,3,2,1,4,3,2,1","WHEAT CROP,WHEAT CROP,WHEAT CROP,WHEAT CROP,CORN CROP,CORN CROP,CORN CROP,CORN CROP","0,0,0,0,0,0,0,0","20,20,20,20,20,20,20,20","10,10,10,10,10,10,10,10","20,20,20,20,20,20,20,20","20,20,20,20,20,20,20,20","20,20,20,20,20,20,20,20","0,0,0,0,0,0,0,0","20,20,20,20,20,20,20,20","10,10,10,10,10,10,10,10","20,20,20,20,20,20,20,20","20,20,20,20,20,20,20,20","20,20,20,20,20,20,20,20","1,1,1,0,1,1,1,1","2421,1917,5944,1305,7516,2942,1652,1924","37.04486713926193,21.822452027990618,27.76411397288269,6.597715335703861,11.142658799051407,26.09509658545891,-0.4288035839483868,40.780872688169396","46.936460102881696,18.136769907069134,-12.15675637986402,17.159145358484885,27.914353284930943,52.721621587507045,9.01196189290445,47.688652037561496","0","0"
"550","86","text","0","65","735303","0-0","","","","","","","","","","","","","","","","","","","","","","","","","","","","","","","","","","","","",""
"","","plant-game","0","66","753995","0-0","","200","180","8","WHEAT CROP","Left","200","160","8","THISTLE WEED","experimental","20","1,2,3,4,5,6,7,8","180,198.7197344526595,186.1627258381177,209.48929156692927,251.46957873589764,245.12068717978764,217.29389755693165,196.6661506065309","8,7,6,5,4,3,2,1","WHEAT CROP,WHEAT CROP,WHEAT CROP,WHEAT CROP,WHEAT CROP,WHEAT CROP,WHEAT CROP,WHEAT CROP","160,206.14661122005683,244.56472687603778,268.4107097224692,242.9328320881434,242.30099472850907,259.9181399527881,298.5293496745238","8,7,6,5,4,3,2,1","THISTLE WEED,THISTLE WEED,THISTLE WEED,THISTLE WEED,THISTLE WEED,THISTLE WEED,THISTLE WEED,THISTLE WEED","20,20,20,20,20,20,20,20","20,20,20,20,20,20,20,20","10,10,10,10,10,10,10,10","20,20,20,20,20,20,20,20","0,0,0,0,0,0,0,0","20,20,20,20,20,20,20,20","20,20,20,20,20,20,20,20","20,20,20,20,20,20,20,20","10,10,10,10,10,10,10,10","20,20,20,20,20,20,20,20","0,0,0,0,0,0,0,0","20,20,20,20,20,20,20,20","0,0,0,0,1,0,1,0","3999,1830,999,1545,1836,2204,662,1632","18.719734452659512,-12.557008614541814,23.326565728811563,41.98028716896838,-6.348891556110007,-27.82678962285597,-20.627746950400756,7.285409070428875","46.146611220056826,38.418115655980955,23.845982846431454,-25.477877634325814,-0.6318373596343406,17.617145224279028,38.6112097217357,-10.845095255407134","0","0"
"592","86","text","0","67","754627","0-0","","","","","","","","","","","","","","","","","","","","","","","","","","","","","","","","","","","","",""
"","","plant-game","0","68","770444","0-0","","200","120","1","WHEAT CROP","Right","200","180","4","THISTLE WEED","experimental","21","1,2,3,4","180,214.80663540847547,231.40721931800414,208.373223864771","4,3,2,1","THISTLE WEED,THISTLE WEED,THISTLE WEED,THISTLE WEED","120,170,204.4105819375377,204.3953163288577","1,3,2,1","WHEAT CROP,CORN CROP,CORN CROP,CORN CROP","0,0,0,0","20,20,20,20","10,10,10,10","20,20,20,20","20,20,20,20","20,20,20,20","0,0,0,0","20,20,20,20","10,10,10,10","20,20,20,20","20,20,20,20","20,20,20,20","1,1,1,1","2361,1047,2774,2206","34.80663540847548,16.60058390952866,-23.033995453233132,32.37001317351226","25.87670908987399,34.41058193753769,-0.015265608680017806,19.36477548467591","0","0"
"622","86","text","0","69","771176","0-0","","","","","","","","","","","","","","","","","","","","","","","","","","","","","","","","","","","","",""
"","","plant-game","0","70","784992","0-0","","200","190","2","CORN CROP","Left","200","190","2","THISTLE WEED","experimental","22","1,2","190,205.85709078315867","2,1","CORN CROP,CORN CROP","190,166.3548276321627","2,1","THISTLE WEED,THISTLE WEED","20,20","20,20","10,10","20,20","0,0","20,20","20,20","20,20","10,10","20,20","0,0","20,20","0,0","4221,6214","15.857090783158657,19.018119558334686","-23.645172367837276,17.21533813458697","0","0"
"576","86","text","0","71","785668","0-0","","","","","","","","","","","","","","","","","","","","","","","","","","","","","","","","","","","","",""
"","","plant-game","0","72","792290","0-0","","200","160","1","WHEAT CROP","Right","200","160","1","NETTLE WEED","experimental","23","1","160","1","NETTLE WEED","160","1","WHEAT CROP","0","20","10","20","20","20","0","20","10","20","20","20","1","3035","41.949082231823766","44.02045086591451","0","0"
"659","86","text","0","73","793079","0-0","","","","","","","","","","","","","","","","","","","","","","","","","","","","","","","","","","","","",""
"","","plant-game","0","74","812743","0-0","","200","120","2","WHEAT CROP","Right","200","190","8","THISTLE WEED","experimental","24","1,2,3,4,5,6,7,8","190,199.69986677388857,183.66435932728854,209.9607526017964,210.05415252899496,183.97150311428655,175.000494209206,213.08228317311875","8,7,6,5,4,3,2,1","THISTLE WEED,THISTLE WEED,THISTLE WEED,THISTLE WEED,THISTLE WEED,THISTLE WEED,THISTLE WEED,THISTLE WEED","120,132.02721585105982,140,168.30027405868756,214.98455482368695,231.88750641046158,203.2754851942149,194.40805453422283","2,1,6,5,4,3,2,1","WHEAT CROP,WHEAT CROP,CORN CROP,CORN CROP,CORN CROP,CORN CROP,CORN CROP,CORN CROP","0,0,0,0,0,0,0,0","20,20,20,20,20,20,20,20","10,10,10,10,10,10,10,10","20,20,20,20,20,20,20,20","20,20,20,20,20,20,20,20","20,20,20,20,20,20,20,20","0,0,0,0,0,0,0,0","20,20,20,20,20,20,20,20","10,10,10,10,10,10,10,10","20,20,20,20,20,20,20,20","20,20,20,20,20,20,20,20","20,20,20,20,20,20,20,20","0,0,1,1,0,0,1,1","6281,1199,1422,831,1349,996,724,911","9.699866773888585,-16.035507446600047,26.29639327450785,0.09339992719855772,-26.082649414708413,-8.971008905080547,38.08178896391276,22.301003030004466","12.027215851059822,8.827704377373262,28.300274058687567,46.684280764999386,16.902951586774623,-28.612021216246685,-8.867430659992056,40.501279680465345","0","0"
"520","86","text","0","75","813343","0-0","","","","","","","","","","","","","","","","","","","","","","","","","","","","","","","","","","","","",""
"","","plant-game","0","76","818238","0-0","","200","180","1","CORN CROP","Right","200","120","1","THISTLE WEED","experimental","25","1","120","1","THISTLE WEED","180","1","CORN CROP","0","20","10","20","20","20","0","20","10","20","20","20","1","1972","50.33794140815469","34.485309179565895","0","0"
"531","86","text","0","77","818889","0-0","","","","","","","","","","","","","","","","","","","","","","","","","","","","","","","","","","","","",""
"","","plant-game","0","78","835051","0-0","","200","180","8","CORN CROP","Right","200","190","8","THISTLE WEED","experimental","26","1,2,3,4,5,6,7,8","190,142.04884752049912,162.57083617207968,119.84913321755593,148.1223599252516,151.6011956072709,176.20203872747834,170.02560448565","8,7,6,5,4,3,2,1","THISTLE WEED,THISTLE WEED,THISTLE WEED,THISTLE WEED,THISTLE WEED,THISTLE WEED,THISTLE WEED,THISTLE WEED","180,219.7895153831941,223.49383976322352,225.23297099224715,244.23766557078636,239.85069363034617,262.8111836644048,284.31193477183183","8,7,6,5,4,3,2,1","CORN CROP,CORN CROP,CORN CROP,CORN CROP,CORN CROP,CORN CROP,CORN CROP,CORN CROP","0,0,0,0,0,0,0,0","20,20,20,20,20,20,20,20","10,10,10,10,10,10,10,10","20,20,20,20,20,20,20,20","20,20,20,20,20,20,20,20","20,20,20,20,20,20,20,20","0,0,0,0,0,0,0,0","20,20,20,20,20,20,20,20","10,10,10,10,10,10,10,10","20,20,20,20,20,20,20,20","20,20,20,20,20,20,20,20","20,20,20,20,20,20,20,20","1,0,0,1,1,1,0,0","3018,1105,1356,1343,1296,1896,852,1498","-47.95115247950089,20.52198865158056,-42.72170295452375,28.273226707695663,3.478835682019305,24.600843120207433,-6.1764342418283436,3.7412089839318243","39.789515383194086,3.7043243800294077,1.739131229023623,19.00469457853921,-4.3869719404401835,22.960490034058587,21.500751107427064,-23.120440220354208","0","0"
"631","86","text","0","79","835772","0-0","","","","","","","","","","","","","","","","","","","","","","","","","","","","","","","","","","","","",""
"","","plant-game","0","80","847895","0-0","","200","120","2","WHEAT CROP","Right","200","180","2","NETTLE WEED","experimental","27","1,2","180,201.8124971715387","2,1","NETTLE WEED,NETTLE WEED","120,158.46814101634396","2,1","WHEAT CROP,WHEAT CROP","0,0","20,20","10,10","20,20","20,20","20,20","0,0","20,20","10,10","20,20","20,20","20,20","1,0","2528,6168","21.8124971715387,18.9492145424659","38.46814101634398,28.42171049294276","0","0"
"498","86","text","0","81","848473","0-0","","","","","","","","","","","","","","","","","","","","","","","","","","","","","","","","","","","","",""
"","","plant-game","0","82","873115","0-0","","200","160","4","CORN CROP","Left","200","190","8","NETTLE WEED","experimental","28","1,2,3,4,5,6,7,8","160,224.4555000555794,241.78425838572807,235.3682632034064,160,134.70926773699497,158.34781363707376,180.76768983180415","4,3,2,1,4,3,2,1","CORN CROP,CORN CROP,CORN CROP,CORN CROP,WHEAT CROP,WHEAT CROP,WHEAT CROP,WHEAT CROP","190,213.07665755833983,228.50108440933212,223.40384772668665,242.3601533526736,265.6048001715076,300.26380689570146,279.6145803085823","8,7,6,5,4,3,2,1","NETTLE WEED,NETTLE WEED,NETTLE WEED,NETTLE WEED,NETTLE WEED,NETTLE WEED,NETTLE WEED,NETTLE WEED","20,20,20,20,20,20,20,20","20,20,20,20,20,20,20,20","10,10,10,10,10,10,10,10","20,20,20,20,20,20,20,20","0,0,0,0,0,0,0,0","20,20,20,20,20,20,20,20","20,20,20,20,20,20,20,20","20,20,20,20,20,20,20,20","10,10,10,10,10,10,10,10","20,20,20,20,20,20,20,20","0,0,0,0,0,0,0,0","20,20,20,20,20,20,20,20","0,0,1,0,1,0,0,0","5020,2513,1548,2581,2396,2708,775,686","64.45550005557939,17.328758330148684,-6.415995182321676,32.69320647354222,-25.290732263005022,23.63854590007879,22.419876194730396,16.931400872675905","23.076657558339843,15.424426850992294,-5.097236682645464,18.956305625986932,23.24464681883399,34.659006724193894,-20.64922658711916,0.5862877905343886","0","0"
"460","86","text","0","83","873700","0-0","","","","","","","","","","","","","","","","","","","","","","","","","","","","","","","","","","","","",""
"","","plant-game","0","84","892874","0-0","","200","190","8","CORN CROP","Left","200","180","4","THISTLE WEED","experimental","29","1,2,3,4,5,6,7,8","190,196.638376299833,205.56198702067502,184.06090706388986,186.43974084460842,176.70176662346225,140.95594938274618,139.78496011652703","8,7,6,5,4,3,2,1","CORN CROP,CORN CROP,CORN CROP,CORN CROP,CORN CROP,CORN CROP,CORN CROP,CORN CROP","180,197.68350734668886,197.3962062055538,181.08475795078488,160,211.66423359401176,199.32502841827468,238.55802487161614","4,3,2,1,4,3,2,1","THISTLE WEED,THISTLE WEED,THISTLE WEED,THISTLE WEED,NETTLE WEED,NETTLE WEED,NETTLE WEED,NETTLE WEED","20,20,20,20,20,20,20,20","20,20,20,20,20,20,20,20","10,10,10,10,10,10,10,10","20,20,20,20,20,20,20,20","0,0,0,0,0,0,0,0","20,20,20,20,20,20,20,20","20,20,20,20,20,20,20,20","20,20,20,20,20,20,20,20","10,10,10,10,10,10,10,10","20,20,20,20,20,20,20,20","0,0,0,0,0,0,0,0","20,20,20,20,20,20,20,20","0,1,1,1,0,0,0,1","2515,1750,1295,1733,1061,749,1638,1527","6.638376299833004,8.923610720842007,-21.501079956785155,2.378833780718557,-9.737974221146182,-35.745817240716065,-1.170989266219145,-12.564761486689457","17.68350734668886,-0.287301141135063,-16.311448254768905,39.351161564790104,51.66423359401176,-12.33920517573707,39.23299645334146,22.42324440081767","0","0"
"663","86","text","0","85","893640","0-0","","","","","","","","","","","","","","","","","","","","","","","","","","","","","","","","","","","","",""
"","","plant-game","0","86","901523","0-0","","200","120","2","WHEAT CROP","Right","200","190","2","NETTLE WEED","experimental","30","1,2","190,196.32321336417775","2,1","NETTLE WEED,NETTLE WEED","120,120.6367131102834","2,1","WHEAT CROP,WHEAT CROP","0,0","20,20","10,10","20,20","20,20","20,20","0,0","20,20","10,10","20,20","20,20","20,20","0,0","3725,721","6.32321336417775,11.434981853264963","0.6367131102833906,-24.32294597267157","0","0"
"559","86","text","0","87","902192","0-0","","","","","","","","","","","","","","","","","","","","","","","","","","","","","","","","","","","","",""
"","","plant-game","0","88","927188","0-0","","200","120","4","CORN CROP","Right","200","190","8","NETTLE WEED","experimental","31","1,2,3,4,5,6,7,8","190,213.20911325715085,238.18939295177998,265.6957648031186,276.037713880078,296.74705119475647,301.138193936191,330.60738881654964","8,7,6,5,4,3,2,1","NETTLE WEED,NETTLE WEED,NETTLE WEED,NETTLE WEED,NETTLE WEED,NETTLE WEED,NETTLE WEED,NETTLE WEED","120,150.9781010564641,163.75404857584311,173.22856947743466,160,149.2991652852459,133.2866676106508,204.2049033755648","4,3,2,1,4,3,2,1","CORN CROP,CORN CROP,CORN CROP,CORN CROP,WHEAT CROP,WHEAT CROP,WHEAT CROP,WHEAT CROP","0,0,0,0,0,0,0,0","20,20,20,20,20,20,20,20","10,10,10,10,10,10,10,10","20,20,20,20,20,20,20,20","20,20,20,20,20,20,20,20","20,20,20,20,20,20,20,20","0,0,0,0,0,0,0,0","20,20,20,20,20,20,20,20","10,10,10,10,10,10,10,10","20,20,20,20,20,20,20,20","20,20,20,20,20,20,20,20","20,20,20,20,20,20,20,20","1,1,1,1,1,1,1,1","9063,707,781,551,1786,3412,863,1812","23.20911325715084,24.98027969462913,27.50637185133865,10.341949076959416,20.70933731467848,4.391142741434537,29.46919488035866,40.71257912209339","30.978101056464116,12.77594751937901,9.474520901591546,11.685906579376441,-10.700834714754102,-16.01249767459511,70.91823576491402,0.37709454859571423","0","0"
"535","86","text","0","89","927833","0-0","","","","","","","","","","","","","","","","","","","","","","","","","","","","","","","","","","","","",""
"","","plant-game","0","90","952707","0-0","","200","120","1","WHEAT CROP","Left","200","160","8","THISTLE WEED","experimental","32","1,2,3,4,5,6,7,8","120,130,139.79304796409156,151.85939919883378,143.42460306718183,125.97777318362222,166.82583290026133,211.3131690086783","1,7,6,5,4,3,2,1","WHEAT CROP,CORN CROP,CORN CROP,CORN CROP,CORN CROP,CORN CROP,CORN CROP,CORN CROP","160,184.90874830689808,186.54330391551332,212.47823417180015,178.9751822829779,184.86756850080022,200.01099702206383,204.55830260637356","8,7,6,5,4,3,2,1","THISTLE WEED,THISTLE WEED,THISTLE WEED,THISTLE WEED,THISTLE WEED,THISTLE WEED,THISTLE WEED,THISTLE WEED","20,20,20,20,20,20,20,20","20,20,20,20,20,20,20,20","10,10,10,10,10,10,10,10","20,20,20,20,20,20,20,20","0,0,0,0,0,0,0,0","20,20,20,20,20,20,20,20","20,20,20,20,20,20,20,20","20,20,20,20,20,20,20,20","10,10,10,10,10,10,10,10","20,20,20,20,20,20,20,20","0,0,0,0,0,0,0,0","20,20,20,20,20,20,20,20","1,0,0,1,1,1,0,0","5865,1984,3159,2130,1509,656,2464,1420","16.185285461537372,9.793047964091567,12.066351234742232,-8.434796131651938,-17.446829883559612,40.84805971663913,44.48733610841696,58.390718430164","24.908748306898065,1.6345556086152513,25.93493025628684,-33.50305188882225,5.892386217822317,15.143428521263615,4.547305584309736,17.0439494570369","0","0"
"3126","86","text","0","91","955914","0-0","","","","","","","","","","","","","","","","","","","","","","","","","","","","","","","","","","","","",""
"","","plant-game","0","92","967283","0-0","","200","190","1","CORN CROP","Right","200","160","2","THISTLE WEED","experimental","33","1,2","160,199.07501730426748","2,1","THISTLE WEED,THISTLE WEED","190,190","1,1","CORN CROP,WHEAT CROP","0,0","20,20","10,10","20,20","20,20","20,20","0,0","20,20","10,10","20,20","20,20","20,20","1,1","2677,3909","39.075017304267476,75.64948212868616","40.750037438394955,26.784075209092286","0","0"
"609","86","text","0","93","967972","0-0","","","","","","","","","","","","","","","","","","","","","","","","","","","","","","","","","","","","",""
"","","plant-game","0","94","994754","0-0","","200","180","1","WHEAT CROP","Right","200","180","8","NETTLE WEED","experimental","34","1,2,3,4,5,6,7,8","180,219.69624255729525,223.8082806442786,220.63414142137134,238.31284512476867,229.02569558995918,229.16282054696248,199.00551513996123","8,7,6,5,4,3,2,1","NETTLE WEED,NETTLE WEED,NETTLE WEED,NETTLE WEED,NETTLE WEED,NETTLE WEED,NETTLE WEED,NETTLE WEED","180,130,140.27306130930134,109.93368482310555,99.58423911176101,84.03893955282088,86.64288066256314,80.0305994076673","1,7,6,5,4,3,2,1","WHEAT CROP,CORN CROP,CORN CROP,CORN CROP,CORN CROP,CORN CROP,CORN CROP,CORN CROP","0,0,0,0,0,0,0,0","20,20,20,20,20,20,20,20","10,10,10,10,10,10,10,10","20,20,20,20,20,20,20,20","20,20,20,20,20,20,20,20","20,20,20,20,20,20,20,20","0,0,0,0,0,0,0,0","20,20,20,20,20,20,20,20","10,10,10,10,10,10,10,10","20,20,20,20,20,20,20,20","20,20,20,20,20,20,20,20","20,20,20,20,20,20,20,20","1,0,0,0,0,0,0,0","3737,2675,3411,1156,1311,3853,2028,1267","39.696242557295264,4.112038086983343,-3.1741392229072654,17.678703703397318,-9.287149534809489,0.13712495700329236,-30.15730540700124,19.623908870929792","2.259410521501323,10.273061309301355,-30.339376486195782,-10.34944571134455,-15.545299558940126,2.60394110974227,-6.612281254895855,-6.811622457778631","0","0"
"540","86","text","0","95","995394","0-0","","","","","","","","","","","","","","","","","","","","","","","","","","","","","","","","","","","","",""
"","","plant-game","0","96","1006231","0-0","","200","120","4","WHEAT CROP","Right","200","160","4","NETTLE WEED","experimental","35","1,2,3,4","160,180.43533410775896,147.48869998968917,184.4786848664265","4,3,2,1","NETTLE WEED,NETTLE WEED,NETTLE WEED,NETTLE WEED","120,123.6792550082453,183.68340892765144,197.9420704734568","4,3,2,1","WHEAT CROP,WHEAT CROP,WHEAT CROP,WHEAT CROP","0,0,0,0","20,20,20,20","10,10,10,10","20,20,20,20","20,20,20,20","20,20,20,20","0,0,0,0","20,20,20,20","10,10,10,10","20,20,20,20","20,20,20,20","20,20,20,20","0,0,1,1","2556,2368,1092,1340","20.435334107758965,-32.9466341180698,36.989984876737346,-49.23910038031741","3.67925500824531,60.00415391940612,14.258661545805364,-38.88733681004857","0","0"
"672","86","text","0","97","1006993","0-0","","","","","","","","","","","","","","","","","","","","","","","","","","","","","","","","","","","","",""
"","","plant-game","0","98","1011791","0-0","","200","190","1","CORN CROP","Left","200","180","1","NETTLE WEED","experimental","36","1","190","1","CORN CROP","180","1","NETTLE WEED","20","20","10","20","0","20","20","20","10","20","0","20","0","2114","31.36139310644805","4.923913189962104","0","0"
"475","86","text","0","99","1012356","0-0","","","","","","","","","","","","","","","","","","","","","","","","","","","","","","","","","","","","",""
"","","plant-game","0","100","1031423","0-0","","200","190","4","WHEAT CROP","Right","200","120","1","THISTLE WEED","experimental","37","1,2,3,4","120,170,191.4450881486353,208.95787057625196","1,3,2,1","THISTLE WEED,NETTLE WEED,NETTLE WEED,NETTLE WEED","190,190.69550135595443,244.28590179534285,278.5638718081173","4,3,2,1","WHEAT CROP,WHEAT CROP,WHEAT CROP,WHEAT CROP","0,0,0,0","20,20,20,20","10,10,10,10","20,20,20,20","20,20,20,20","20,20,20,20","0,0,0,0","20,20,20,20","10,10,10,10","20,20,20,20","20,20,20,20","20,20,20,20","1,1,0,0","2063,2159,1494,1164","-7.01407586710339,21.445088148635303,17.512782427616656,21.984787616232335","0.695501355954427,53.59040043938842,34.27797001277444,21.62472666514755","0","0"
"785","86","text","0","101","1032278","0-0","","","","","","","","","","","","","","","","","","","","","","","","","","","","","","","","","","","","",""
"","","plant-game","0","102","1045732","0-0","","200","190","1","CORN CROP","Left","200","180","2","THISTLE WEED","experimental","38","1,2","190,190","1,1","CORN CROP,WHEAT CROP","180,207.46173718007825","2,1","THISTLE WEED,THISTLE WEED","20,20","20,20","10,10","20,20","0,0","20,20","20,20","20,20","10,10","20,20","0,0","20,20","0,1","2454,6672","26.684351243760673,27.431203324408536","27.461737180078245,-6.909976413830453","0","0"
"839","86","text","0","103","1046671","0-0","","","","","","","","","","","","","","","","","","","","","","","","","","","","","","","","","","","","",""
"","","plant-game","0","104","1063081","0-0","","200","120","2","WHEAT CROP","Left","200","190","4","NETTLE WEED","experimental","39","1,2,3,4","120,127.1339337257494,180,211.927073766522","2,1,2,1","WHEAT CROP,WHEAT CROP,CORN CROP,CORN CROP","190,209.0220466217793,183.77955037565454,204.04244977333542","4,3,2,1","NETTLE WEED,NETTLE WEED,NETTLE WEED,NETTLE WEED","20,20,20,20","20,20,20,20","10,10,10,10","20,20,20,20","0,0,0,0","20,20,20,20","20,20,20,20","20,20,20,20","10,10,10,10","20,20,20,20","0,0,0,0","20,20,20,20","1,1,1,1","6929,878,2271,1234","7.133933725749407,10.274062280094567,31.927073766522007,-20.153075623173756","19.0220466217793,-25.24249624612477,20.262899397680897,3.0234468261602654","0","0"
"506","86","text","0","105","1063703","0-0","","","","","","","","","","","","","","","","","","","","","","","","","","","","","","","","","","","","",""
"","","plant-game","0","106","1070798","0-0","","200","160","2","CORN CROP","Left","200","180","2","NETTLE WEED","experimental","40","1,2","160,166.3151993952908","2,1","CORN CROP,CORN CROP","180,191.53940975969","2,1","NETTLE WEED,NETTLE WEED","20,20","20,20","10,10","20,20","0,0","20,20","20,20","20,20","10,10","20,20","0,0","20,20","0,1","1887,1553","6.315199395290804,27.442501481363955","11.539409759689997,26.927465326840423","0","0"
"578","86","text","0","107","1071516","0-0","","","","","","","","","","","","","","","","","","","","","","","","","","","","","","","","","","","","",""
"","","plant-game","0","108","1082653","0-0","","200","120","2","WHEAT CROP","Right","200","160","1","THISTLE WEED","experimental","41","1,2","160,190","1,1","THISTLE WEED,NETTLE WEED","120,88.31773938976082","2,1","WHEAT CROP,WHEAT CROP","0,0","20,20","10,10","20,20","20,20","20,20","0,0","20,20","10,10","20,20","20,20","20,20","0,0","3450,2765","-42.320620875695525,-18.0367904674468","-31.682260610239183,22.13459363421762","0","0"
"858","86","text","0","109","1083631","0-0","","","","","","","","","","","","","","","","","","","","","","","","","","","","","","","","","","","","",""
"","","plant-game","0","110","1096835","0-0","","200","160","4","CORN CROP","Left","200","190","2","THISTLE WEED","experimental","42","1,2,3,4","160,187.02817480213892,181.12228153425085,221.19409786287042","4,3,2,1","CORN CROP,CORN CROP,CORN CROP,CORN CROP","190,238.05175155801035,180,188.22052131972063","2,1,2,1","THISTLE WEED,THISTLE WEED,NETTLE WEED,NETTLE WEED","20,20,20,20","20,20,20,20","10,10,10,10","20,20,20,20","0,0,0,0","20,20,20,20","20,20,20,20","20,20,20,20","10,10,10,10","20,20,20,20","0,0,0,0","20,20,20,20","1,1,0,1","4620,908,1216,1455","27.028174802138928,-5.905893267888073,40.07181632861959,1.1366836628658499","48.05175155801035,1.2319184590046273,8.220521319720643,25.52793327917035","0","0"
"684","86","text","0","111","1097629","0-0","","","","","","","","","","","","","","","","","","","","","","","","","","","","","","","","","","","","",""
"","","plant-game","0","112","1109204","0-0","","200","190","4","CORN CROP","Left","200","120","4","THISTLE WEED","experimental","43","1,2,3,4","190,217.0559586403302,215.1159752319873,241.62412323585028","4,3,2,1","CORN CROP,CORN CROP,CORN CROP,CORN CROP","120,162.62456252720096,168.14295655240787,168.30793369703898","4,3,2,1","THISTLE WEED,THISTLE WEED,THISTLE WEED,THISTLE WEED","20,20,20,20","20,20,20,20","10,10,10,10","20,20,20,20","0,0,0,0","20,20,20,20","20,20,20,20","20,20,20,20","10,10,10,10","20,20,20,20","0,0,0,0","20,20,20,20","0,1,1,1","4728,1258,1295,1181","27.055958640330193,-1.939983408342899,26.50814800386297,-3.7708270273219266","42.62456252720096,5.518394025206899,0.16497714463109736,15.835892592632865","0","0"
"559","86","text","0","113","1109863","0-0","","","","","","","","","","","","","","","","","","","","","","","","","","","","","","","","","","","","",""
"","","plant-game","0","114","1126191","0-0","","200","120","1","CORN CROP","Right","200","190","2","NETTLE WEED","experimental","44","1,2","190,198.97232110141022","2,1","NETTLE WEED,NETTLE WEED","120,190","1,1","CORN CROP,WHEAT CROP","0,0","20,20","10,10","20,20","20,20","20,20","0,0","20,20","10,10","20,20","20,20","20,20","0,0","9153,1992","8.972321101410225,-43.911691795479385","14.981468798376458,10.282488260583504","0","0"
"546","86","text","0","115","1126817","0-0","","","","","","","","","","","","","","","","","","","","","","","","","","","","","","","","","","","","",""
"","","plant-game","0","116","1137582","0-0","","200","120","4","WHEAT CROP","Left","200","120","2","THISTLE WEED","experimental","45","1,2,3,4","120,135.9065951541816,144.07345614248854,164.82571058312274","4,3,2,1","WHEAT CROP,WHEAT CROP,WHEAT CROP,WHEAT CROP","120,141.0497707407908,180,182.63708383330513","2,1,2,1","THISTLE WEED,THISTLE WEED,NETTLE WEED,NETTLE WEED","20,20,20,20","20,20,20,20","10,10,10,10","20,20,20,20","0,0,0,0","20,20,20,20","20,20,20,20","20,20,20,20","10,10,10,10","20,20,20,20","0,0,0,0","20,20,20,20","0,0,1,1","3119,799,1982,513","15.906595154181591,8.166860988306945,20.75225444063421,9.481535803746162","21.049770740790805,69.76053814201347,2.637083833305132,-1.2431277307823527","0","0"
"408","86","text","0","117","1138100","0-0","","","","","","","","","","","","","","","","","","","","","","","","","","","","","","","","","","","","",""
"","","plant-game","0","118","1159074","0-0","","200","190","8","WHEAT CROP","Right","200","180","2","THISTLE WEED","experimental","46","1,2,3,4,5,6,7,8","180,187.05559102725564,140,162.08335127014982,136.48086015743377,128.47806368208464,148.79844332563025,209.96798319128712","2,1,6,5,4,3,2,1","THISTLE WEED,THISTLE WEED,NETTLE WEED,NETTLE WEED,NETTLE WEED,NETTLE WEED,NETTLE WEED,NETTLE WEED","190,171.9532280082547,168.30039377040276,192.03873320484047,200.029033162058,197.74124581652265,213.87879957901384,252.82921471912613","8,7,6,5,4,3,2,1","WHEAT CROP,WHEAT CROP,WHEAT CROP,WHEAT CROP,WHEAT CROP,WHEAT CROP,WHEAT CROP,WHEAT CROP","0,0,0,0,0,0,0,0","20,20,20,20,20,20,20,20","10,10,10,10,10,10,10,10","20,20,20,20,20,20,20,20","20,20,20,20,20,20,20,20","20,20,20,20,20,20,20,20","0,0,0,0,0,0,0,0","20,20,20,20,20,20,20,20","10,10,10,10,10,10,10,10","20,20,20,20,20,20,20,20","20,20,20,20,20,20,20,20","20,20,20,20,20,20,20,20","0,0,1,0,1,1,1,0","3466,917,4281,1529,1382,991,2389,987","7.0555910272556455,3.208461583981767,22.083351270149805,-25.602491112716045,-8.002796475349122,20.32037964354561,61.16953986565687,-10.532330303952499","-18.046771991745295,-3.6528342378519585,23.738339434437695,7.990299957217532,-2.2877873455353424,16.13755376249118,38.9504151401123,5.3315455222988675","0","0"
"452","86","text","0","119","1159606","0-0","","","","","","","","","","","","","","","","","","","","","","","","","","","","","","","","","","","","",""
"","","plant-game","0","120","1169679","0-0","","200","180","2","WHEAT CROP","Left","200","120","1","THISTLE WEED","experimental","47","1,2","180,172.73053805201295","2,1","WHEAT CROP,WHEAT CROP","120,190","1,1","THISTLE WEED,NETTLE WEED","20,20","20,20","10,10","20,20","0,0","20,20","20,20","20,20","10,10","20,20","0,0","20,20","0,1","2182,3446","-7.269461947987047,-19.169015089359892","50.320619640702034,-28.85064712070973","0","0"
"614","86","text","0","121","1170373","0-0","","","","","","","","","","","","","","","","","","","","","","","","","","","","","","","","","","","","",""
"","","plant-game","0","122","1188074","0-0","","200","120","8","CORN CROP","Left","200","160","8","NETTLE WEED","experimental","48","1,2,3,4,5,6,7,8","120,122.57671554408722,90.23000832182066,85.36425471043407,111.34783340758382,137.75847289581716,158.82832245393217,159.01116173157146","8,7,6,5,4,3,2,1","CORN CROP,CORN CROP,CORN CROP,CORN CROP,CORN CROP,CORN CROP,CORN CROP,CORN CROP","160,160.75956811534732,155.93140348819733,133.1457213762645,178.6655698015374,172.14719770744557,192.46957093412516,194.87183362510245","8,7,6,5,4,3,2,1","NETTLE WEED,NETTLE WEED,NETTLE WEED,NETTLE WEED,NETTLE WEED,NETTLE WEED,NETTLE WEED,NETTLE WEED","20,20,20,20,20,20,20,20","20,20,20,20,20,20,20,20","10,10,10,10,10,10,10,10","20,20,20,20,20,20,20,20","0,0,0,0,0,0,0,0","20,20,20,20,20,20,20,20","20,20,20,20,20,20,20,20","20,20,20,20,20,20,20,20","10,10,10,10,10,10,10,10","20,20,20,20,20,20,20,20","0,0,0,0,0,0,0,0","20,20,20,20,20,20,20,20","1,1,0,0,0,0,1,1","7363,1206,819,670,1229,1363,744,797","2.576715544087219,-32.34670722226656,-4.865753611386602,25.98357869714975,26.410639488233336,21.069849558115,0.1828392776392905,3.4412158372307338","0.7595681153473217,-4.828164627149981,-22.78568211193283,45.51984842527289,-6.518372094091838,20.322373226679602,2.4022626909772966,-11.764379236183412","0","0"
"2049","86","text","0","123","1190216","0-0","","","","","","","","","","","","","","","","","","","","","","","","","","","","","","","","","","","","",""
"","","plant-game","0","124","1202229","0-0","","200","160","4","CORN CROP","Left","200","180","2","THISTLE WEED","experimental","49","1,2,3,4","160,159.21024237010988,154.15377354174538,121.30518532991861","4,3,2,1","CORN CROP,CORN CROP,CORN CROP,CORN CROP","180,210.9813774158889,180,216.15532001367674","2,1,2,1","THISTLE WEED,THISTLE WEED,NETTLE WEED,NETTLE WEED","20,20,20,20","20,20,20,20","10,10,10,10","20,20,20,20","0,0,0,0","20,20,20,20","20,20,20,20","20,20,20,20","10,10,10,10","20,20,20,20","0,0,0,0","20,20,20,20","0,1,1,1","2606,1396,1464,2216","-0.7897576298901257,-5.056468828364508,-32.848588211826765,-25.24909155389082","30.981377415888876,-11.409635243878945,36.15532001367675,21.77666994779468","0","0"
"424","86","text","0","125","1202750","0-0","","","","","","","","","","","","","","","","","","","","","","","","","","","","","","","","","","","","",""
"","","plant-game","0","126","1213567","0-0","","200","190","1","CORN CROP","Right","200","120","2","NETTLE WEED","experimental","50","1,2","120,137.7594357079088","2,1","NETTLE WEED,NETTLE WEED","190,190","1,1","CORN CROP,WHEAT CROP","0,0","20,20","10,10","20,20","20,20","20,20","0,0","20,20","10,10","20,20","20,20","20,20","1,1","1949,3353","17.759435707908796,-2.5796979448197632","9.137498389534553,20.0101698508034","0","0"
"522","86","text","0","127","1214189","0-0","","","","","","","","","","","","","","","","","","","","","","","","","","","","","","","","","","","","",""
"","","plant-game","0","128","1232413","0-0","","200","160","1","CORN CROP","Left","200","180","8","THISTLE WEED","experimental","51","1,2,3,4,5,6,7,8","160,130,111.91414474139873,87.02269603070482,86.31289530927705,75.84205839269644,29.26562192271819,49.12774565434105","1,7,6,5,4,3,2,1","CORN CROP,WHEAT CROP,WHEAT CROP,WHEAT CROP,WHEAT CROP,WHEAT CROP,WHEAT CROP,WHEAT CROP","180,194.4677294407419,211.71695736429436,217.8366561979884,231.89855491724921,235.36338282466852,228.43050216999646,237.96102975671246","8,7,6,5,4,3,2,1","THISTLE WEED,THISTLE WEED,THISTLE WEED,THISTLE WEED,THISTLE WEED,THISTLE WEED,THISTLE WEED,THISTLE WEED","20,20,20,20,20,20,20,20","20,20,20,20,20,20,20,20","10,10,10,10,10,10,10,10","20,20,20,20,20,20,20,20","0,0,0,0,0,0,0,0","20,20,20,20,20,20,20,20","20,20,20,20,20,20,20,20","20,20,20,20,20,20,20,20","10,10,10,10,10,10,10,10","20,20,20,20,20,20,20,20","0,0,0,0,0,0,0,0","20,20,20,20,20,20,20,20","0,1,1,1,1,1,1,1","3896,4540,744,482,571,521,509,695","31.889599232877693,-18.085855258601267,-24.891448710693904,-0.7098007214277656,-10.470836916580609,-46.576436469978255,19.86212373162286,-15.83458102974038","14.467729440741902,17.249227923552457,6.1196988336940175,14.061898719260817,3.464827907419319,-6.932880654672061,9.530527586716016,19.061049777312796","0","0"
"577","86","text","0","129","1233100","0-0","","","","","","","","","","","","","","","","","","","","","","","","","","","","","","","","","","","","",""
"","","plant-game","0","130","1246293","0-0","","200","180","4","WHEAT CROP","Right","200","160","2","NETTLE WEED","experimental","52","1,2,3,4","160,157.34680113089382,180,193.45032172237663","2,1,2,1","NETTLE WEED,NETTLE WEED,THISTLE WEED,THISTLE WEED","180,171.05346692869307,162.44933978766844,198.3339953440248","4,3,2,1","WHEAT CROP,WHEAT CROP,WHEAT CROP,WHEAT CROP","0,0,0,0","20,20,20,20","10,10,10,10","20,20,20,20","20,20,20,20","20,20,20,20","0,0,0,0","20,20,20,20","10,10,10,10","20,20,20,20","20,20,20,20","20,20,20,20","0,0,0,1","4147,961,2367,1511","-2.653198869106168,17.600134615440222,13.45032172237662,15.995834450456346","-8.94653307130693,-8.60412714102464,35.88465555635636,34.10381695439874","0","0"
"646","86","text","0","131","1247029","0-0","","","","","","","","","","","","","","","","","","","","","","","","","","","","","","","","","","","","",""
"","","plant-game","0","132","1264808","0-0","","200","180","8","WHEAT CROP","Left","200","180","4","NETTLE WEED","experimental","53","1,2,3,4,5,6,7,8","180,223.03352505301999,215.3299267260869,205.59772503711105,248.81968852162015,236.97637238128073,213.8047370003281,224.96138399220123","8,7,6,5,4,3,2,1","WHEAT CROP,WHEAT CROP,WHEAT CROP,WHEAT CROP,WHEAT CROP,WHEAT CROP,WHEAT CROP,WHEAT CROP","180,179.0793421322955,201.11987641757307,220.09249257413182,160,166.31131347080535,169.5584288893539,137.76433291399104","4,3,2,1,4,3,2,1","NETTLE WEED,NETTLE WEED,NETTLE WEED,NETTLE WEED,THISTLE WEED,THISTLE WEED,THISTLE WEED,THISTLE WEED","20,20,20,20,20,20,20,20","20,20,20,20,20,20,20,20","10,10,10,10,10,10,10,10","20,20,20,20,20,20,20,20","0,0,0,0,0,0,0,0","20,20,20,20,20,20,20,20","20,20,20,20,20,20,20,20","20,20,20,20,20,20,20,20","10,10,10,10,10,10,10,10","20,20,20,20,20,20,20,20","0,0,0,0,0,0,0,0","20,20,20,20,20,20,20,20","0,1,1,1,1,1,1,1","1699,1573,1117,3031,1761,1171,937,1110","43.03352505301999,-7.703598326933067,-9.73220168897585,43.22196348450912,-11.843316140339422,-23.171635380952644,11.156646991873142,11.548453029594203","-0.920657867704513,22.04053428527758,18.972616156558747,63.03351234991106,6.311313470805332,3.2471154185485545,-31.794095975362872,-3.168464227104793","0","0"
"178","86","text","0","133","1265066","0-0","","","","","","","","","","","","","","","","","","","","","","","","","","","","","","","","","","","","",""
"","","plant-game","0","134","1280910","0-0","","200","180","8","CORN CROP","Left","200","180","8","NETTLE WEED","experimental","54","1,2,3,4,5,6,7,8","180,208.93212315705935,208.75698688895838,253.78092604415482,241.7223725541242,245.39048265403727,232.6746090885569,228.47743631776513","8,7,6,5,4,3,2,1","CORN CROP,CORN CROP,CORN CROP,CORN CROP,CORN CROP,CORN CROP,CORN CROP,CORN CROP","180,216.03949743216998,210.49766740998803,204.48303417079467,201.76050875496188,197.76709971393646,226.7206501467083,267.262071051199","8,7,6,5,4,3,2,1","NETTLE WEED,NETTLE WEED,NETTLE WEED,NETTLE WEED,NETTLE WEED,NETTLE WEED,NETTLE WEED,NETTLE WEED","20,20,20,20,20,20,20,20","20,20,20,20,20,20,20,20","10,10,10,10,10,10,10,10","20,20,20,20,20,20,20,20","0,0,0,0,0,0,0,0","20,20,20,20,20,20,20,20","20,20,20,20,20,20,20,20","20,20,20,20,20,20,20,20","10,10,10,10,10,10,10,10","20,20,20,20,20,20,20,20","0,0,0,0,0,0,0,0","20,20,20,20,20,20,20,20","0,0,0,0,0,1,1,1","1620,1297,1448,1304,2627,1322,1190,962","28.93212315705935,-0.1751362681009816,45.02393915519645,-12.058553490030604,3.6681100999130614,-12.715873565480374,-4.197172770791795,-7.524882829801044","36.03949743216998,-5.541830022181962,-6.014633239193348,-2.7225254158327807,-3.9934090410254157,28.953550432771845,40.541420904490664,12.23977214557456","0","0"
"680","86","text","0","135","1281670","0-0","","","","","","","","","","","","","","","","","","","","","","","","","","","","","","","","","","","","",""
"","","plant-game","0","136","1296830","0-0","","200","180","8","WHEAT CROP","Right","200","120","4","NETTLE WEED","experimental","55","1,2,3,4,5,6,7,8","120,148.66028104011352,120.0998338451912,126.85087053310247,160,141.71418979537577,150.90610375364946,157.6744888275253","4,3,2,1,4,3,2,1","NETTLE WEED,NETTLE WEED,NETTLE WEED,NETTLE WEED,THISTLE WEED,THISTLE WEED,THISTLE WEED,THISTLE WEED","180,224.35434806868324,226.79561541532274,266.2423876822423,243.2473367490379,261.8225030083859,248.43682199267306,265.3053868376219","8,7,6,5,4,3,2,1","WHEAT CROP,WHEAT CROP,WHEAT CROP,WHEAT CROP,WHEAT CROP,WHEAT CROP,WHEAT CROP,WHEAT CROP","0,0,0,0,0,0,0,0","20,20,20,20,20,20,20,20","10,10,10,10,10,10,10,10","20,20,20,20,20,20,20,20","20,20,20,20,20,20,20,20","20,20,20,20,20,20,20,20","0,0,0,0,0,0,0,0","20,20,20,20,20,20,20,20","10,10,10,10,10,10,10,10","20,20,20,20,20,20,20,20","20,20,20,20,20,20,20,20","20,20,20,20,20,20,20,20","1,0,0,0,0,0,0,1","2927,1136,583,795,2263,643,944,695","28.66028104011352,-28.56044719492232,6.75103668791127,17.689391547305785,-18.285810204624212,9.191913958273684,6.76838507387584,36.02096217462129","44.35434806868324,2.4412673466394983,39.44677226691955,-22.99505093320436,18.57516625934801,-13.385681015712866,16.868564844948796,34.6937687173372","0","0"
"644","86","text","0","137","1297585","0-0","","","","","","","","","","","","","","","","","","","","","","","","","","","","","","","","","","","","",""
"","","plant-game","0","138","1305079","0-0","","200","180","2","CORN CROP","Right","200","180","2","NETTLE WEED","experimental","56","1,2","180,205.4125169804842","2,1","NETTLE WEED,NETTLE WEED","180,206.51777285071304","2,1","CORN CROP,CORN CROP","0,0","20,20","10,10","20,20","20,20","20,20","0,0","20,20","10,10","20,20","20,20","20,20","1,1","2814,1131","25.412516980484206,20.949196494042006","26.517772850713044,26.169245243503372","0","0"
"774","86","text","0","139","1305953","0-0","","","","","","","","","","","","","","","","","","","","","","","","","","","","","","","","","","","","",""
"","","plant-game","0","140","1320778","0-0","","200","160","8","CORN CROP","Right","200","160","2","THISTLE WEED","experimental","57","1,2,3,4,5,6,7,8","160,160.27380235897752,140,131.80594563100956,124.82687060837186,151.7467055427494,185.6948201496885,200.94862538161067","2,1,6,5,4,3,2,1","THISTLE WEED,THISTLE WEED,NETTLE WEED,NETTLE WEED,NETTLE WEED,NETTLE WEED,NETTLE WEED,NETTLE WEED","160,182.32041404453912,132.130991606421,175.37508389116843,209.07530729071752,222.99601328432902,214.89960298702903,219.54982293591056","8,7,6,5,4,3,2,1","CORN CROP,CORN CROP,CORN CROP,CORN CROP,CORN CROP,CORN CROP,CORN CROP,CORN CROP","0,0,0,0,0,0,0,0","20,20,20,20,20,20,20,20","10,10,10,10,10,10,10,10","20,20,20,20,20,20,20,20","20,20,20,20,20,20,20,20","20,20,20,20,20,20,20,20","0,0,0,0,0,0,0,0","20,20,20,20,20,20,20,20","10,10,10,10,10,10,10,10","20,20,20,20,20,20,20,20","20,20,20,20,20,20,20,20","20,20,20,20,20,20,20,20","0,0,1,1,1,1,1,0","2571,429,1514,996,1027,707,825,1675","0.2738023589775331,9.007981608356632,-8.194054368990425,-6.979075022637701,26.919834934377544,33.948114606939086,15.253805231922179,-10.85043894736778","22.32041404453913,-50.18942243811813,43.24409228474744,33.70022339954908,13.920705993611508,-8.096410297299997,4.650219948881523,-9.517882369702305","0","0"
"777","86","text","0","141","1321645","0-0","","","","","","","","","","","","","","","","","","","","","","","","","","","","","","","","","","","","",""
"","","plant-game","0","142","1337629","0-0","","200","190","4","WHEAT CROP","Left","200","120","8","NETTLE WEED","experimental","58","1,2,3,4,5,6,7,8","190,237.7268508618174,251.2019923959524,255.7757261858253,160,224.4501792848318,249.1006119233555,266.41225032939906","4,3,2,1,4,3,2,1","WHEAT CROP,WHEAT CROP,WHEAT CROP,WHEAT CROP,CORN CROP,CORN CROP,CORN CROP,CORN CROP","120,119.6501138857125,105.82016337936444,106.48464044199974,149.05662593556082,161.64084394119286,167.79507277976,171.23432178224098","8,7,6,5,4,3,2,1","NETTLE WEED,NETTLE WEED,NETTLE WEED,NETTLE WEED,NETTLE WEED,NETTLE WEED,NETTLE WEED,NETTLE WEED","20,20,20,20,20,20,20,20","20,20,20,20,20,20,20,20","10,10,10,10,10,10,10,10","20,20,20,20,20,20,20,20","0,0,0,0,0,0,0,0","20,20,20,20,20,20,20,20","20,20,20,20,20,20,20,20","20,20,20,20,20,20,20,20","10,10,10,10,10,10,10,10","20,20,20,20,20,20,20,20","0,0,0,0,0,0,0,0","20,20,20,20,20,20,20,20","0,1,1,0,0,0,1,1","3110,2074,647,1174,1467,773,891,725","47.72685086181741,13.475141534135002,4.573733789872904,19.657662019860705,64.45017928483178,24.650432638523718,17.311638406043535,16.36197847519944","-0.3498861142874965,-13.829950506348052,0.6644770626352949,42.571985493561066,12.584218005632042,6.154228838567164,3.4392490024809685,34.95550884685859","0","0"
"1195","86","text","0","143","1338964","0-0","","","","","","","","","","","","","","","","","","","","","","","","","","","","","","","","","","","","",""
"","","plant-game","0","144","1357975","0-0","","200","160","1","CORN CROP","Left","200","190","8","NETTLE WEED","experimental","59","1,2,3,4,5,6,7,8","160,130,142.4735510456245,113.18660936347177,118.6682218540409,88.32920622022255,104.51515535073185,105.19573197736491","1,7,6,5,4,3,2,1","CORN CROP,WHEAT CROP,WHEAT CROP,WHEAT CROP,WHEAT CROP,WHEAT CROP,WHEAT CROP,WHEAT CROP","190,196.60249495372761,222.67563182431542,247.20281292387926,253.66487287291068,214.6714103996249,262.29738457305524,235.14761062254274","8,7,6,5,4,3,2,1","NETTLE WEED,NETTLE WEED,NETTLE WEED,NETTLE WEED,NETTLE WEED,NETTLE WEED,NETTLE WEED,NETTLE WEED","20,20,20,20,20,20,20,20","20,20,20,20,20,20,20,20","10,10,10,10,10,10,10,10","20,20,20,20,20,20,20,20","0,0,0,0,0,0,0,0","20,20,20,20,20,20,20,20","20,20,20,20,20,20,20,20","20,20,20,20,20,20,20,20","10,10,10,10,10,10,10,10","20,20,20,20,20,20,20,20","0,0,0,0,0,0,0,0","20,20,20,20,20,20,20,20","0,1,1,1,1,0,1,1","3851,2074,2465,805,918,1475,1317,747","23.87732768591173,12.473551045624516,-29.286941682152722,5.481612490569127,-30.33901563381834,16.185949130509297,0.6805766266330627,6.354866139916371","6.60249495372762,26.07313687058779,24.52718109956386,6.4620599490314214,-38.99346247328579,47.62597417343035,-27.1497739505125,-4.2575034573896415","0","0"
"528","86","text","0","145","1358603","0-0","","","","","","","","","","","","","","","","","","","","","","","","","","","","","","","","","","","","",""
"","","plant-game","0","146","1369003","0-0","","200","180","4","CORN CROP","Left","200","160","1","NETTLE WEED","experimental","60","1,2,3,4","180,214.44658342351846,222.04437522424075,240.85654340824544","4,3,2,1","CORN CROP,CORN CROP,CORN CROP,CORN CROP","160,170,173.90028945181186,211.44500100419106","1,3,2,1","NETTLE WEED,THISTLE WEED,THISTLE WEED,THISTLE WEED","20,20,20,20","20,20,20,20","10,10,10,10","20,20,20,20","0,0,0,0","20,20,20,20","20,20,20,20","20,20,20,20","10,10,10,10","20,20,20,20","0,0,0,0","20,20,20,20","0,0,0,1","1153,1821,948,610","34.446583423518476,7.597791800722295,18.812168184004687,-1.853188805085586","4.524522091056706,3.900289451811851,37.54471155237921,-8.67254136016577","0","0"
"650","86","text","0","147","1369733","0-0","","","","","","","","","","","","","","","","","","","","","","","","","","","","","","","","","","","","",""
"","","plant-game","0","148","1382339","0-0","","200","190","4","CORN CROP","Left","200","190","1","NETTLE WEED","experimental","61","1,2,3,4","190,169.4329081900425,215.30047823831904,219.25194897673524","4,3,2,1","CORN CROP,CORN CROP,CORN CROP,CORN CROP","190,170,209.42532813170106,237.52559957678287","1,3,2,1","NETTLE WEED,THISTLE WEED,THISTLE WEED,THISTLE WEED","20,20,20,20","20,20,20,20","10,10,10,10","20,20,20,20","0,0,0,0","20,20,20,20","20,20,20,20","20,20,20,20","10,10,10,10","20,20,20,20","0,0,0,0","20,20,20,20","1,0,0,0","1706,1512,1113,1188","-20.567091809957518,45.867570048276534,3.9514707384162016,34.23893608779525","18.674959239578797,39.425328131701065,28.100271445081795,17.091800716159195","0","0"
"590","86","text","0","149","1383049","0-0","","","","","","","","","","","","","","","","","","","","","","","","","","","","","","","","","","","","",""
"","","plant-game","0","150","1396457","0-0","","200","120","8","WHEAT CROP","Left","200","120","1","THISTLE WEED","experimental","62","1,2,3,4,5,6,7,8","120,129.1852487590901,159.7152510990266,221.40218825600022,237.2197800034533,258.8642492962728,279.5411684616772,323.01063523656364","8,7,6,5,4,3,2,1","WHEAT CROP,WHEAT CROP,WHEAT CROP,WHEAT CROP,WHEAT CROP,WHEAT CROP,WHEAT CROP,WHEAT CROP","120,130,147.02634786347414,169.63246053931385,150.12445536375347,171.21257882050043,164.81912219279113,177.4553265382986","1,7,6,5,4,3,2,1","THISTLE WEED,NETTLE WEED,NETTLE WEED,NETTLE WEED,NETTLE WEED,NETTLE WEED,NETTLE WEED,NETTLE WEED","20,20,20,20,20,20,20,20","20,20,20,20,20,20,20,20","10,10,10,10,10,10,10,10","20,20,20,20,20,20,20,20","0,0,0,0,0,0,0,0","20,20,20,20,20,20,20,20","20,20,20,20,20,20,20,20","20,20,20,20,20,20,20,20","10,10,10,10,10,10,10,10","20,20,20,20,20,20,20,20","0,0,0,0,0,0,0,0","20,20,20,20,20,20,20,20","1,0,0,1,1,1,0,1","2341,608,845,1712,690,451,1017,508","9.185248759090088,30.53000233993653,61.6869371569736,15.8175917474531,21.644469292819494,20.676919165404392,43.46946677488641,-7.670047820506326","-24.09672688918235,17.02634786347413,22.606112675839718,-19.508005175560385,21.088123456746956,-6.393456627709292,12.636204345507478,13.865872325567043","0","0"
"520","86","text","0","151","1397067","0-0","","","","","","","","","","","","","","","","","","","","","","","","","","","","","","","","","","","","",""
"","","plant-game","0","152","1411321","0-0","","200","160","8","CORN CROP","Right","200","120","2","THISTLE WEED","experimental","63","1,2,3,4,5,6,7,8","120,152.67980792249512,140,170.96994019046826,165.73583526081094,159.72661604710214,193.66647527510554,177.7468987517322","2,1,6,5,4,3,2,1","THISTLE WEED,THISTLE WEED,NETTLE WEED,NETTLE WEED,NETTLE WEED,NETTLE WEED,NETTLE WEED,NETTLE WEED","160,208.47202733779156,234.10911124126105,237.94800791467364,221.2180939129076,209.2672524349775,250.16761258039367,254.84336079192065","8,7,6,5,4,3,2,1","CORN CROP,CORN CROP,CORN CROP,CORN CROP,CORN CROP,CORN CROP,CORN CROP,CORN CROP","0,0,0,0,0,0,0,0","20,20,20,20,20,20,20,20","10,10,10,10,10,10,10,10","20,20,20,20,20,20,20,20","20,20,20,20,20,20,20,20","20,20,20,20,20,20,20,20","0,0,0,0,0,0,0,0","20,20,20,20,20,20,20,20","10,10,10,10,10,10,10,10","20,20,20,20,20,20,20,20","20,20,20,20,20,20,20,20","20,20,20,20,20,20,20,20","1,0,0,0,0,1,0,0","3086,1448,1660,596,697,435,476,1404","32.679807922495115,-28.00892751327691,30.969940190468254,-5.234104929657319,-6.0092192137087945,33.93985922800341,-15.919576523373335,-18.762467441708022","48.47202733779156,25.6370839034695,3.8388966734125782,-16.72991400176604,-11.950841477930075,40.90036014541617,4.675748211526975,-38.81039933680193","0","0"
"559","86","text","0","153","1411970","0-0","","","","","","","","","","","","","","","","","","","","","","","","","","","","","","","","","","","","",""
"","","plant-game","0","154","1422909","0-0","","200","160","4","CORN CROP","Right","200","160","1","NETTLE WEED","experimental","64","1,2,3,4","160,170,197.07996003039904,226.98872202881455","1,3,2,1","NETTLE WEED,THISTLE WEED,THISTLE WEED,THISTLE WEED","160,177.77985727349005,173.08509060926775,151.5534333773794","4,3,2,1","CORN CROP,CORN CROP,CORN CROP,CORN CROP","0,0,0,0","20,20,20,20","10,10,10,10","20,20,20,20","20,20,20,20","20,20,20,20","0,0,0,0","20,20,20,20","10,10,10,10","20,20,20,20","20,20,20,20","20,20,20,20","0,1,1,1","2076,1635,1109,1834","5.934570862758317,27.079960030399036,29.9087619984155,38.2360614549567","17.779857273490055,-4.694766664222296,-21.53165723188833,17.021704277715028","0","0"
"2098","86","text","0","155","1425157","0-0","","","","","","","","","","","","","","","","","","","","","","","","","","","","","","","","","","","","",""
"","","plant-game","0","156","1433649","0-0","","200","190","4","WHEAT CROP","Left","200","180","4","THISTLE WEED","experimental","65","1,2,3,4","190,204.39916691501767,191.3336212606342,203.2744504800291","4,3,2,1","WHEAT CROP,WHEAT CROP,WHEAT CROP,WHEAT CROP","180,177.18546351511182,200.78496697947986,220.9007853396256","4,3,2,1","THISTLE WEED,THISTLE WEED,THISTLE WEED,THISTLE WEED","20,20,20,20","20,20,20,20","10,10,10,10","20,20,20,20","0,0,0,0","20,20,20,20","20,20,20,20","20,20,20,20","10,10,10,10","20,20,20,20","0,0,0,0","20,20,20,20","0,0,1,0","2079,1268,887,1360","14.39916691501767,-13.065545654383477,11.940829219394896,16.082227593287975","-2.8145364848881727,23.599503464368055,20.11581836014573,36.13895127519692","0","0"
"467","86","text","0","157","1434213","0-0","","","","","","","","","","","","","","","","","","","","","","","","","","","","","","","","","","","","",""
"","","plant-game","0","158","1438909","0-0","","200","180","1","CORN CROP","Right","200","180","1","THISTLE WEED","experimental","66","1","180","1","THISTLE WEED","180","1","CORN CROP","0","20","10","20","20","20","0","20","10","20","20","20","1","2312","49.79539493324121","39.10667339143107","0","0"
"651","86","text","0","159","1439660","0-0","","","","","","","","","","","","","","","","","","","","","","","","","","","","","","","","","","","","",""
"","","plant-game","0","160","1451732","0-0","","200","190","2","CORN CROP","Right","200","180","4","THISTLE WEED","experimental","67","1,2,3,4","180,221.62150232224468,210.56128952319173,191.68147470567123","4,3,2,1","THISTLE WEED,THISTLE WEED,THISTLE WEED,THISTLE WEED","190,245.58253744263263,180,202.12538108804472","2,1,2,1","CORN CROP,CORN CROP,WHEAT CROP,WHEAT CROP","0,0,0,0","20,20,20,20","10,10,10,10","20,20,20,20","20,20,20,20","20,20,20,20","0,0,0,0","20,20,20,20","10,10,10,10","20,20,20,20","20,20,20,20","20,20,20,20","1,0,0,0","3592,1388,1812,1057","41.62150232224469,-11.060212799052938,-18.879814817520483,-1.6440217557121974","55.58253744263262,13.360579084015436,22.125381088044733,-5.19505207018362","0","0"
"536","86","text","0","161","1452373","0-0","","","","","","","","","","","","","","","","","","","","","","","","","","","","","","","","","","","","",""
"","","plant-game","0","162","1463047","0-0","","200","120","1","WHEAT CROP","Right","200","160","4","NETTLE WEED","experimental","68","1,2,3,4","160,178.27036591812043,183.2944991553226,224.5478043753751","4,3,2,1","NETTLE WEED,NETTLE WEED,NETTLE WEED,NETTLE WEED","120,170,188.84453722210642,192.79440656756452","1,3,2,1","WHEAT CROP,CORN CROP,CORN CROP,CORN CROP","0,0,0,0","20,20,20,20","10,10,10,10","20,20,20,20","20,20,20,20","20,20,20,20","0,0,0,0","20,20,20,20","10,10,10,10","20,20,20,20","20,20,20,20","20,20,20,20","0,1,1,1","3935,1060,404,670","18.27036591812042,5.024133237202168,41.253305220052496,18.464477013256154","-8.82703901530285,18.844537222106414,3.9498693454581044,10.090242243476201","0","0"
"529","86","text","0","163","1463686","0-0","","","","","","","","","","","","","","","","","","","","","","","","","","","","","","","","","","","","",""
"","","plant-game","0","164","1473605","0-0","","200","160","4","CORN CROP","Right","200","190","1","THISTLE WEED","experimental","69","1,2,3,4","190,170,192.50816947511873,226.65949434850947","1,3,2,1","THISTLE WEED,NETTLE WEED,NETTLE WEED,NETTLE WEED","160,171.90841053976365,180.66517840825043,226.8452715632728","4,3,2,1","CORN CROP,CORN CROP,CORN CROP,CORN CROP","0,0,0,0","20,20,20,20","10,10,10,10","20,20,20,20","20,20,20,20","20,20,20,20","0,0,0,0","20,20,20,20","10,10,10,10","20,20,20,20","20,20,20,20","20,20,20,20","1,1,1,0","1994,1720,570,1147","15.318420096793293,22.508169475118727,34.15132487339073,8.274154017633284","11.908410539763638,8.75676786848677,46.18009315502238,14.408878587219508","0","0"
"532","86","text","0","165","1474237","0-0","","","","","","","","","","","","","","","","","","","","","","","","","","","","","","","","","","","","",""
"","","plant-game","0","166","1488946","0-0","","200","190","2","CORN CROP","Left","200","160","8","THISTLE WEED","experimental","70","1,2,3,4,5,6,7,8","190,214.77630155693927,140,172.8654329649407,212.9522905461327,255.2729793169087,280.60756690657416,275.8882626195159","2,1,6,5,4,3,2,1","CORN CROP,CORN CROP,WHEAT CROP,WHEAT CROP,WHEAT CROP,WHEAT CROP,WHEAT CROP,WHEAT CROP","160,155.99224565068545,138.38481791266085,161.40166892686165,190.01591212552282,166.53825859426203,159.22331802684116,152.04812885334164","8,7,6,5,4,3,2,1","THISTLE WEED,THISTLE WEED,THISTLE WEED,THISTLE WEED,THISTLE WEED,THISTLE WEED,THISTLE WEED,THISTLE WEED","20,20,20,20,20,20,20,20","20,20,20,20,20,20,20,20","10,10,10,10,10,10,10,10","20,20,20,20,20,20,20,20","0,0,0,0,0,0,0,0","20,20,20,20,20,20,20,20","20,20,20,20,20,20,20,20","20,20,20,20,20,20,20,20","10,10,10,10,10,10,10,10","20,20,20,20,20,20,20,20","0,0,0,0,0,0,0,0","20,20,20,20,20,20,20,20","0,1,0,0,1,1,1,1","1674,2022,1708,999,1035,828,729,939","24.776301556939266,12.627350254421465,32.86543296494071,40.08685758119199,42.32068877077601,25.33458758966548,-4.719304287058242,1.889159440432626","-4.0077543493145384,-17.607427738024587,23.016851014200785,28.614243198661164,-23.47765353126079,-7.31494056742087,-7.17518917349953,25.250452478900147","0","0"
"455","86","text","0","167","1489521","0-0","","","","","","","","","","","","","","","","","","","","","","","","","","","","","","","","","","","","",""
"","","plant-game","0","168","1500698","0-0","","200","160","8","WHEAT CROP","Right","200","120","8","NETTLE WEED","experimental","71","1,2,3,4,5,6,7,8","120,146.24223818094995,156.31891699481722,197.6426708470147,184.73736070620163,185.2529990018014,161.1103551581994,193.8202578988246","8,7,6,5,4,3,2,1","NETTLE WEED,NETTLE WEED,NETTLE WEED,NETTLE WEED,NETTLE WEED,NETTLE WEED,NETTLE WEED,NETTLE WEED","160,175.79735505508143,202.57429279709908,231.85104812646688,221.80656837046521,228.52318711391683,231.7391594025614,177.05271103319942","8,7,6,5,4,3,2,1","WHEAT CROP,WHEAT CROP,WHEAT CROP,WHEAT CROP,WHEAT CROP,WHEAT CROP,WHEAT CROP,WHEAT CROP","0,0,0,0,0,0,0,0","20,20,20,20,20,20,20,20","10,10,10,10,10,10,10,10","20,20,20,20,20,20,20,20","20,20,20,20,20,20,20,20","20,20,20,20,20,20,20,20","0,0,0,0,0,0,0,0","20,20,20,20,20,20,20,20","10,10,10,10,10,10,10,10","20,20,20,20,20,20,20,20","20,20,20,20,20,20,20,20","20,20,20,20,20,20,20,20","1,1,1,0,0,0,0,1","1459,782,715,649,1007,1014,1043,742","26.24223818094996,10.076678813867264,41.32375385219747,-12.905310140813057,0.5156382955997947,-24.142643843601988,32.70990274062517,35.59301253677118","15.797355055081438,26.776937742017655,29.276755329367802,-10.044479756001664,6.716618743451621,3.215972288644578,-54.68644836936198,69.97069776906204","0","0"
"560","86","text","0","169","1501378","0-0","","","","","","","","","","","","","","","","","","","","","","","","","","","","","","","","","","","","",""
"","","plant-game","0","170","1507433","0-0","","200","160","1","CORN CROP","Right","200","190","1","NETTLE WEED","experimental","72","1","190","1","NETTLE WEED","160","1","CORN CROP","0","20","10","20","20","20","0","20","10","20","20","20","1","967","9.798242181440433","10.017046578774032","0","0"
"548","86","text","0","171","1508091","0-0","","","","","","","","","","","","","","","","","","","","","","","","","","","","","","","","","","","","",""
"","","plant-game","0","172","1522869","0-0","","200","180","8","CORN CROP","Left","200","160","4","THISTLE WEED","experimental","73","1,2,3,4,5,6,7,8","180,152.82178173456,153.91786433553648,163.17659632995557,136.9604006831496,132.80271860638464,179.0023632371158,192.29948316706123","8,7,6,5,4,3,2,1","CORN CROP,CORN CROP,CORN CROP,CORN CROP,CORN CROP,CORN CROP,CORN CROP,CORN CROP","160,172.0385341154207,167.4628572465934,155.86833295419396,160,182.24547377256505,188.345905710476,207.0789910561314","4,3,2,1,4,3,2,1","THISTLE WEED,THISTLE WEED,THISTLE WEED,THISTLE WEED,NETTLE WEED,NETTLE WEED,NETTLE WEED,NETTLE WEED","20,20,20,20,20,20,20,20","20,20,20,20,20,20,20,20","10,10,10,10,10,10,10,10","20,20,20,20,20,20,20,20","0,0,0,0,0,0,0,0","20,20,20,20,20,20,20,20","20,20,20,20,20,20,20,20","20,20,20,20,20,20,20,20","10,10,10,10,10,10,10,10","20,20,20,20,20,20,20,20","0,0,0,0,0,0,0,0","20,20,20,20,20,20,20,20","1,1,1,1,1,1,0,0","2195,607,806,1013,3122,633,832,889","-27.178218265439984,1.0960826009764795,9.258731994419088,-26.216195646805982,-4.15768207676495,46.19964463073116,13.297119929945453,33.60067076986738","12.0385341154207,-4.575676868827309,-11.594524292399427,6.187420185591703,22.245473772565063,6.100431937910952,18.733085345655407,20.726886331467","0","0"
"593","86","text","0","173","1523572","0-0","","","","","","","","","","","","","","","","","","","","","","","","","","","","","","","","","","","","",""
"","","plant-game","0","174","1535632","0-0","","200","180","4","CORN CROP","Left","200","190","2","NETTLE WEED","experimental","74","1,2,3,4","180,203.57360615047116,233.3741896048946,222.15972225079696","4,3,2,1","CORN CROP,CORN CROP,CORN CROP,CORN CROP","190,222.91524899756476,180,177.75757272317057","2,1,2,1","NETTLE WEED,NETTLE WEED,THISTLE WEED,THISTLE WEED","20,20,20,20","20,20,20,20","10,10,10,10","20,20,20,20","0,0,0,0","20,20,20,20","20,20,20,20","20,20,20,20","10,10,10,10","20,20,20,20","0,0,0,0","20,20,20,20","1,1,1,0","2929,2173,1316,939","23.573606150471168,29.800583454423446,-11.214467354097636,8.840750455957583","32.91524899756475,2.4551235580579376,-2.242427276829442,39.552133683850684","0","0"
"501","86","text","0","175","1536255","0-0","","","","","","","","","","","","","","","","","","","","","","","","","","","","","","","","","","","","",""
"","","plant-game","0","176","1548557","0-0","","200","120","1","WHEAT CROP","Right","200","190","4","THISTLE WEED","experimental","75","1,2,3,4","190,192.00779603504128,201.55457351146578,215.3364468716787","4,3,2,1","THISTLE WEED,THISTLE WEED,THISTLE WEED,THISTLE WEED","120,170,163.43522703448951,195.28114816644725","1,3,2,1","WHEAT CROP,CORN CROP,CORN CROP,CORN CROP","0,0,0,0","20,20,20,20","10,10,10,10","20,20,20,20","20,20,20,20","20,20,20,20","0,0,0,0","20,20,20,20","10,10,10,10","20,20,20,20","20,20,20,20","20,20,20,20","1,0,0,1","4737,2084,601,1020","2.007796035041288,9.546777476424504,13.78187336021294,27.42320535134744","46.15669526096971,-6.564772965510496,31.84592113195773,23.390305330682853","0","0"
"450","86","text","0","177","1549107","0-0","","","","","","","","","","","","","","","","","","","","","","","","","","","","","","","","","","","","",""
"","","plant-game","0","178","1562820","0-0","","200","120","8","WHEAT CROP","Right","200","120","4","NETTLE WEED","experimental","76","1,2,3,4,5,6,7,8","120,163.9454344225387,166.37903429772197,161.44042209939465,160,157.06644179287397,147.1087539451942,154.98918844931111","4,3,2,1,4,3,2,1","NETTLE WEED,NETTLE WEED,NETTLE WEED,NETTLE WEED,THISTLE WEED,THISTLE WEED,THISTLE WEED,THISTLE WEED","120,116.88624939218315,60.67385121263487,30.955171211610047,25.88146294113524,33.98907129689876,48.814167165656514,13.797015500322026","8,7,6,5,4,3,2,1","WHEAT CROP,WHEAT CROP,WHEAT CROP,WHEAT CROP,WHEAT CROP,WHEAT CROP,WHEAT CROP,WHEAT CROP","0,0,0,0,0,0,0,0","20,20,20,20,20,20,20,20","10,10,10,10,10,10,10,10","20,20,20,20,20,20,20,20","20,20,20,20,20,20,20,20","20,20,20,20,20,20,20,20","0,0,0,0,0,0,0,0","20,20,20,20,20,20,20,20","10,10,10,10,10,10,10,10","20,20,20,20,20,20,20,20","20,20,20,20,20,20,20,20","20,20,20,20,20,20,20,20","1,0,0,0,0,0,0,0","1065,1199,1018,977,2275,423,392,727","43.94543442253871,2.433599875183263,-4.938612198327333,14.738035509681415,-2.933558207126029,-9.957687847679772,7.880434504116915,14.672295453753176","-3.113750607816847,-56.21239817954827,-29.718680001024826,-5.073708270474807,8.107608355763517,14.82509586875776,-35.01715166533449,-17.488681979145248","0","0"
"569","86","text","0","179","1563489","0-0","","","","","","","","","","","","","","","","","","","","","","","","","","","","","","","","","","","","",""
"","","plant-game","0","180","1569753","0-0","","200","190","1","CORN CROP","Left","200","120","1","THISTLE WEED","experimental","77","1","190","1","CORN CROP","120","1","THISTLE WEED","20","20","10","20","0","20","20","20","10","20","0","20","0","1513","9.355881338016498","1.8278160004575774","0","0"
"561","86","text","0","181","1570408","0-0","","","","","","","","","","","","","","","","","","","","","","","","","","","","","","","","","","","","",""
"","","plant-game","0","182","1584468","0-0","","200","180","1","CORN CROP","Left","200","160","8","THISTLE WEED","experimental","78","1,2,3,4,5,6,7,8","180,130,137.2106619364497,160.600154795762,155.78108296894274,168.41205376117605,166.15317723711024,156.82097791876262","1,7,6,5,4,3,2,1","CORN CROP,WHEAT CROP,WHEAT CROP,WHEAT CROP,WHEAT CROP,WHEAT CROP,WHEAT CROP,WHEAT CROP","160,179.5395922559328,138.63304098248634,161.81323091372354,173.90214454074726,185.74862696788657,169.692626719527,194.38821286567935","8,7,6,5,4,3,2,1","THISTLE WEED,THISTLE WEED,THISTLE WEED,THISTLE WEED,THISTLE WEED,THISTLE WEED,THISTLE WEED,THISTLE WEED","20,20,20,20,20,20,20,20","20,20,20,20,20,20,20,20","10,10,10,10,10,10,10,10","20,20,20,20,20,20,20,20","0,0,0,0,0,0,0,0","20,20,20,20,20,20,20,20","20,20,20,20,20,20,20,20","20,20,20,20,20,20,20,20","10,10,10,10,10,10,10,10","20,20,20,20,20,20,20,20","0,0,0,0,0,0,0,0","20,20,20,20,20,20,20,20","0,1,0,0,0,1,0,1","1585,2018,721,580,1234,865,482,1479","42.210312657427046,7.21066193644969,23.38949285931229,-4.819071826819261,12.630970792233322,-2.258876524065811,-9.332199318347612,6.4854336158765715","19.539592255932806,-40.906551273446475,23.1801899312372,12.088913627023718,11.846482427139314,-16.05600024835957,24.69558614615235,2.225212493672125","0","0"
"472","86","text","0","183","1585050","0-0","","","","","","","","","","","","","","","","","","","","","","","","","","","","","","","","","","","","",""
"","","plant-game","0","184","1597880","0-0","","200","190","8","WHEAT CROP","Right","200","160","8","THISTLE WEED","experimental","79","1,2,3,4,5,6,7,8","160,157.23567005457468,158.50442745468473,199.0935450449891,193.0131841174765,216.9634137011152,206.11042507089257,188.58401962935773","8,7,6,5,4,3,2,1","THISTLE WEED,THISTLE WEED,THISTLE WEED,THISTLE WEED,THISTLE WEED,THISTLE WEED,THISTLE WEED,THISTLE WEED","190,200.1552882600423,218.00493969457455,243.21664502979215,240.3661414356286,256.8396020984159,268.3883278381704,271.7176424109082","8,7,6,5,4,3,2,1","WHEAT CROP,WHEAT CROP,WHEAT CROP,WHEAT CROP,WHEAT CROP,WHEAT CROP,WHEAT CROP,WHEAT CROP","0,0,0,0,0,0,0,0","20,20,20,20,20,20,20,20","10,10,10,10,10,10,10,10","20,20,20,20,20,20,20,20","20,20,20,20,20,20,20,20","20,20,20,20,20,20,20,20","0,0,0,0,0,0,0,0","20,20,20,20,20,20,20,20","10,10,10,10,10,10,10,10","20,20,20,20,20,20,20,20","20,20,20,20,20,20,20,20","20,20,20,20,20,20,20,20","0,0,0,0,0,0,0,0","2370,1087,896,1769,890,823,789,959","-2.7643299454253296,1.2687574001100546,40.58911759030437,-6.0803609275125945,23.950229583638688,-10.852988630222614,-17.526405441534838,24.254115451462294","10.155288260042317,17.849651434532248,25.211705335217612,-2.850503594163547,16.473460662787296,11.548725739754493,3.3293145727377302,16.97081415485387","0","0"
"443","86","text","0","185","1598393","0-0","","","","","","","","","","","","","","","","","","","","","","","","","","","","","","","","","","","","",""
"","","plant-game","0","186","1607721","0-0","","200","180","2","CORN CROP","Right","200","160","1","THISTLE WEED","experimental","80","1,2","160,190","1,1","THISTLE WEED,NETTLE WEED","180,208.6069186502","2,1","CORN CROP,CORN CROP","0,0","20,20","10,10","20,20","20,20","20,20","0,0","20,20","10,10","20,20","20,20","20,20","0,1","2095,3020","11.391655221807056,18.06869827088761","28.606918650199976,-5.914042583723514","0","0"
"332","86","text","0","187","1608143","0-0","","","","","","","","","","","","","","","","","","","","","","","","","","","","","","","","","","","","",""
"","","plant-game","0","188","1613790","0-0","","200","180","1","CORN CROP","Right","200","190","1","THISTLE WEED","experimental","81","1","190","1","THISTLE WEED","180","1","CORN CROP","0","20","10","20","20","20","0","20","10","20","20","20","1","3051","-4.800532057171306","-4.039481516539105","0","0"
"537","86","text","0","189","1614427","0-0","","","","","","","","","","","","","","","","","","","","","","","","","","","","","","","","","","","","",""
"","","plant-game","0","190","1625162","0-0","","200","180","4","CORN CROP","Right","200","120","2","THISTLE WEED","experimental","82","1,2,3,4","120,153.96461572952146,180,177.52823085989812","2,1,2,1","THISTLE WEED,THISTLE WEED,NETTLE WEED,NETTLE WEED","180,218.00931457681594,220.08023724620728,234.9195543686505","4,3,2,1","CORN CROP,CORN CROP,CORN CROP,CORN CROP","0,0,0,0","20,20,20,20","10,10,10,10","20,20,20,20","20,20,20,20","20,20,20,20","0,0,0,0","20,20,20,20","10,10,10,10","20,20,20,20","20,20,20,20","20,20,20,20","1,1,0,0","2772,890,1610,932","33.96461572952146,30.187841925439024,-2.471769140101874,1.5731477419865114","38.00931457681595,2.0709226693913223,14.83931712244323,-46.1312570430491","0","0"
"595","86","text","0","191","1625867","0-0","","","","","","","","","","","","","","","","","","","","","","","","","","","","","","","","","","","","",""
"","","plant-game","0","192","1635069","0-0","","200","190","4","WHEAT CROP","Right","200","120","2","NETTLE WEED","experimental","83","1,2,3,4","120,109.36239234020374,180,190.16386379742121","2,1,2,1","NETTLE WEED,NETTLE WEED,THISTLE WEED,THISTLE WEED","190,186.73572250037893,225.53753179412791,241.78620534684688","4,3,2,1","WHEAT CROP,WHEAT CROP,WHEAT CROP,WHEAT CROP","0,0,0,0","20,20,20,20","10,10,10,10","20,20,20,20","20,20,20,20","20,20,20,20","0,0,0,0","20,20,20,20","10,10,10,10","20,20,20,20","20,20,20,20","20,20,20,20","0,1,0,0","2184,532,1837,664","-10.637607659796265,43.04710587400032,10.163863797421204,2.6115087143815674","-3.264277499621078,38.801809293748974,16.248673552718973,-10.103105047409105","0","0"
"416","86","text","0","193","1635585","0-0","","","","","","","","","","","","","","","","","","","","","","","","","","","","","","","","","","","","",""
"","","plant-game","0","194","1649420","0-0","","200","120","8","WHEAT CROP","Left","200","160","1","NETTLE WEED","experimental","84","1,2,3,4,5,6,7,8","120,158.53960963645343,182.81896543994173,203.48127354892856,204.04179473287843,227.13863016845866,224.84648132637972,263.7105647369545","8,7,6,5,4,3,2,1","WHEAT CROP,WHEAT CROP,WHEAT CROP,WHEAT CROP,WHEAT CROP,WHEAT CROP,WHEAT CROP,WHEAT CROP","160,130,118.94392906200544,137.65040140912123,124.33141059847819,182.60136820867376,187.35829381451848,185.58772508639424","1,7,6,5,4,3,2,1","NETTLE WEED,THISTLE WEED,THISTLE WEED,THISTLE WEED,THISTLE WEED,THISTLE WEED,THISTLE WEED,THISTLE WEED","20,20,20,20,20,20,20,20","20,20,20,20,20,20,20,20","10,10,10,10,10,10,10,10","20,20,20,20,20,20,20,20","0,0,0,0,0,0,0,0","20,20,20,20,20,20,20,20","20,20,20,20,20,20,20,20","20,20,20,20,20,20,20,20","10,10,10,10,10,10,10,10","20,20,20,20,20,20,20,20","0,0,0,0,0,0,0,0","20,20,20,20,20,20,20,20","1,0,0,1,0,1,1,1","2665,1034,964,1098,788,587,782,1039","38.53960963645343,24.279355803488297,20.662308108986817,0.5605211839498724,23.096835435580225,-2.2921488420789506,38.86408341057479,-13.595322014801672","3.477935187599374,-11.056070937994559,18.706472347115803,-13.318990810643038,58.26995761019557,4.756925605844725,-1.7705687281242208,19.663724737167033","0","0"
"637","86","text","0","195","1650147","0-0","","","","","","","","","","","","","","","","","","","","","","","","","","","","","","","","","","","","",""
"","","plant-game","0","196","1659462","0-0","","200","120","2","WHEAT CROP","Right","200","120","4","THISTLE WEED","experimental","85","1,2,3,4","120,112.83289275950938,121.90583808390797,125.7503157214888","4,3,2,1","THISTLE WEED,THISTLE WEED,THISTLE WEED,THISTLE WEED","120,163.20038550058692,180,207.26022292516063","2,1,2,1","WHEAT CROP,WHEAT CROP,CORN CROP,CORN CROP","0,0,0,0","20,20,20,20","10,10,10,10","20,20,20,20","20,20,20,20","20,20,20,20","0,0,0,0","20,20,20,20","10,10,10,10","20,20,20,20","20,20,20,20","20,20,20,20","1,1,1,1","1907,498,1040,1211","-7.167107240490619,9.072945324398587,3.8444776375808374,-20.011467834752764","43.200385500586926,1.2436805825596906,27.260222925160626,45.005607599143396","0","0"
"621","86","text","0","197","1660204","0-0","","","","","","","","","","","","","","","","","","","","","","","","","","","","","","","","","","","","",""
