"rt","key_press","trial_type","trial_index","trial_index_global","time_elapsed","internal_chunk_id","responses","experimental_goal_height","experimental_start_height","experimental_weeks_total","experimental_crop_type","experimental_crop_side","fixed_goal_height","fixed_start_height","fixed_weeks_total","fixed_crop_type","trial_kind","trial_number","stage","left_current_height","left_weeks_remaining","left_crop_type","right_current_height","right_weeks_remaining","right_crop_type","mean_left_growth_given_left","sd_left_growth_given_left","mean_left_growth_given_middle","sd_left_growth_given_middle","mean_left_growth_given_right","sd_left_growth_given_right","mean_right_growth_given_left","sd_right_growth_given_left","mean_right_growth_given_middle","sd_right_growth_given_middle","mean_right_growth_given_right","sd_right_growth_given_right","response","response_time","left_growth","right_growth","other_key_pressed","mouse_clicked"
"3763862","87","text","0","0","3764055","0-0","","","","","","","","","","","","","","","","","","","","","","","","","","","","","","","","","","","","",""
"3778","","survey-text","0","1","3768842","0-0","{""Q0"":""19""}","","","","","","","","","","","","","","","","","","","","","","","","","","","","","","","","","","","",""
"3515","86","text","0","2","3699","0-0","","","","","","","","","","","","","","","","","","","","","","","","","","","","","","","","","","","","",""
"","","plant-game","0","3","53587","0-0","","200","120","8","CORN CROP","Left","200","120","8","NETTLE WEED","practice","1","1,2,3,4,5,6,7,8","120,143.2932010182534,159.74104902888396,157.67219509978628,174.15872106394508,157.94043315581837,202.3684643167515,204.25510630476973","8,7,6,5,4,3,2,1","CORN CROP,CORN CROP,CORN CROP,CORN CROP,CORN CROP,CORN CROP,CORN CROP,CORN CROP","120,168.3207365871848,165.80696658347796,168.32650915089494,152.83211808783426,178.32448904846748,208.07885214040962,203.25706095091144","8,7,6,5,4,3,2,1","NETTLE WEED,NETTLE WEED,NETTLE WEED,NETTLE WEED,NETTLE WEED,NETTLE WEED,NETTLE WEED,NETTLE WEED","20,20,20,20,20,20,20,20","20,20,20,20,20,20,20,20","10,10,10,10,10,10,10,10","20,20,20,20,20,20,20,20","0,0,0,0,0,0,0,0","20,20,20,20,20,20,20,20","20,20,20,20,20,20,20,20","20,20,20,20,20,20,20,20","10,10,10,10,10,10,10,10","20,20,20,20,20,20,20,20","0,0,0,0,0,0,0,0","20,20,20,20,20,20,20,20","0,0,0,0,1,0,1,0","15620,2435,483,572,653,805,3312,1030","23.293201018253402,16.447848010630576,-2.0688539290976777,16.486525964158794,-16.218287908126715,44.42803116093314,1.886641988018238,22.22236871736735","48.32073658718478,-2.513770003706842,2.5195425674169805,-15.494391063060668,25.49237096063322,29.75436309194214,-4.82179118949818,50.6006734548939","0","9"
"864","86","text","0","4","54635","0-0","","","","","","","","","","","","","","","","","","","","","","","","","","","","","","","","","","","","",""
"","","plant-game","0","5","71027","0-0","","200","160","4","CORN CROP","Right","200","160","4","THISTLE WEED","practice","2","1,2,3,4","160,175.9796431950539,205.51986492562162,212.7927951112094","4,3,2,1","THISTLE WEED,THISTLE WEED,THISTLE WEED,THISTLE WEED","160,150.34653783285106,122.62798024048567,104.20738717082317","4,3,2,1","CORN CROP,CORN CROP,CORN CROP,CORN CROP","0,0,0,0","20,20,20,20","10,10,10,10","20,20,20,20","20,20,20,20","20,20,20,20","0,0,0,0","20,20,20,20","10,10,10,10","20,20,20,20","20,20,20,20","20,20,20,20","0,1,0,1","1213,595,1475,925","15.979643195053907,29.540221730567694,7.272930185587754,11.925667281626893","-9.65346216714894,-27.718557592365386,-18.4205930696625,11.04156653161233","0","0"
"592","86","text","0","6","71819","0-0","","","","","","","","","","","","","","","","","","","","","","","","","","","","","","","","","","","","",""
"","","plant-game","0","7","83954","0-0","","200","180","2","WHEAT CROP","Left","200","180","2","NETTLE WEED","practice","3","1,2","180,244.17601013099338","2,1","WHEAT CROP,WHEAT CROP","180,185.94325107975575","2,1","NETTLE WEED,NETTLE WEED","20,20","20,20","10,10","20,20","0,0","20,20","20,20","20,20","10,10","20,20","0,0","20,20","0,1","1557,1216","64.17601013099338,24.339249702619274","5.9432510797557665,5.945030633489847","0","0"
"800","86","text","0","8","84962","0-0","","","","","","","","","","","","","","","","","","","","","","","","","","","","","","","","","","","","",""
"","","plant-game","0","9","99458","0-0","","200","190","1","WHEAT CROP","Left","200","190","1","THISTLE WEED","practice","4","1","190","1","WHEAT CROP","190","1","THISTLE WEED","20","20","10","20","0","20","20","20","10","20","0","20","1","1536","-3.349133723010014","13.265193729722895","0","0"
"808","86","text","0","10","100450","0-0","","","","","","","","","","","","","","","","","","","","","","","","","","","","","","","","","","","","",""
"","","plant-game","0","11","122951","0-0","","200","120","8","WHEAT CROP","Left","200","160","8","NETTLE WEED","practice","5","1,2,3,4,5,6,7,8","120,127.31570040503335,162.75793665248875,125.90482162353717,123.19956682505277,127.46109379342771,156.63707039116605,186.747322456686","8,7,6,5,4,3,2,1","WHEAT CROP,WHEAT CROP,WHEAT CROP,WHEAT CROP,WHEAT CROP,WHEAT CROP,WHEAT CROP,WHEAT CROP","160,164.96733505706754,181.3635009298214,201.42603396092372,251.98752750683593,290.88790207830834,305.4592801653868,309.08911473151943","8,7,6,5,4,3,2,1","NETTLE WEED,NETTLE WEED,NETTLE WEED,NETTLE WEED,NETTLE WEED,NETTLE WEED,NETTLE WEED,NETTLE WEED","20,20,20,20,20,20,20,20","20,20,20,20,20,20,20,20","10,10,10,10,10,10,10,10","20,20,20,20,20,20,20,20","0,0,0,0,0,0,0,0","20,20,20,20,20,20,20,20","20,20,20,20,20,20,20,20","20,20,20,20,20,20,20,20","10,10,10,10,10,10,10,10","20,20,20,20,20,20,20,20","0,0,0,0,0,0,0,0","20,20,20,20,20,20,20,20","1,0,1,0,1,1,1,1","693,597,1614,1282,1506,670,342,350","7.31570040503335,35.44223624745541,-36.85311502895157,-2.705254798484404,4.261526968374937,29.175976597738348,30.110252065519948,2.466472175653128","4.967335057067555,16.39616587275388,20.062533031102294,50.56149354591223,38.90037457147241,14.571378087078486,3.629834566132619,-19.315672288752012","0","0"
"599","86","text","0","12","123735","0-0","","","","","","","","","","","","","","","","","","","","","","","","","","","","","","","","","","","","",""
"","","plant-game","0","13","140816","0-0","","200","180","4","CORN CROP","Left","200","160","4","THISTLE WEED","practice","6","1,2,3,4","180,137.36127693271146,129.9318379478549,143.04776528333124","4,3,2,1","CORN CROP,CORN CROP,CORN CROP,CORN CROP","160,151.33958473460964,188.52693582448848,199.34800418461313","4,3,2,1","THISTLE WEED,THISTLE WEED,THISTLE WEED,THISTLE WEED","20,20,20,20","20,20,20,20","10,10,10,10","20,20,20,20","0,0,0,0","20,20,20,20","20,20,20,20","20,20,20,20","10,10,10,10","20,20,20,20","0,0,0,0","20,20,20,20","1,0,0,1","558,958,2398,734","-42.63872306728853,-7.429438984856581,13.115927335476353,-0.9931780682620124","-8.660415265390343,37.18735108987883,10.82106836012466,3.1069329687080858","1","0"
"679","86","text","0","14","141679","0-0","","","","","","","","","","","","","","","","","","","","","","","","","","","","","","","","","","","","",""
"","","plant-game","0","15","157719","0-0","","200","180","2","WHEAT CROP","Left","200","190","2","THISTLE WEED","practice","7","1,2","180,204.15042204577895","2,1","WHEAT CROP,WHEAT CROP","190,193.79011430168637","2,1","THISTLE WEED,THISTLE WEED","20,20","20,20","10,10","20,20","0,0","20,20","20,20","20,20","10,10","20,20","0,0","20,20","0,0","534,2829","24.150422045778953,4.2842813049784105","3.790114301686369,19.634340106573443","1","0"
"856","86","text","0","16","158751","0-0","","","","","","","","","","","","","","","","","","","","","","","","","","","","","","","","","","","","",""
"","","plant-game","0","17","188573","0-0","","200","120","4","CORN CROP","Left","200","120","8","NETTLE WEED","practice","8","1,2,3,4,5,6,7,8","120,133.32537249249003,126.67174355371412,131.1253629409986,160,133.47272544366663,141.09298927828615,153.90963326653932","4,3,2,1,4,3,2,1","CORN CROP,CORN CROP,CORN CROP,CORN CROP,WHEAT CROP,WHEAT CROP,WHEAT CROP,WHEAT CROP","120,151.63507550606755,129.88170813823766,118.33929677102329,112.23285752348893,80.32792317749045,86.92606493037407,125.66637554286132","8,7,6,5,4,3,2,1","NETTLE WEED,NETTLE WEED,NETTLE WEED,NETTLE WEED,NETTLE WEED,NETTLE WEED,NETTLE WEED,NETTLE WEED","20,20,20,20,20,20,20,20","20,20,20,20,20,20,20,20","10,10,10,10,10,10,10,10","20,20,20,20,20,20,20,20","0,0,0,0,0,0,0,0","20,20,20,20,20,20,20,20","20,20,20,20,20,20,20,20","20,20,20,20,20,20,20,20","10,10,10,10,10,10,10,10","20,20,20,20,20,20,20,20","0,0,0,0,0,0,0,0","20,20,20,20,20,20,20,20","0,1,1,1,1,0,0,0","829,725,774,470,2885,701,317,272","13.325372492490036,-6.6536289387759044,4.453619387284474,27.15461851415679,-26.527274556333378,7.620263834619534,12.816643988253169,20.610173501227717","31.635075506067537,-21.7533673678299,-11.542411367214374,-6.106439247534351,-31.90493434599849,6.598141752883617,38.74031061248725,46.33792037744947","0","0"
"3417","86","text","0","18","192198","0-0","","","","","","","","","","","","","","","","","","","","","","","","","","","","","","","","","","","","",""
"","","plant-game","0","19","219517","0-0","","200","160","4","WHEAT CROP","Left","200","160","2","THISTLE WEED","practice","9","1,2,3,4","160,187.4644292723117,216.8540746351291,225.35994688854095","4,3,2,1","WHEAT CROP,WHEAT CROP,WHEAT CROP,WHEAT CROP","160,175.3199180147372,180,209.6864020793093","2,1,2,1","THISTLE WEED,THISTLE WEED,NETTLE WEED,NETTLE WEED","20,20,20,20","20,20,20,20","10,10,10,10","20,20,20,20","0,0,0,0","20,20,20,20","20,20,20,20","20,20,20,20","10,10,10,10","20,20,20,20","0,0,0,0","20,20,20,20","0,1,1,1","2725,524,2263,3069","27.464429272311683,29.38964536281742,8.505872253411829,-25.52726726668539","15.319918014737185,-27.4252438065402,29.686402079309303,-18.676621506674074","0","0"
"720","86","text","0","20","220453","0-0","","","","","","","","","","","","","","","","","","","","","","","","","","","","","","","","","","","","",""
"","","plant-game","0","21","246057","0-0","","200","180","2","WHEAT CROP","Right","200","180","1","NETTLE WEED","practice","10","1,2","180,190","1,1","NETTLE WEED,THISTLE WEED","180,186.197278874213","2,1","WHEAT CROP,WHEAT CROP","0,0","20,20","10,10","20,20","20,20","20,20","0,0","20,20","10,10","20,20","20,20","20,20","1,1","2517,7968","20.69876403777287,11.647589914785145","6.197278874212985,40.142943062544845","0","0"
"816","86","text","0","22","247081","0-0","","","","","","","","","","","","","","","","","","","","","","","","","","","","","","","","","","","","",""
"","","plant-game","0","23","284072","0-0","","200","120","8","CORN CROP","Left","200","160","4","NETTLE WEED","practice","11","1,2,3,4,5,6,7,8","120,114.47353506722885,147.473879880246,133.11383015824148,151.03472946995333,179.63205681850235,149.51896728144197,157.815862030195","8,7,6,5,4,3,2,1","CORN CROP,CORN CROP,CORN CROP,CORN CROP,CORN CROP,CORN CROP,CORN CROP,CORN CROP","160,172.86466643803388,165.47108413736845,147.30915499093896,160,151.34287230034806,147.49395076011973,143.11990357923017","4,3,2,1,4,3,2,1","NETTLE WEED,NETTLE WEED,NETTLE WEED,NETTLE WEED,THISTLE WEED,THISTLE WEED,THISTLE WEED,THISTLE WEED","20,20,20,20,20,20,20,20","20,20,20,20,20,20,20,20","10,10,10,10,10,10,10,10","20,20,20,20,20,20,20,20","0,0,0,0,0,0,0,0","20,20,20,20,20,20,20,20","20,20,20,20,20,20,20,20","20,20,20,20,20,20,20,20","10,10,10,10,10,10,10,10","20,20,20,20,20,20,20,20","0,0,0,0,0,0,0,0","20,20,20,20,20,20,20,20","0,1,1,1,1,1,1,1","1020,1533,580,622,596,485,453,349","-5.526464932771141,33.00034481301715,-14.360049722004495,17.92089931171184,28.59732734854903,-30.113089537060382,8.296894748753026,31.831460904835257","12.864666438033868,-7.39358230066543,-18.161929146429493,-24.287770267486806,-8.657127699651925,-3.8489215402283428,-4.374047180889567,16.67239832510754","0","0"
"648","86","text","0","24","284936","0-0","","","","","","","","","","","","","","","","","","","","","","","","","","","","","","","","","","","","",""
"","","plant-game","0","25","304507","0-0","","200","180","2","WHEAT CROP","Right","200","160","4","NETTLE WEED","practice","12","1,2,3,4","160,187.76950211676217,162.9250157868123,216.04519153039996","4,3,2,1","NETTLE WEED,NETTLE WEED,NETTLE WEED,NETTLE WEED","180,200.5851504075647,180,202.17755542167853","2,1,2,1","WHEAT CROP,WHEAT CROP,CORN CROP,CORN CROP","0,0,0,0","20,20,20,20","10,10,10,10","20,20,20,20","20,20,20,20","20,20,20,20","0,0,0,0","20,20,20,20","10,10,10,10","20,20,20,20","20,20,20,20","20,20,20,20","1,0,1,1","644,1896,1261,1968","27.769502116762155,-24.844486329949866,53.12017574358766,46.75188894711609","20.585150407564694,14.363828322065624,22.177555421678537,43.036711210380965","0","0"
"168","86","text","0","26","304875","0-0","","","","","","","","","","","","","","","","","","","","","","","","","","","","","","","","","","","","",""
"3943","86","text","0","27","310035","0-0","","","","","","","","","","","","","","","","","","","","","","","","","","","","","","","","","","","","",""
"","","plant-game","0","28","329394","0-0","","200","190","1","CORN CROP","Right","200","160","8","NETTLE WEED","experimental","1","1,2,3,4,5,6,7,8","160,161.03772635110917,150.2335645470044,175.1016278982253,198.27988893989746,203.50379148180315,243.7312960202044,245.21143285075564","8,7,6,5,4,3,2,1","NETTLE WEED,NETTLE WEED,NETTLE WEED,NETTLE WEED,NETTLE WEED,NETTLE WEED,NETTLE WEED,NETTLE WEED","190,130,129.33761095515558,142.30657727378824,152.43406755111744,184.0783933568665,212.54385389585508,180.67066835779838","1,7,6,5,4,3,2,1","CORN CROP,WHEAT CROP,WHEAT CROP,WHEAT CROP,WHEAT CROP,WHEAT CROP,WHEAT CROP,WHEAT CROP","0,0,0,0,0,0,0,0","20,20,20,20,20,20,20,20","10,10,10,10,10,10,10,10","20,20,20,20,20,20,20,20","20,20,20,20,20,20,20,20","20,20,20,20,20,20,20,20","0,0,0,0,0,0,0,0","20,20,20,20,20,20,20,20","10,10,10,10,10,10,10,10","20,20,20,20,20,20,20,20","20,20,20,20,20,20,20,20","20,20,20,20,20,20,20,20","0,0,1,1,0,0,0,0","1988,1301,693,709,814,685,1518,734","1.037726351109172,-10.804161804104789,24.86806335122092,23.17826104167217,5.223902541905689,40.22750453840128,1.4801368305512417,33.54190229271958","5.953508061524639,-0.6623890448444165,12.968966318632642,10.127490277329203,31.644325805749062,28.46546053898858,-31.87318553805669,24.335813138764827","0","0"
"616","86","text","0","29","330211","0-0","","","","","","","","","","","","","","","","","","","","","","","","","","","","","","","","","","","","",""
"","","plant-game","0","30","341243","0-0","","200","180","1","WHEAT CROP","Right","200","190","2","THISTLE WEED","experimental","2","1,2","190,171.50892049062747","2,1","THISTLE WEED,THISTLE WEED","180,190","1,1","WHEAT CROP,CORN CROP","0,0","20,20","10,10","20,20","20,20","20,20","0,0","20,20","10,10","20,20","20,20","20,20","1,0","1217,1310","-18.49107950937254,-8.883773209237924","65.37933959662654,10.602372650105137","0","0"
"807","86","text","0","31","342258","0-0","","","","","","","","","","","","","","","","","","","","","","","","","","","","","","","","","","","","",""
"","","plant-game","0","32","348419","0-0","","200","160","1","WHEAT CROP","Right","200","120","1","THISTLE WEED","experimental","3","1","120","1","THISTLE WEED","160","1","WHEAT CROP","0","20","10","20","20","20","0","20","10","20","20","20","0","1018","-6.639345061709846","-4.423197316533359","0","0"
"4952","86","text","0","33","353579","0-0","","","","","","","","","","","","","","","","","","","","","","","","","","","","","","","","","","","","",""
"","","plant-game","0","34","374725","0-0","","200","190","4","CORN CROP","Right","200","180","2","NETTLE WEED","experimental","4","1,2,3,4","180,196.0563966324282,180,190.69802530932571","2,1,2,1","NETTLE WEED,NETTLE WEED,THISTLE WEED,THISTLE WEED","190,183.45636153874483,185.07193288975415,192.26588196810425","4,3,2,1","CORN CROP,CORN CROP,CORN CROP,CORN CROP","0,0,0,0","20,20,20,20","10,10,10,10","20,20,20,20","20,20,20,20","20,20,20,20","0,0,0,0","20,20,20,20","10,10,10,10","20,20,20,20","20,20,20,20","20,20,20,20","0,1,1,0","1210,1589,1574,5070","16.05639663242821,-9.074329530295412,10.69802530932572,-30.0909165261642","-6.543638461255185,1.6155713510093186,7.193949078350093,-30.41261671592728","0","0"
"1072","86","text","0","35","376037","0-0","","","","","","","","","","","","","","","","","","","","","","","","","","","","","","","","","","","","",""
"","","plant-game","0","36","386701","0-0","","200","180","2","WHEAT CROP","Left","200","190","1","NETTLE WEED","experimental","5","1,2","180,192.7910585248082","2,1","WHEAT CROP,WHEAT CROP","190,190","1,1","NETTLE WEED,THISTLE WEED","20,20","20,20","10,10","20,20","0,0","20,20","20,20","20,20","10,10","20,20","0,0","20,20","1,1","2619,1367","12.791058524808186,37.56725445642565","3.462456624544574,35.739060055139014","0","0"
"183","86","text","0","37","387085","0-0","","","","","","","","","","","","","","","","","","","","","","","","","","","","","","","","","","","","",""
"","","plant-game","0","38","410909","0-0","","200","190","2","CORN CROP","Right","200","160","8","THISTLE WEED","experimental","6","1,2,3,4,5,6,7,8","160,160.27237853715545,151.0987293384266,177.7128762531677,182.71893004614333,197.38712295968375,218.40112185576854,217.20599234021714","8,7,6,5,4,3,2,1","THISTLE WEED,THISTLE WEED,THISTLE WEED,THISTLE WEED,THISTLE WEED,THISTLE WEED,THISTLE WEED,THISTLE WEED","190,198.5056429142577,140,159.15812437351667,165.75323546517848,183.70401008938717,201.23450625940242,205.10102925263135","2,1,6,5,4,3,2,1","CORN CROP,CORN CROP,WHEAT CROP,WHEAT CROP,WHEAT CROP,WHEAT CROP,WHEAT CROP,WHEAT CROP","0,0,0,0,0,0,0,0","20,20,20,20,20,20,20,20","10,10,10,10,10,10,10,10","20,20,20,20,20,20,20,20","20,20,20,20,20,20,20,20","20,20,20,20,20,20,20,20","0,0,0,0,0,0,0,0","20,20,20,20,20,20,20,20","10,10,10,10,10,10,10,10","20,20,20,20,20,20,20,20","20,20,20,20,20,20,20,20","20,20,20,20,20,20,20,20","0,1,1,0,0,1,1,1","3049,2548,940,573,565,693,4573,1219","0.27237853715544924,-9.17364919872885,26.61414691474109,5.0060537929756315,14.668192913540427,21.013998896084797,-1.1951295155514075,20.675419756465114","8.505642914257702,30.739257781280337,19.158124373516678,6.595111091661816,17.95077462420868,17.53049617001525,3.8665229932289407,25.69215672024182","0","0"
"744","86","text","0","39","411853","0-0","","","","","","","","","","","","","","","","","","","","","","","","","","","","","","","","","","","","",""
"","","plant-game","0","40","431071","0-0","","200","120","8","CORN CROP","Right","200","120","1","THISTLE WEED","experimental","7","1,2,3,4,5,6,7,8","120,130,132.35339106772545,145.40971065459607,126.94301661367746,135.69079853509655,115.51012873717684,130.73743481628662","1,7,6,5,4,3,2,1","THISTLE WEED,NETTLE WEED,NETTLE WEED,NETTLE WEED,NETTLE WEED,NETTLE WEED,NETTLE WEED,NETTLE WEED","120,138.33744013443,203.01395134870918,177.0038670509721,140.66704440884988,146.536420255867,153.5079713533336,172.92464561874692","8,7,6,5,4,3,2,1","CORN CROP,CORN CROP,CORN CROP,CORN CROP,CORN CROP,CORN CROP,CORN CROP,CORN CROP","0,0,0,0,0,0,0,0","20,20,20,20,20,20,20,20","10,10,10,10,10,10,10,10","20,20,20,20,20,20,20,20","20,20,20,20,20,20,20,20","20,20,20,20,20,20,20,20","0,0,0,0,0,0,0,0","20,20,20,20,20,20,20,20","10,10,10,10,10,10,10,10","20,20,20,20,20,20,20,20","20,20,20,20,20,20,20,20","20,20,20,20,20,20,20,20","1,1,0,0,0,0,0,0","1913,2244,2126,813,701,406,246,213","11.123711160541067,2.3533910677254397,13.056319586870604,-18.466694040918604,8.74778192141909,-20.180669797919712,15.227306079109786,8.630406303599814","18.33744013443001,64.67651121427917,-26.01008429773707,-36.33682264212222,5.869375847017131,6.971551097466602,19.41667426541332,-27.20825714340298","0","0"
"536","86","text","0","41","431847","0-0","","","","","","","","","","","","","","","","","","","","","","","","","","","","","","","","","","","","",""
"","","plant-game","0","42","445167","0-0","","200","180","8","CORN CROP","Left","200","160","8","NETTLE WEED","experimental","8","1,2,3,4,5,6,7,8","180,179.4164921572664,203.81893972354942,159.42709825164332,175.81883097812883,167.31730455527335,144.57678843766809,160.63056168770143","8,7,6,5,4,3,2,1","CORN CROP,CORN CROP,CORN CROP,CORN CROP,CORN CROP,CORN CROP,CORN CROP,CORN CROP","160,161.17235563762424,195.64754729023124,187.01511638210417,129.89632170738076,110.14091929217994,64.09850181560849,127.81121777039377","8,7,6,5,4,3,2,1","NETTLE WEED,NETTLE WEED,NETTLE WEED,NETTLE WEED,NETTLE WEED,NETTLE WEED,NETTLE WEED,NETTLE WEED","20,20,20,20,20,20,20,20","20,20,20,20,20,20,20,20","10,10,10,10,10,10,10,10","20,20,20,20,20,20,20,20","0,0,0,0,0,0,0,0","20,20,20,20,20,20,20,20","20,20,20,20,20,20,20,20","20,20,20,20,20,20,20,20","10,10,10,10,10,10,10,10","20,20,20,20,20,20,20,20","0,0,0,0,0,0,0,0","20,20,20,20,20,20,20,20","1,0,1,1,1,1,0,0","1473,1076,1964,364,493,445,829,381","-0.5835078427336129,24.40244756628304,-44.3918414719061,16.391732726485515,-8.501526422855477,-22.740516117605253,16.053773250033338,13.283140872548021","1.1723556376242485,34.47519165260701,-8.632430908127075,-57.1187946747234,-19.75540241520082,-46.04241747657146,63.71271595478528,-2.937907997586823","0","0"
"608","86","text","0","43","445983","0-0","","","","","","","","","","","","","","","","","","","","","","","","","","","","","","","","","","","","",""
"","","plant-game","0","44","456143","0-0","","200","120","4","CORN CROP","Right","200","190","4","NETTLE WEED","experimental","9","1,2,3,4","190,172.88102700513812,150.8524370675901,168.48036234232694","4,3,2,1","NETTLE WEED,NETTLE WEED,NETTLE WEED,NETTLE WEED","120,132.4965343810227,127.25180887494078,192.86986130120118","4,3,2,1","CORN CROP,CORN CROP,CORN CROP,CORN CROP","0,0,0,0","20,20,20,20","10,10,10,10","20,20,20,20","20,20,20,20","20,20,20,20","0,0,0,0","20,20,20,20","10,10,10,10","20,20,20,20","20,20,20,20","20,20,20,20","0,0,1,0","1616,573,1277,1662","-17.118972994861878,-22.028589937548013,17.62792527473683,6.7991285756983","12.496534381022709,-5.244725506081934,65.61805242626039,-2.2623465932939752","1","0"
"712","86","text","0","45","457079","0-0","","","","","","","","","","","","","","","","","","","","","","","","","","","","","","","","","","","","",""
"","","plant-game","0","46","475687","0-0","","200","120","4","WHEAT CROP","Left","200","160","8","NETTLE WEED","experimental","10","1,2,3,4,5,6,7,8","120,123.33286142876413,142.52777116769403,165.94816867694038,160,186.48735981887063,208.873291995519,215.96218762528503","4,3,2,1,4,3,2,1","WHEAT CROP,WHEAT CROP,WHEAT CROP,WHEAT CROP,CORN CROP,CORN CROP,CORN CROP,CORN CROP","160,174.3176613337189,178.7804629928951,177.85893613226352,157.65068702376817,150.5098497927743,163.75951553747984,185.17870477783327","8,7,6,5,4,3,2,1","NETTLE WEED,NETTLE WEED,NETTLE WEED,NETTLE WEED,NETTLE WEED,NETTLE WEED,NETTLE WEED,NETTLE WEED","20,20,20,20,20,20,20,20","20,20,20,20,20,20,20,20","10,10,10,10,10,10,10,10","20,20,20,20,20,20,20,20","0,0,0,0,0,0,0,0","20,20,20,20,20,20,20,20","20,20,20,20,20,20,20,20","20,20,20,20,20,20,20,20","10,10,10,10,10,10,10,10","20,20,20,20,20,20,20,20","0,0,0,0,0,0,0,0","20,20,20,20,20,20,20,20","1,0,0,1,1,1,0,0","1138,1268,1284,2301,1053,396,939,413","3.332861428764138,19.194909738929884,23.420397509246342,-14.701558457096963,26.487359818870615,22.38593217664836,7.0888956297660215,35.45771404886531","14.317661333718883,4.462801659176209,-0.9215268606315874,-20.208249108495338,-7.140837230993878,13.249665744705547,21.419189240353433,44.07561486975541","1","0"
"200","86","text","0","47","476047","0-0","","","","","","","","","","","","","","","","","","","","","","","","","","","","","","","","","","","","",""
"","","plant-game","0","48","488850","0-0","","200","190","1","CORN CROP","Right","200","120","4","THISTLE WEED","experimental","11","1,2,3,4","120,127.81955502402408,176.29932993297865,166.79060367776557","4,3,2,1","THISTLE WEED,THISTLE WEED,THISTLE WEED,THISTLE WEED","190,170,214.24686305900605,221.2747263500646","1,3,2,1","CORN CROP,WHEAT CROP,WHEAT CROP,WHEAT CROP","0,0,0,0","20,20,20,20","10,10,10,10","20,20,20,20","20,20,20,20","20,20,20,20","0,0,0,0","20,20,20,20","10,10,10,10","20,20,20,20","20,20,20,20","20,20,20,20","0,1,0,1","857,1021,1248,1244","7.819555024024078,48.47977490895457,-9.508726255213073,6.753781487669414","-10.32057820995911,44.24686305900605,7.027863291058559,20.776100098496748","0","0"
"800","86","text","0","49","489858","0-0","","","","","","","","","","","","","","","","","","","","","","","","","","","","","","","","","","","","",""
"","","plant-game","0","50","505202","0-0","","200","180","8","WHEAT CROP","Left","200","190","2","THISTLE WEED","experimental","12","1,2,3,4,5,6,7,8","180,208.46099651526032,240.1911448516753,258.2054646496851,238.0489127995288,274.31486416602866,306.0720098005374,368.72222683032595","8,7,6,5,4,3,2,1","WHEAT CROP,WHEAT CROP,WHEAT CROP,WHEAT CROP,WHEAT CROP,WHEAT CROP,WHEAT CROP,WHEAT CROP","190,206.9788401524953,140,124.9014180387176,111.44384533126122,117.80791377215571,163.54592767393535,198.57069039058376","2,1,6,5,4,3,2,1","THISTLE WEED,THISTLE WEED,NETTLE WEED,NETTLE WEED,NETTLE WEED,NETTLE WEED,NETTLE WEED,NETTLE WEED","20,20,20,20,20,20,20,20","20,20,20,20,20,20,20,20","10,10,10,10,10,10,10,10","20,20,20,20,20,20,20,20","0,0,0,0,0,0,0,0","20,20,20,20,20,20,20,20","20,20,20,20,20,20,20,20","20,20,20,20,20,20,20,20","10,10,10,10,10,10,10,10","20,20,20,20,20,20,20,20","0,0,0,0,0,0,0,0","20,20,20,20,20,20,20,20","1,0,1,0,0,0,0,0","1233,2109,1068,1092,469,549,717,837","28.460996515260312,31.730148336414963,18.014319798009815,-20.156551850156283,36.26595136649982,31.75714563450871,62.65021702978857,17.688538211505083","16.97884015249532,34.66046338750875,-15.098581961282399,-13.457572707456379,6.364068440894503,45.73801390177965,35.024762716648404,29.406588172866268","0","0"
"360","86","text","0","51","505762","0-0","","","","","","","","","","","","","","","","","","","","","","","","","","","","","","","","","","","","",""
"","","plant-game","0","52","521889","0-0","","200","120","1","WHEAT CROP","Right","200","160","8","NETTLE WEED","experimental","13","1,2,3,4,5,6,7,8","160,177.04719703564214,190.66573541048842,232.9804491391764,248.8628593750844,232.76654160517057,232.3837978402136,264.33237709609216","8,7,6,5,4,3,2,1","NETTLE WEED,NETTLE WEED,NETTLE WEED,NETTLE WEED,NETTLE WEED,NETTLE WEED,NETTLE WEED,NETTLE WEED","120,130,127.596437676485,147.50055810483008,158.05988671485034,152.83576364666123,166.5084930627939,145.622796374504","1,7,6,5,4,3,2,1","WHEAT CROP,CORN CROP,CORN CROP,CORN CROP,CORN CROP,CORN CROP,CORN CROP,CORN CROP","0,0,0,0,0,0,0,0","20,20,20,20,20,20,20,20","10,10,10,10,10,10,10,10","20,20,20,20,20,20,20,20","20,20,20,20,20,20,20,20","20,20,20,20,20,20,20,20","0,0,0,0,0,0,0,0","20,20,20,20,20,20,20,20","10,10,10,10,10,10,10,10","20,20,20,20,20,20,20,20","20,20,20,20,20,20,20,20","20,20,20,20,20,20,20,20","1,1,1,1,1,0,0,0","1201,787,373,836,452,557,341,365","17.04719703564215,13.618538374846292,42.31471372868797,15.882410235908024,-16.09631776991384,-0.38274376495698903,31.948579255878585,39.16456337598018","33.4862437978863,-2.4035623235150005,19.90412042834507,10.559328610020247,-5.224123068189112,13.672729416132668,-20.885696688289897,18.04633263775815","0","0"
"649","86","text","0","53","522754","0-0","","","","","","","","","","","","","","","","","","","","","","","","","","","","","","","","","","","","",""
"","","plant-game","0","54","539273","0-0","","200","190","2","WHEAT CROP","Right","200","120","8","THISTLE WEED","experimental","14","1,2,3,4,5,6,7,8","120,94.81580097286563,112.34859634037336,110.74481040200963,111.64962315321878,162.1149830995491,206.0967155415894,172.77111188979484","8,7,6,5,4,3,2,1","THISTLE WEED,THISTLE WEED,THISTLE WEED,THISTLE WEED,THISTLE WEED,THISTLE WEED,THISTLE WEED,THISTLE WEED","190,203.95710475488957,140,135.8775929890992,113.7803089070859,134.43307300857165,167.22393382023583,153.68047630747603","2,1,6,5,4,3,2,1","WHEAT CROP,WHEAT CROP,CORN CROP,CORN CROP,CORN CROP,CORN CROP,CORN CROP,CORN CROP","0,0,0,0,0,0,0,0","20,20,20,20,20,20,20,20","10,10,10,10,10,10,10,10","20,20,20,20,20,20,20,20","20,20,20,20,20,20,20,20","20,20,20,20,20,20,20,20","0,0,0,0,0,0,0,0","20,20,20,20,20,20,20,20","10,10,10,10,10,10,10,10","20,20,20,20,20,20,20,20","20,20,20,20,20,20,20,20","20,20,20,20,20,20,20,20","0,1,0,1,1,1,0,0","762,1452,1275,1493,2565,893,1045,518","-25.184199027134365,17.532795367507727,-1.6037859383637312,0.9048127512091497,50.465359946330324,43.9817324420403,-33.32560365179455,1.2866070382534773","13.95710475488956,5.261827362861588,-4.1224070109007735,-22.097284082013324,20.652764101485754,32.79086081166418,-13.543457512759804,-17.580682961050847","1","0"
"128","86","text","0","55","539585","0-0","","","","","","","","","","","","","","","","","","","","","","","","","","","","","","","","","","","","",""
"","","plant-game","0","56","555451","0-0","","200","180","8","CORN CROP","Left","200","120","2","NETTLE WEED","experimental","15","1,2,3,4,5,6,7,8","180,128.64686360918213,140.53634366181421,136.22403297560342,99.03847110205933,108.16931343959385,135.84604559469116,179.14743129352368","8,7,6,5,4,3,2,1","CORN CROP,CORN CROP,CORN CROP,CORN CROP,CORN CROP,CORN CROP,CORN CROP,CORN CROP","120,92.62655774603854,140,110.65166783579545,91.04974458520365,114.58516550256456,108.18927782583066,168.57889166594794","2,1,6,5,4,3,2,1","NETTLE WEED,NETTLE WEED,THISTLE WEED,THISTLE WEED,THISTLE WEED,THISTLE WEED,THISTLE WEED,THISTLE WEED","20,20,20,20,20,20,20,20","20,20,20,20,20,20,20,20","10,10,10,10,10,10,10,10","20,20,20,20,20,20,20,20","0,0,0,0,0,0,0,0","20,20,20,20,20,20,20,20","20,20,20,20,20,20,20,20","20,20,20,20,20,20,20,20","10,10,10,10,10,10,10,10","20,20,20,20,20,20,20,20","0,0,0,0,0,0,0,0","20,20,20,20,20,20,20,20","1,0,1,1,0,0,0,0","897,829,811,981,916,445,598,750","-51.35313639081787,11.88948005263207,-4.3123106862107985,-37.18556187354409,9.13084233753451,27.676732155097316,43.30138569883251,45.498416779283005","-27.373442253961464,37.04586920576436,-29.34833216420455,-19.601923250591792,23.535420917360902,-6.39588767673391,60.38961384011727,8.835953463678642","0","0"
"704","86","text","0","57","556355","0-0","","","","","","","","","","","","","","","","","","","","","","","","","","","","","","","","","","","","",""
"","","plant-game","0","58","563747","0-0","","200","120","2","WHEAT CROP","Left","200","180","2","THISTLE WEED","experimental","16","1,2","120,132.4780048525494","2,1","WHEAT CROP,WHEAT CROP","180,179.9476006956193","2,1","THISTLE WEED,THISTLE WEED","20,20","20,20","10,10","20,20","0,0","20,20","20,20","20,20","10,10","20,20","0,0","20,20","1,1","2938,461","12.478004852549399,22.39937485670052","-0.05239930438070435,0.4769944537916682","0","0"
"4488","86","text","0","59","568451","0-0","","","","","","","","","","","","","","","","","","","","","","","","","","","","","","","","","","","","",""
"","","plant-game","0","60","579475","0-0","","200","190","8","CORN CROP","Right","200","180","2","THISTLE WEED","experimental","17","1,2,3,4,5,6,7,8","180,197.9297041416628,140,123.84459623224642,93.99069025166409,118.99843789499224,125.1903645285675,140.74686367698197","2,1,6,5,4,3,2,1","THISTLE WEED,THISTLE WEED,NETTLE WEED,NETTLE WEED,NETTLE WEED,NETTLE WEED,NETTLE WEED,NETTLE WEED","190,228.60106316277515,231.9462501617998,246.8093294716276,253.02261733556338,304.1974206868293,325.2664060063356,343.94039119362094","8,7,6,5,4,3,2,1","CORN CROP,CORN CROP,CORN CROP,CORN CROP,CORN CROP,CORN CROP,CORN CROP,CORN CROP","0,0,0,0,0,0,0,0","20,20,20,20,20,20,20,20","10,10,10,10,10,10,10,10","20,20,20,20,20,20,20,20","20,20,20,20,20,20,20,20","20,20,20,20,20,20,20,20","0,0,0,0,0,0,0,0","20,20,20,20,20,20,20,20","10,10,10,10,10,10,10,10","20,20,20,20,20,20,20,20","20,20,20,20,20,20,20,20","20,20,20,20,20,20,20,20","1,1,0,0,1,1,1,1","489,122,2267,221,949,404,349,269","17.929704141662803,13.60412722585054,-16.155403767753587,-29.85390598058232,25.007747643328138,6.19192663357526,15.556499148414474,11.949586365352209","38.60106316277514,3.3451869990246728,14.863079309827771,6.213287863935797,51.1748033512659,21.068985319506314,18.673985187285346,17.934735672020146","0","0"
"136","86","text","0","61","579763","0-0","","","","","","","","","","","","","","","","","","","","","","","","","","","","","","","","","","","","",""
"","","plant-game","0","62","591154","0-0","","200","160","8","CORN CROP","Left","200","120","2","NETTLE WEED","experimental","18","1,2,3,4,5,6,7,8","160,169.3961765898445,216.51311091065526,215.21123579547316,241.75689149173735,266.2052927534319,256.09088833898437,269.3873598348156","8,7,6,5,4,3,2,1","CORN CROP,CORN CROP,CORN CROP,CORN CROP,CORN CROP,CORN CROP,CORN CROP,CORN CROP","120,107.02249775603406,140,151.992251045432,153.92958151183942,188.6410642383068,206.99896892385055,197.98817079319957","2,1,6,5,4,3,2,1","NETTLE WEED,NETTLE WEED,THISTLE WEED,THISTLE WEED,THISTLE WEED,THISTLE WEED,THISTLE WEED,THISTLE WEED","20,20,20,20,20,20,20,20","20,20,20,20,20,20,20,20","10,10,10,10,10,10,10,10","20,20,20,20,20,20,20,20","0,0,0,0,0,0,0,0","20,20,20,20,20,20,20,20","20,20,20,20,20,20,20,20","20,20,20,20,20,20,20,20","10,10,10,10,10,10,10,10","20,20,20,20,20,20,20,20","0,0,0,0,0,0,0,0","20,20,20,20,20,20,20,20","1,1,1,0,0,0,1,1","385,93,1252,365,765,821,365,1733","9.396176589844497,47.116934320810756,-1.3018751151820878,26.545655696264195,24.448401261694542,-10.114404414447485,13.296471495831188,4.9661331549590235","-12.97750224396594,16.862864371871016,11.992251045432013,1.9373304664074062,34.711482726467366,18.357904685543744,-9.010798130650997,-48.37820817485116","0","0"
"183","86","text","0","63","591498","0-0","","","","","","","","","","","","","","","","","","","","","","","","","","","","","","","","","","","","",""
"","","plant-game","0","64","598067","0-0","","200","160","1","WHEAT CROP","Right","200","190","1","THISTLE WEED","experimental","19","1","190","1","THISTLE WEED","160","1","WHEAT CROP","0","20","10","20","20","20","0","20","10","20","20","20","0","667","-14.509393689479598","19.2885557315775","0","0"
"160","86","text","0","65","598443","0-0","","","","","","","","","","","","","","","","","","","","","","","","","","","","","","","","","","","","",""
"","","plant-game","0","66","614966","0-0","","200","190","1","CORN CROP","Right","200","120","8","NETTLE WEED","experimental","20","1,2,3,4,5,6,7,8","120,131.9377510317173,133.45678751717287,139.39580631181175,165.350630213978,187.15080313511558,210.91864894545728,212.1654439374967","8,7,6,5,4,3,2,1","NETTLE WEED,NETTLE WEED,NETTLE WEED,NETTLE WEED,NETTLE WEED,NETTLE WEED,NETTLE WEED,NETTLE WEED","190,130,118.7291967394625,117.21447179310775,97.91108111170882,74.81025586564805,115.34242988518925,106.32352477530787","1,7,6,5,4,3,2,1","CORN CROP,WHEAT CROP,WHEAT CROP,WHEAT CROP,WHEAT CROP,WHEAT CROP,WHEAT CROP,WHEAT CROP","0,0,0,0,0,0,0,0","20,20,20,20,20,20,20,20","10,10,10,10,10,10,10,10","20,20,20,20,20,20,20,20","20,20,20,20,20,20,20,20","20,20,20,20,20,20,20,20","0,0,0,0,0,0,0,0","20,20,20,20,20,20,20,20","10,10,10,10,10,10,10,10","20,20,20,20,20,20,20,20","20,20,20,20,20,20,20,20","20,20,20,20,20,20,20,20","1,0,0,0,0,1,1,1","2313,2991,2509,293,309,645,509,117","11.93775103171731,1.5190364854555631,5.939018794638895,25.954823902166254,21.800172921137566,23.76784581034171,1.246794992039412,34.55961559429728","33.002151426944735,-11.270803260537507,-1.5147249463547414,-19.303390681398923,-23.10082524606078,40.5321740195412,-9.01890510988137,18.138524321159252","0","0"
"544","86","text","0","67","615718","0-0","","","","","","","","","","","","","","","","","","","","","","","","","","","","","","","","","","","","",""
"","","plant-game","0","68","623165","0-0","","200","120","4","WHEAT CROP","Right","200","120","8","THISTLE WEED","experimental","21","1,2,3,4,5,6,7,8","120,132.94039729417338,145.5335056509117,149.0015723418364,180.68575887373834,215.3004107109057,263.98820097462453,263.4462938252248","8,7,6,5,4,3,2,1","THISTLE WEED,THISTLE WEED,THISTLE WEED,THISTLE WEED,THISTLE WEED,THISTLE WEED,THISTLE WEED,THISTLE WEED","120,124.86980136997443,154.21240425772902,178.08683498260638,160,171.881877653258,214.9664387434798,214.4181970505948","4,3,2,1,4,3,2,1","WHEAT CROP,WHEAT CROP,WHEAT CROP,WHEAT CROP,CORN CROP,CORN CROP,CORN CROP,CORN CROP","0,0,0,0,0,0,0,0","20,20,20,20,20,20,20,20","10,10,10,10,10,10,10,10","20,20,20,20,20,20,20,20","20,20,20,20,20,20,20,20","20,20,20,20,20,20,20,20","0,0,0,0,0,0,0,0","20,20,20,20,20,20,20,20","10,10,10,10,10,10,10,10","20,20,20,20,20,20,20,20","20,20,20,20,20,20,20,20","20,20,20,20,20,20,20,20","1,1,1,1,1,1,1,1","513,284,85,85,909,108,69,149","12.940397294173367,12.593108356738325,3.4680666909246973,31.68418653190193,34.61465183716737,48.6877902637188,-0.5419071493997016,13.953107178732845","4.869801369974418,29.342602887754595,23.874430724877367,-7.30380592956244,11.881877653257998,43.084561090221825,-0.5482416928850142,44.22476404165275","0","0"
"232","86","text","0","69","623661","0-0","","","","","","","","","","","","","","","","","","","","","","","","","","","","","","","","","","","","",""
"","","plant-game","0","70","636517","0-0","","200","160","2","CORN CROP","Left","200","180","4","THISTLE WEED","experimental","22","1,2,3,4","160,165.3057393944448,180,184.4054287706531","2,1,2,1","CORN CROP,CORN CROP,WHEAT CROP,WHEAT CROP","180,155.17569993614634,166.86540420419396,174.54616720077897","4,3,2,1","THISTLE WEED,THISTLE WEED,THISTLE WEED,THISTLE WEED","20,20,20,20","20,20,20,20","10,10,10,10","20,20,20,20","0,0,0,0","20,20,20,20","20,20,20,20","20,20,20,20","10,10,10,10","20,20,20,20","0,0,0,0","20,20,20,20","1,1,0,1","578,157,997,517","5.305739394444804,-10.81564823929483,4.405428770653089,-16.696118625868863","-24.824300063853645,11.689704268047613,7.680762996585003,13.204266177564325","0","0"
"775","86","text","0","71","637518","0-0","","","","","","","","","","","","","","","","","","","","","","","","","","","","","","","","","","","","",""
"","","plant-game","0","72","647998","0-0","","200","180","1","CORN CROP","Right","200","190","4","THISTLE WEED","experimental","23","1,2,3,4","190,218.36763108324027,230.50145942372822,265.03808605575006","4,3,2,1","THISTLE WEED,THISTLE WEED,THISTLE WEED,THISTLE WEED","180,170,177.01870010490381,225.08659575527346","1,3,2,1","CORN CROP,WHEAT CROP,WHEAT CROP,WHEAT CROP","0,0,0,0","20,20,20,20","10,10,10,10","20,20,20,20","20,20,20,20","20,20,20,20","0,0,0,0","20,20,20,20","10,10,10,10","20,20,20,20","20,20,20,20","20,20,20,20","0,1,1,1","658,1124,317,110","28.36763108324027,12.133828340487955,34.53662663202186,29.112416933605655","13.38604329344621,7.0187001049038,48.06789565036965,20.476744032388897","0","0"
"2712","86","text","0","73","650942","0-0","","","","","","","","","","","","","","","","","","","","","","","","","","","","","","","","","","","","",""
"","","plant-game","0","74","658757","0-0","","200","180","4","WHEAT CROP","Left","200","120","4","THISTLE WEED","experimental","24","1,2,3,4","180,196.1192545860111,201.65459504195726,207.22613097986851","4,3,2,1","WHEAT CROP,WHEAT CROP,WHEAT CROP,WHEAT CROP","120,115.49858332688223,119.60410859690725,157.43597572529893","4,3,2,1","THISTLE WEED,THISTLE WEED,THISTLE WEED,THISTLE WEED","20,20,20,20","20,20,20,20","10,10,10,10","20,20,20,20","0,0,0,0","20,20,20,20","20,20,20,20","20,20,20,20","10,10,10,10","20,20,20,20","0,0,0,0","20,20,20,20","0,0,0,0","1897,597,213,220","16.11925458601111,5.535340455946166,5.571535937911236,-6.534127173295239","-4.501416673117767,4.1055252700250335,37.831867128391664,36.804203827266804","0","0"
"240","86","text","0","75","659237","0-0","","","","","","","","","","","","","","","","","","","","","","","","","","","","","","","","","","","","",""
"","","plant-game","0","76","670223","0-0","","200","190","8","WHEAT CROP","Left","200","160","1","THISTLE WEED","experimental","25","1,2,3,4,5,6,7,8","190,171.5050357124005,127.27869265610468,107.28556975364984,102.33444280127246,137.6440258512917,114.79130517407481,118.19947663049749","8,7,6,5,4,3,2,1","WHEAT CROP,WHEAT CROP,WHEAT CROP,WHEAT CROP,WHEAT CROP,WHEAT CROP,WHEAT CROP,WHEAT CROP","160,130,158.83480129762103,145.96736167869528,121.46865791297427,115.98681154034784,113.24116577458027,102.50311033305388","1,7,6,5,4,3,2,1","THISTLE WEED,NETTLE WEED,NETTLE WEED,NETTLE WEED,NETTLE WEED,NETTLE WEED,NETTLE WEED,NETTLE WEED","20,20,20,20,20,20,20,20","20,20,20,20,20,20,20,20","10,10,10,10,10,10,10,10","20,20,20,20,20,20,20,20","0,0,0,0,0,0,0,0","20,20,20,20,20,20,20,20","20,20,20,20,20,20,20,20","20,20,20,20,20,20,20,20","10,10,10,10,10,10,10,10","20,20,20,20,20,20,20,20","0,0,0,0,0,0,0,0","20,20,20,20,20,20,20,20","1,1,1,1,1,1,1,1","361,875,125,84,92,164,133,173","-18.494964287599487,-44.22634305629583,-19.99312290245485,-4.951126952377373,35.30958305001923,-22.8527206772169,3.408171456422682,21.735122096240815","28.159195739191002,28.834801297621034,-12.867439618925756,-24.49870376572102,-5.481846372626417,-2.7456457657675752,-10.738055441526392,-6.739379587377518","0","0"
"952","86","text","0","77","671423","0-0","","","","","","","","","","","","","","","","","","","","","","","","","","","","","","","","","","","","",""
"","","plant-game","0","78","676271","0-0","","200","160","2","WHEAT CROP","Right","200","160","2","THISTLE WEED","experimental","26","1,2","160,132.83861982623202","2,1","THISTLE WEED,THISTLE WEED","160,125.74544451615662","2,1","WHEAT CROP,WHEAT CROP","0,0","20,20","10,10","20,20","20,20","20,20","0,0","20,20","10,10","20,20","20,20","20,20","0,0","539,125","-27.161380173767974,-23.227912853489592","-34.254555483843376,-50.68594766743452","1","0"
"104","86","text","0","79","676559","0-0","","","","","","","","","","","","","","","","","","","","","","","","","","","","","","","","","","","","",""
"","","plant-game","0","80","683320","0-0","","200","180","2","CORN CROP","Right","200","190","2","NETTLE WEED","experimental","27","1,2","190,174.85439147461247","2,1","NETTLE WEED,NETTLE WEED","180,180.11279727269263","2,1","CORN CROP,CORN CROP","0,0","20,20","10,10","20,20","20,20","20,20","0,0","20,20","10,10","20,20","20,20","20,20","0,1","635,1534","-15.145608525387539,16.837843908981938","0.11279727269261831,46.43807262494683","2","0"
"3919","86","text","0","81","687439","0-0","","","","","","","","","","","","","","","","","","","","","","","","","","","","","","","","","","","","",""
"","","plant-game","0","82","692191","0-0","","200","190","1","CORN CROP","Right","200","190","1","THISTLE WEED","experimental","28","1","190","1","THISTLE WEED","190","1","CORN CROP","0","20","10","20","20","20","0","20","10","20","20","20","1","1890","23.310979713652817","-0.4380897510657604","0","0"
"168","86","text","0","83","692535","0-0","","","","","","","","","","","","","","","","","","","","","","","","","","","","","","","","","","","","",""
"","","plant-game","0","84","701527","0-0","","200","160","2","CORN CROP","Left","200","120","1","NETTLE WEED","experimental","29","1,2","160,152.32142951397006","2,1","CORN CROP,CORN CROP","120,190","1,1","NETTLE WEED,THISTLE WEED","20,20","20,20","10,10","20,20","0,0","20,20","20,20","20,20","10,10","20,20","0,0","20,20","1,0","698,1869","-7.678570486029951,-19.868747827864347","-10.573650996531947,-1.733935296322496","0","0"
"128","86","text","0","85","701839","0-0","","","","","","","","","","","","","","","","","","","","","","","","","","","","","","","","","","","","",""
"","","plant-game","0","86","714935","0-0","","200","160","8","WHEAT CROP","Right","200","190","2","NETTLE WEED","experimental","30","1,2,3,4,5,6,7,8","190,205.52302166463554,140,133.81826082747858,105.90483494703369,142.129122810385,192.10372838435856,200.83368329909285","2,1,6,5,4,3,2,1","NETTLE WEED,NETTLE WEED,THISTLE WEED,THISTLE WEED,THISTLE WEED,THISTLE WEED,THISTLE WEED,THISTLE WEED","160,175.85520837726142,148.78890306234928,153.57541700773984,143.3329584791472,140.08189567951283,153.11851132923775,130.08874756932107","8,7,6,5,4,3,2,1","WHEAT CROP,WHEAT CROP,WHEAT CROP,WHEAT CROP,WHEAT CROP,WHEAT CROP,WHEAT CROP,WHEAT CROP","0,0,0,0,0,0,0,0","20,20,20,20,20,20,20,20","10,10,10,10,10,10,10,10","20,20,20,20,20,20,20,20","20,20,20,20,20,20,20,20","20,20,20,20,20,20,20,20","0,0,0,0,0,0,0,0","20,20,20,20,20,20,20,20","10,10,10,10,10,10,10,10","20,20,20,20,20,20,20,20","20,20,20,20,20,20,20,20","20,20,20,20,20,20,20,20","1,1,0,0,1,1,1,1","625,716,771,405,173,309,326,2766","15.52302166463554,19.89074049000698,-6.181739172521407,-27.913425880444894,36.224287863351336,49.97460557397355,8.729954914734307,33.8325403468784","15.855208377261405,-27.06630531491215,4.78651394539058,-10.242458528592637,-3.251062799634372,13.036615649724919,-23.029763759916683,6.729832797127155","0","0"
"167","86","text","0","87","715327","0-0","","","","","","","","","","","","","","","","","","","","","","","","","","","","","","","","","","","","",""
"","","plant-game","0","88","729721","0-0","","200","120","1","WHEAT CROP","Left","200","190","8","THISTLE WEED","experimental","31","1,2,3,4,5,6,7,8","120,130,164.50488998250472,178.39467592500534,180.6012237529243,192.1249552906973,182.83159569450697,195.4835910403453","1,7,6,5,4,3,2,1","WHEAT CROP,CORN CROP,CORN CROP,CORN CROP,CORN CROP,CORN CROP,CORN CROP,CORN CROP","190,190.9088106519809,210.74045558431646,233.78037926728246,224.8543781782404,244.05050785813302,299.24477004550727,310.46167392272815","8,7,6,5,4,3,2,1","THISTLE WEED,THISTLE WEED,THISTLE WEED,THISTLE WEED,THISTLE WEED,THISTLE WEED,THISTLE WEED,THISTLE WEED","20,20,20,20,20,20,20,20","20,20,20,20,20,20,20,20","10,10,10,10,10,10,10,10","20,20,20,20,20,20,20,20","0,0,0,0,0,0,0,0","20,20,20,20,20,20,20,20","20,20,20,20,20,20,20,20","20,20,20,20,20,20,20,20","10,10,10,10,10,10,10,10","20,20,20,20,20,20,20,20","0,0,0,0,0,0,0,0","20,20,20,20,20,20,20,20","1,0,0,1,1,1,1,0","465,820,1396,460,420,358,301,384","52.72707138635147,34.50488998250471,13.889785942500634,2.206547827918976,11.523731537772976,-9.29335959619032,12.651995345838309,-16.54344091269715","0.9088106519808886,19.831644932335553,23.039923682965984,-8.926001089042042,19.196129679892614,55.19426218737422,11.2169038772209,41.91492664392605","0","0"
"151","86","text","0","89","730009","0-0","","","","","","","","","","","","","","","","","","","","","","","","","","","","","","","","","","","","",""
"","","plant-game","0","90","743570","0-0","","200","190","1","CORN CROP","Right","200","160","4","THISTLE WEED","experimental","32","1,2,3,4","160,137.91293960070283,224.64389982427258,250.96923412054468","4,3,2,1","THISTLE WEED,THISTLE WEED,THISTLE WEED,THISTLE WEED","190,170,192.68354033327256,210.42462483987688","1,3,2,1","CORN CROP,WHEAT CROP,WHEAT CROP,WHEAT CROP","0,0,0,0","20,20,20,20","10,10,10,10","20,20,20,20","20,20,20,20","20,20,20,20","0,0,0,0","20,20,20,20","10,10,10,10","20,20,20,20","20,20,20,20","20,20,20,20","0,1,1,1","1506,2677,1365,118","-22.087060399297158,86.73096022356974,26.325334296272118,1.6542599397366828","-65.89194433443527,22.68354033327255,17.741084506604317,18.28509402056874","0","0"
"120","86","text","0","91","743842","0-0","","","","","","","","","","","","","","","","","","","","","","","","","","","","","","","","","","","","",""
"","","plant-game","0","92","749201","0-0","","200","120","1","WHEAT CROP","Right","200","190","1","NETTLE WEED","experimental","33","1","190","1","NETTLE WEED","120","1","WHEAT CROP","0","20","10","20","20","20","0","20","10","20","20","20","0","840","-41.32082374366843","-1.9816284973461658","0","0"
"120","86","text","0","93","749481","0-0","","","","","","","","","","","","","","","","","","","","","","","","","","","","","","","","","","","","",""
"","","plant-game","0","94","773402","0-0","","200","120","8","CORN CROP","Right","200","180","8","NETTLE WEED","experimental","34","1,2,3,4,5,6,7,8","180,195.67123999686567,194.17563583041766,224.5455899326071,273.0172079335713,246.6216992749649,268.7378872418956,283.7582962232166","8,7,6,5,4,3,2,1","NETTLE WEED,NETTLE WEED,NETTLE WEED,NETTLE WEED,NETTLE WEED,NETTLE WEED,NETTLE WEED,NETTLE WEED","120,133.48353331690035,166.7869870789977,171.74698366536717,173.336313303761,221.5113990643695,252.41686431576846,228.2955806230929","8,7,6,5,4,3,2,1","CORN CROP,CORN CROP,CORN CROP,CORN CROP,CORN CROP,CORN CROP,CORN CROP,CORN CROP","0,0,0,0,0,0,0,0","20,20,20,20,20,20,20,20","10,10,10,10,10,10,10,10","20,20,20,20,20,20,20,20","20,20,20,20,20,20,20,20","20,20,20,20,20,20,20,20","0,0,0,0,0,0,0,0","20,20,20,20,20,20,20,20","10,10,10,10,10,10,10,10","20,20,20,20,20,20,20,20","20,20,20,20,20,20,20,20","20,20,20,20,20,20,20,20","1,1,1,1,1,1,0,0","506,339,732,3588,173,93,893,374","15.671239996865676,-1.4956041664480146,30.36995410218944,48.471618000964156,-26.395508658606374,22.116187966930653,15.020408981320985,17.016451675458775","13.483533316900349,33.30345376209736,4.959996586369456,1.5893296383938278,48.17508576060851,30.905465251398965,-24.121283692675576,-2.4193978389013315","1","0"
"568","86","text","0","95","774146","0-0","","","","","","","","","","","","","","","","","","","","","","","","","","","","","","","","","","","","",""
"","","plant-game","0","96","786322","0-0","","200","180","2","WHEAT CROP","Right","200","190","8","THISTLE WEED","experimental","35","1,2,3,4,5,6,7,8","190,211.64759162961943,207.56025933373664,206.52359029108862,225.91918086112202,260.8784326965416,255.65660923917358,220.121279950814","8,7,6,5,4,3,2,1","THISTLE WEED,THISTLE WEED,THISTLE WEED,THISTLE WEED,THISTLE WEED,THISTLE WEED,THISTLE WEED,THISTLE WEED","180,204.88925795058046,140,166.7512936458159,185.91891592282514,157.88787600587312,159.58263053632714,168.60843988553228","2,1,6,5,4,3,2,1","WHEAT CROP,WHEAT CROP,CORN CROP,CORN CROP,CORN CROP,CORN CROP,CORN CROP,CORN CROP","0,0,0,0,0,0,0,0","20,20,20,20,20,20,20,20","10,10,10,10,10,10,10,10","20,20,20,20,20,20,20,20","20,20,20,20,20,20,20,20","20,20,20,20,20,20,20,20","0,0,0,0,0,0,0,0","20,20,20,20,20,20,20,20","10,10,10,10,10,10,10,10","20,20,20,20,20,20,20,20","20,20,20,20,20,20,20,20","20,20,20,20,20,20,20,20","1,0,0,0,0,0,0,0","1466,1466,1107,125,133,125,110,110","21.647591629619427,-4.087332295882786,-1.0366690426480016,19.395590570033406,34.95925183541959,-5.2218234573680276,-35.53532928835957,5.301824872905221","24.88925795058045,-12.469170734121455,26.751293645815892,19.167622277009222,-28.03103991695202,1.6947545304540246,9.025809349205122,-2.5715509768681133","0","0"
"888","86","text","0","97","787426","0-0","","","","","","","","","","","","","","","","","","","","","","","","","","","","","","","","","","","","",""
"","","plant-game","0","98","795003","0-0","","200","190","2","CORN CROP","Left","200","160","2","NETTLE WEED","experimental","36","1,2","190,212.08243307697603","2,1","CORN CROP,CORN CROP","160,199.42797092703893","2,1","NETTLE WEED,NETTLE WEED","20,20","20,20","10,10","20,20","0,0","20,20","20,20","20,20","10,10","20,20","0,0","20,20","0,1","821,877","22.082433076976045,4.67502665341966","39.42797092703892,-19.704596629335743","0","0"
"1080","86","text","0","99","796299","0-0","","","","","","","","","","","","","","","","","","","","","","","","","","","","","","","","","","","","",""
"","","plant-game","0","100","807499","0-0","","200","190","4","CORN CROP","Right","200","120","1","THISTLE WEED","experimental","37","1,2,3,4","120,170,185.27823856754085,197.7552977528225","1,3,2,1","THISTLE WEED,NETTLE WEED,NETTLE WEED,NETTLE WEED","190,190.62380474243318,223.65766542303646,223.1422982211315","4,3,2,1","CORN CROP,CORN CROP,CORN CROP,CORN CROP","0,0,0,0","20,20,20,20","10,10,10,10","20,20,20,20","20,20,20,20","20,20,20,20","0,0,0,0","20,20,20,20","10,10,10,10","20,20,20,20","20,20,20,20","20,20,20,20","0,1,1,1","1036,2296,653,392","-17.244353338383746,15.278238567540843,12.477059185281629,8.660212604723066","0.6238047424331774,33.03386068060328,-0.515367201904958,23.508479926218953","0","0"
"703","86","text","0","101","808419","0-0","","","","","","","","","","","","","","","","","","","","","","","","","","","","","","","","","","","","",""
"","","plant-game","0","102","821676","0-0","","200","120","8","WHEAT CROP","Left","200","120","4","NETTLE WEED","experimental","38","1,2,3,4,5,6,7,8","120,113.04840700258379,102.65619976411949,112.64725553806997,108.67191744973113,112.70671212411172,126.82452075818927,146.2122777707665","8,7,6,5,4,3,2,1","WHEAT CROP,WHEAT CROP,WHEAT CROP,WHEAT CROP,WHEAT CROP,WHEAT CROP,WHEAT CROP,WHEAT CROP","120,176.84547521711826,180.32560932421677,183.00491498465382,160,158.88046393712693,163.50968069797688,175.40129101644766","4,3,2,1,4,3,2,1","NETTLE WEED,NETTLE WEED,NETTLE WEED,NETTLE WEED,THISTLE WEED,THISTLE WEED,THISTLE WEED,THISTLE WEED","20,20,20,20,20,20,20,20","20,20,20,20,20,20,20,20","10,10,10,10,10,10,10,10","20,20,20,20,20,20,20,20","0,0,0,0,0,0,0,0","20,20,20,20,20,20,20,20","20,20,20,20,20,20,20,20","20,20,20,20,20,20,20,20","10,10,10,10,10,10,10,10","20,20,20,20,20,20,20,20","0,0,0,0,0,0,0,0","20,20,20,20,20,20,20,20","0,1,0,1,1,1,0,1","1525,623,1343,607,855,391,544,543","-6.951592997416206,-10.392207238464302,9.991055773950478,-3.975338088338844,4.034794674380592,14.117808634077551,19.38775701257721,-2.5894651597074514","56.845475217118256,3.4801341070985057,2.679305660437052,15.292706954507418,-1.1195360628730704,4.629216760849953,11.891610318470775,3.2773552762793337","0","0"
"192","86","text","0","103","822084","0-0","","","","","","","","","","","","","","","","","","","","","","","","","","","","","","","","","","","","",""
"","","plant-game","0","104","836259","0-0","","200","160","1","WHEAT CROP","Left","200","190","8","THISTLE WEED","experimental","39","1,2,3,4,5,6,7,8","160,130,145.24860004609292,164.6685530833566,183.8184566685474,183.6845193966283,191.56660325347053,208.5521603936238","1,7,6,5,4,3,2,1","WHEAT CROP,CORN CROP,CORN CROP,CORN CROP,CORN CROP,CORN CROP,CORN CROP,CORN CROP","190,206.622764239999,212.77301467110013,262.4312571695466,247.1207853446813,303.00553724588394,290.8336178344115,250.53542457524085","8,7,6,5,4,3,2,1","THISTLE WEED,THISTLE WEED,THISTLE WEED,THISTLE WEED,THISTLE WEED,THISTLE WEED,THISTLE WEED,THISTLE WEED","20,20,20,20,20,20,20,20","20,20,20,20,20,20,20,20","10,10,10,10,10,10,10,10","20,20,20,20,20,20,20,20","0,0,0,0,0,0,0,0","20,20,20,20,20,20,20,20","20,20,20,20,20,20,20,20","20,20,20,20,20,20,20,20","10,10,10,10,10,10,10,10","20,20,20,20,20,20,20,20","0,0,0,0,0,0,0,0","20,20,20,20,20,20,20,20","1,0,0,0,0,1,1,1","1404,590,292,142,222,1431,775,1031","-5.03311072176615,15.24860004609291,19.419953037263696,19.149903585190803,-0.13393727191910543,7.882083856842229,16.985557140153276,-16.37573434535662","16.622764239998993,6.1502504311011545,49.65824249844647,-15.310471824865282,55.88475190120266,-12.171919411472459,-40.29819325917064,36.60297664511563","0","0"
"672","86","text","0","105","837140","0-0","","","","","","","","","","","","","","","","","","","","","","","","","","","","","","","","","","","","",""
"","","plant-game","0","106","850278","0-0","","200","120","8","WHEAT CROP","Right","200","190","2","THISTLE WEED","experimental","40","1,2,3,4,5,6,7,8","190,172.38147758893365,140,159.00359880273115,202.03334913905263,209.12587338905928,248.51582240014704,244.34083803335056","2,1,6,5,4,3,2,1","THISTLE WEED,THISTLE WEED,NETTLE WEED,NETTLE WEED,NETTLE WEED,NETTLE WEED,NETTLE WEED,NETTLE WEED","120,118.53943300009543,127.48493054163131,125.52890196436516,121.77111959037683,139.65724589532755,169.9986387139726,192.6630186017815","8,7,6,5,4,3,2,1","WHEAT CROP,WHEAT CROP,WHEAT CROP,WHEAT CROP,WHEAT CROP,WHEAT CROP,WHEAT CROP,WHEAT CROP","0,0,0,0,0,0,0,0","20,20,20,20,20,20,20,20","10,10,10,10,10,10,10,10","20,20,20,20,20,20,20,20","20,20,20,20,20,20,20,20","20,20,20,20,20,20,20,20","0,0,0,0,0,0,0,0","20,20,20,20,20,20,20,20","10,10,10,10,10,10,10,10","20,20,20,20,20,20,20,20","20,20,20,20,20,20,20,20","20,20,20,20,20,20,20,20","1,0,1,1,1,1,1,1","925,718,1022,191,821,215,295,186","-17.61852241106636,26.164427623536604,19.003598802731158,43.0297503363215,7.09252425000666,39.38994901108775,-4.1749843667964655,-29.94851398647205","-1.460566999904568,8.945497541535882,-1.9560285772661565,-3.7577823739883307,17.886126304950707,30.341392818645055,22.66437988780887,14.54709520880986","0","0"
"656","86","text","0","107","851158","0-0","","","","","","","","","","","","","","","","","","","","","","","","","","","","","","","","","","","","",""
"","","plant-game","0","108","864822","0-0","","200","180","8","WHEAT CROP","Right","200","180","4","NETTLE WEED","experimental","41","1,2,3,4,5,6,7,8","180,233.47095638218315,238.96163050505285,282.86272981154764,160,162.3937917600337,182.9023972056022,175.29845390887303","4,3,2,1,4,3,2,1","NETTLE WEED,NETTLE WEED,NETTLE WEED,NETTLE WEED,THISTLE WEED,THISTLE WEED,THISTLE WEED,THISTLE WEED","180,200.26276798261998,167.899201956741,212.88396669379387,216.98662196764528,226.46928554549416,208.9325484800157,208.57129951312743","8,7,6,5,4,3,2,1","WHEAT CROP,WHEAT CROP,WHEAT CROP,WHEAT CROP,WHEAT CROP,WHEAT CROP,WHEAT CROP,WHEAT CROP","0,0,0,0,0,0,0,0","20,20,20,20,20,20,20,20","10,10,10,10,10,10,10,10","20,20,20,20,20,20,20,20","20,20,20,20,20,20,20,20","20,20,20,20,20,20,20,20","0,0,0,0,0,0,0,0","20,20,20,20,20,20,20,20","10,10,10,10,10,10,10,10","20,20,20,20,20,20,20,20","20,20,20,20,20,20,20,20","20,20,20,20,20,20,20,20","1,0,1,0,0,0,0,0","1180,3095,807,703,879,229,263,167","53.47095638218315,5.490674122869718,43.901099306494764,14.806119019896984,2.3937917600337184,20.508605445568485,-7.6039432967291765,-38.65386415706539","20.262767982619984,-32.363566025878974,44.98476473705288,4.102655273851407,9.48266357784887,-17.53673706547847,-0.36124896688825603,16.654030246456617","0","0"
"248","86","text","0","109","865270","0-0","","","","","","","","","","","","","","","","","","","","","","","","","","","","","","","","","","","","",""
"","","plant-game","0","110","869533","0-0","","200","120","4","WHEAT CROP","Right","200","160","4","THISTLE WEED","experimental","42","1,2,3,4","160,151.43785246898716,162.8497986566392,200.35177459506394","4,3,2,1","THISTLE WEED,THISTLE WEED,THISTLE WEED,THISTLE WEED","120,125.11841043077432,133.60784557852764,171.985577988472","4,3,2,1","WHEAT CROP,WHEAT CROP,WHEAT CROP,WHEAT CROP","0,0,0,0","20,20,20,20","10,10,10,10","20,20,20,20","20,20,20,20","20,20,20,20","0,0,0,0","20,20,20,20","10,10,10,10","20,20,20,20","20,20,20,20","20,20,20,20","1,0,0,0","444,71,207,254","-8.562147531012855,11.411946187652028,37.50197593842476,24.55481742357977","5.118410430774322,8.489435147753326,38.37773240994434,-7.37487770711065","0","0"
"159","86","text","0","111","869845","0-0","","","","","","","","","","","","","","","","","","","","","","","","","","","","","","","","","","","","",""
"","","plant-game","0","112","874190","0-0","","200","160","1","WHEAT CROP","Right","200","160","1","NETTLE WEED","experimental","43","1","160","1","NETTLE WEED","160","1","WHEAT CROP","0","20","10","20","20","20","0","20","10","20","20","20","1","333","-2.3465334665888804","52.804083561456075","0","0"
"1088","86","text","0","113","875486","0-0","","","","","","","","","","","","","","","","","","","","","","","","","","","","","","","","","","","","",""
"","","plant-game","0","114","885069","0-0","","200","120","1","CORN CROP","Left","200","160","4","THISTLE WEED","experimental","44","1,2,3,4","120,170,187.1963062474549,217.57057923394024","1,3,2,1","CORN CROP,WHEAT CROP,WHEAT CROP,WHEAT CROP","160,158.20286526497773,150.5275409333312,187.52467171464997","4,3,2,1","THISTLE WEED,THISTLE WEED,THISTLE WEED,THISTLE WEED","20,20,20,20","20,20,20,20","10,10,10,10","20,20,20,20","0,0,0,0","20,20,20,20","20,20,20,20","20,20,20,20","10,10,10,10","20,20,20,20","0,0,0,0","20,20,20,20","1,1,0,0","661,1367,111,727","-4.879555261556438,17.196306247454906,30.374272986485316,13.073784131674927","-1.7971347350222668,-7.675324331646534,36.997130781318745,13.862405227582032","0","0"
"199","86","text","0","115","885493","0-0","","","","","","","","","","","","","","","","","","","","","","","","","","","","","","","","","","","","",""
"","","plant-game","0","116","897422","0-0","","200","160","2","CORN CROP","Right","200","120","4","THISTLE WEED","experimental","45","1,2,3,4","120,104.44004942864431,132.8893260751659,119.06166491913481","4,3,2,1","THISTLE WEED,THISTLE WEED,THISTLE WEED,THISTLE WEED","160,196.3505915701414,180,157.9508199362003","2,1,2,1","CORN CROP,CORN CROP,WHEAT CROP,WHEAT CROP","0,0,0,0","20,20,20,20","10,10,10,10","20,20,20,20","20,20,20,20","20,20,20,20","0,0,0,0","20,20,20,20","10,10,10,10","20,20,20,20","20,20,20,20","20,20,20,20","1,1,1,0","805,854,1503,487","-15.559950571355685,28.449276646521582,-13.827661156031105,0.8797756140416726","36.350591570141404,26.348197710942117,-22.049180063799703,10.584076089803514","0","0"
"800","86","text","0","117","898446","0-0","","","","","","","","","","","","","","","","","","","","","","","","","","","","","","","","","","","","",""
"","","plant-game","0","118","908254","0-0","","200","160","8","WHEAT CROP","Left","200","180","2","NETTLE WEED","experimental","46","1,2,3,4,5,6,7,8","160,188.38628073774805,217.40569353767364,207.01438157295615,251.8619477136084,270.63600015004266,323.7057800907618,378.1824219443739","8,7,6,5,4,3,2,1","WHEAT CROP,WHEAT CROP,WHEAT CROP,WHEAT CROP,WHEAT CROP,WHEAT CROP,WHEAT CROP,WHEAT CROP","180,192.52145264362568,140,130.33679583709892,94.7519155204156,109.8349989073158,133.4523934937189,169.93982420734096","2,1,6,5,4,3,2,1","NETTLE WEED,NETTLE WEED,THISTLE WEED,THISTLE WEED,THISTLE WEED,THISTLE WEED,THISTLE WEED,THISTLE WEED","20,20,20,20,20,20,20,20","20,20,20,20,20,20,20,20","10,10,10,10,10,10,10,10","20,20,20,20,20,20,20,20","0,0,0,0,0,0,0,0","20,20,20,20,20,20,20,20","20,20,20,20,20,20,20,20","20,20,20,20,20,20,20,20","10,10,10,10,10,10,10,10","20,20,20,20,20,20,20,20","0,0,0,0,0,0,0,0","20,20,20,20,20,20,20,20","0,1,1,1,0,0,0,0","2411,110,886,141,47,260,175,199","28.38628073774806,29.019412799925604,-10.391311964717495,44.84756614065226,18.774052436434264,53.06977994071914,54.47664185361211,46.057822796695646","12.521452643625675,-3.129770041418723,-9.663204162901074,-35.584880316683325,15.083083386900217,23.617394586403066,36.48743071362209,30.617269137390196","0","0"
"144","86","text","0","119","908576","0-0","","","","","","","","","","","","","","","","","","","","","","","","","","","","","","","","","","","","",""
"","","plant-game","0","120","923823","0-0","","200","190","1","WHEAT CROP","Right","200","190","8","NETTLE WEED","experimental","47","1,2,3,4,5,6,7,8","190,201.7087896138864,198.45228217055606,195.3561958214768,220.29179381218495,244.7662417799661,291.29117561481445,316.19334053067786","8,7,6,5,4,3,2,1","NETTLE WEED,NETTLE WEED,NETTLE WEED,NETTLE WEED,NETTLE WEED,NETTLE WEED,NETTLE WEED,NETTLE WEED","190,130,137.53759136978755,179.8362518968268,180.71809772532163,189.38669883877728,189.50363435146375,196.00181394316164","1,7,6,5,4,3,2,1","WHEAT CROP,CORN CROP,CORN CROP,CORN CROP,CORN CROP,CORN CROP,CORN CROP,CORN CROP","0,0,0,0,0,0,0,0","20,20,20,20,20,20,20,20","10,10,10,10,10,10,10,10","20,20,20,20,20,20,20,20","20,20,20,20,20,20,20,20","20,20,20,20,20,20,20,20","0,0,0,0,0,0,0,0","20,20,20,20,20,20,20,20","10,10,10,10,10,10,10,10","20,20,20,20,20,20,20,20","20,20,20,20,20,20,20,20","20,20,20,20,20,20,20,20","0,1,1,1,1,1,1,0","1573,2030,367,756,607,215,479,239","11.708789613886399,-3.2565074433303423,-3.096086349079261,24.935597990708157,24.474447967781135,46.52493383484833,24.902164915863384,13.321459602369917","-14.110742852095413,7.537591369787561,42.298660527039246,0.8818458284948072,8.668601113455662,0.11693551268646374,6.498179591697898,-1.8654331747206379","0","0"
"152","86","text","0","121","924111","0-0","","","","","","","","","","","","","","","","","","","","","","","","","","","","","","","","","","","","",""
"","","plant-game","0","122","933976","0-0","","200","190","4","CORN CROP","Right","200","120","8","NETTLE WEED","experimental","48","1,2,3,4,5,6,7,8","120,142.24792002443942,169.73689255876477,190.06332847554762,195.64809442608367,187.64386068851587,196.32001296760492,192.40499837783008","8,7,6,5,4,3,2,1","NETTLE WEED,NETTLE WEED,NETTLE WEED,NETTLE WEED,NETTLE WEED,NETTLE WEED,NETTLE WEED,NETTLE WEED","190,230.82330347774385,204.90181325312267,221.8532617965583,160,181.5522387319672,219.06940740877153,220.79483129646104","4,3,2,1,4,3,2,1","CORN CROP,CORN CROP,CORN CROP,CORN CROP,WHEAT CROP,WHEAT CROP,WHEAT CROP,WHEAT CROP","0,0,0,0,0,0,0,0","20,20,20,20,20,20,20,20","10,10,10,10,10,10,10,10","20,20,20,20,20,20,20,20","20,20,20,20,20,20,20,20","20,20,20,20,20,20,20,20","0,0,0,0,0,0,0,0","20,20,20,20,20,20,20,20","10,10,10,10,10,10,10,10","20,20,20,20,20,20,20,20","20,20,20,20,20,20,20,20","20,20,20,20,20,20,20,20","1,0,1,0,1,1,0,0","1324,23,39,62,847,173,182,327","22.24792002443942,27.48897253432533,20.32643591678286,5.584765950536048,-8.004233737567802,8.676152279089056,-3.9150145897748434,-16.220584434526565","40.82330347774385,-25.921490224621174,16.951448543435607,-13.582885125262681,21.5522387319672,37.51716867680432,1.7254238876895145,-49.65018501800997","0","0"
"15568","86","text","0","123","949776","0-0","","","","","","","","","","","","","","","","","","","","","","","","","","","","","","","","","","","","",""
"","","plant-game","0","124","959207","0-0","","200","120","8","WHEAT CROP","Right","200","180","4","THISTLE WEED","experimental","49","1,2,3,4,5,6,7,8","180,191.5601269592624,187.38557203250002,185.11392734795228,160,205.60103398462218,213.5318406074316,218.00686398354406","4,3,2,1,4,3,2,1","THISTLE WEED,THISTLE WEED,THISTLE WEED,THISTLE WEED,NETTLE WEED,NETTLE WEED,NETTLE WEED,NETTLE WEED","120,92.92499983503063,129.280292409557,117.39257852715086,130.54817249258542,182.59496660825062,174.17387708014502,215.63879747806854","8,7,6,5,4,3,2,1","WHEAT CROP,WHEAT CROP,WHEAT CROP,WHEAT CROP,WHEAT CROP,WHEAT CROP,WHEAT CROP,WHEAT CROP","0,0,0,0,0,0,0,0","20,20,20,20,20,20,20,20","10,10,10,10,10,10,10,10","20,20,20,20,20,20,20,20","20,20,20,20,20,20,20,20","20,20,20,20,20,20,20,20","0,0,0,0,0,0,0,0","20,20,20,20,20,20,20,20","10,10,10,10,10,10,10,10","20,20,20,20,20,20,20,20","20,20,20,20,20,20,20,20","20,20,20,20,20,20,20,20","0,1,0,1,1,1,0,1","1275,79,71,1,767,135,47,1159","11.560126959262387,-4.174554926762365,-2.2716446845477387,23.97498761442399,45.60103398462219,7.930806622809435,4.475023376112468,17.564947419408313","-27.075000164969364,36.35529257452637,-11.88771388240614,13.15559396543456,52.04679411566521,-8.421089528105604,41.46492039792353,-24.622921092107646","0","0"
"144","86","text","0","125","959544","0-0","","","","","","","","","","","","","","","","","","","","","","","","","","","","","","","","","","","","",""
"","","plant-game","0","126","971650","0-0","","200","180","8","WHEAT CROP","Right","200","190","1","NETTLE WEED","experimental","50","1,2,3,4,5,6,7,8","190,130,167.39549106408595,110.5242120872936,98.72152057590851,151.06804408863832,120.65820724727777,165.9999465359924","1,7,6,5,4,3,2,1","NETTLE WEED,THISTLE WEED,THISTLE WEED,THISTLE WEED,THISTLE WEED,THISTLE WEED,THISTLE WEED,THISTLE WEED","180,169.971184248288,189.62314914274697,173.5867947537881,173.99805218898118,211.59649476650736,205.09278093553968,235.43229257515114","8,7,6,5,4,3,2,1","WHEAT CROP,WHEAT CROP,WHEAT CROP,WHEAT CROP,WHEAT CROP,WHEAT CROP,WHEAT CROP,WHEAT CROP","0,0,0,0,0,0,0,0","20,20,20,20,20,20,20,20","10,10,10,10,10,10,10,10","20,20,20,20,20,20,20,20","20,20,20,20,20,20,20,20","20,20,20,20,20,20,20,20","0,0,0,0,0,0,0,0","20,20,20,20,20,20,20,20","10,10,10,10,10,10,10,10","20,20,20,20,20,20,20,20","20,20,20,20,20,20,20,20","20,20,20,20,20,20,20,20","1,1,0,0,1,1,1,1","699,844,45,182,518,1846,706,375","33.84306837231595,37.39549106408593,-56.87127897679234,-11.80269151138509,52.34652351272979,-30.40983684136055,45.34173928871462,-0.006980343510271325","-10.028815751712003,19.651964894458956,-16.036354388958863,0.41125743519308067,37.598442577526185,-6.50371383096768,30.33951163961145,-2.937903170067063","0","0"
"568","86","text","0","127","972434","0-0","","","","","","","","","","","","","","","","","","","","","","","","","","","","","","","","","","","","",""
"","","plant-game","0","128","988618","0-0","","200","190","8","CORN CROP","Left","200","190","2","THISTLE WEED","experimental","51","1,2,3,4,5,6,7,8","190,176.91081741636384,193.39806707823587,203.18779727570006,233.39281904436706,256.7583135145201,221.92134678443134,246.96094686966956","8,7,6,5,4,3,2,1","CORN CROP,CORN CROP,CORN CROP,CORN CROP,CORN CROP,CORN CROP,CORN CROP,CORN CROP","190,198.2325960880373,140,157.66113845359806,148.05379137270683,174.6986454308796,184.49175857641222,223.13628327087696","2,1,6,5,4,3,2,1","THISTLE WEED,THISTLE WEED,NETTLE WEED,NETTLE WEED,NETTLE WEED,NETTLE WEED,NETTLE WEED,NETTLE WEED","20,20,20,20,20,20,20,20","20,20,20,20,20,20,20,20","10,10,10,10,10,10,10,10","20,20,20,20,20,20,20,20","0,0,0,0,0,0,0,0","20,20,20,20,20,20,20,20","20,20,20,20,20,20,20,20","20,20,20,20,20,20,20,20","10,10,10,10,10,10,10,10","20,20,20,20,20,20,20,20","0,0,0,0,0,0,0,0","20,20,20,20,20,20,20,20","1,0,1,0,0,0,0,0","1356,71,845,166,462,222,191,4711","-13.089182583636155,16.487249661872035,9.789730197464207,30.205021768666985,23.365494470153084,-34.8369667300888,25.039600085238217,40.97214029665629","8.232596088037289,19.753856683134178,17.66113845359805,-9.60734708089122,26.644854058172772,9.793113145532637,38.644524694464735,34.96792552581596","0","0"
"1200","86","text","0","129","990018","0-0","","","","","","","","","","","","","","","","","","","","","","","","","","","","","","","","","","","","",""
"","","plant-game","0","130","999402","0-0","","200","190","4","WHEAT CROP","Right","200","180","8","THISTLE WEED","experimental","52","1,2,3,4,5,6,7,8","180,156.49429043678947,187.6630486935972,223.55921483295265,262.56444984124164,265.3047513126553,308.99837125655705,326.3829029220995","8,7,6,5,4,3,2,1","THISTLE WEED,THISTLE WEED,THISTLE WEED,THISTLE WEED,THISTLE WEED,THISTLE WEED,THISTLE WEED,THISTLE WEED","190,184.41705738113552,194.3217868385122,192.8829661007245,160,186.82114634201187,222.49200992175847,232.21708600086467","4,3,2,1,4,3,2,1","WHEAT CROP,WHEAT CROP,WHEAT CROP,WHEAT CROP,CORN CROP,CORN CROP,CORN CROP,CORN CROP","0,0,0,0,0,0,0,0","20,20,20,20,20,20,20,20","10,10,10,10,10,10,10,10","20,20,20,20,20,20,20,20","20,20,20,20,20,20,20,20","20,20,20,20,20,20,20,20","0,0,0,0,0,0,0,0","20,20,20,20,20,20,20,20","10,10,10,10,10,10,10,10","20,20,20,20,20,20,20,20","20,20,20,20,20,20,20,20","20,20,20,20,20,20,20,20","0,1,1,1,1,1,1,1","789,631,223,479,750,111,85,941","-23.50570956321053,31.16875825680772,35.89616613935543,39.00523500828896,2.74030147141368,43.69361994390174,17.384531665542468,47.59028090648877","-5.582942618864475,9.904729457376668,-1.4388207377876974,10.109346539848595,26.821146342011872,35.670863579746594,9.725076079106202,35.60209642432636","0","0"
"144","86","text","0","131","999690","0-0","","","","","","","","","","","","","","","","","","","","","","","","","","","","","","","","","","","","",""
"","","plant-game","0","132","1003682","0-0","","200","190","4","WHEAT CROP","Right","200","180","4","THISTLE WEED","experimental","53","1,2,3,4","180,192.27380423034052,205.56352839731176,235.64598008303136","4,3,2,1","THISTLE WEED,THISTLE WEED,THISTLE WEED,THISTLE WEED","190,203.78182858052762,199.93845224111013,178.5206079648411","4,3,2,1","WHEAT CROP,WHEAT CROP,WHEAT CROP,WHEAT CROP","0,0,0,0","20,20,20,20","10,10,10,10","20,20,20,20","20,20,20,20","20,20,20,20","0,0,0,0","20,20,20,20","10,10,10,10","20,20,20,20","20,20,20,20","20,20,20,20","0,0,0,0","443,191,191,174","12.27380423034052,13.289724166971252,30.08245168571962,16.190645752548615","13.781828580527618,-3.8433763394174862,-21.417844276269026,-20.41214649778267","0","0"
"96","86","text","0","133","1003962","0-0","","","","","","","","","","","","","","","","","","","","","","","","","","","","","","","","","","","","",""
"","","plant-game","0","134","1016490","0-0","","200","160","8","CORN CROP","Left","200","160","2","NETTLE WEED","experimental","54","1,2,3,4,5,6,7,8","160,192.1192010250535,211.5495726881783,220.145399495541,239.7094605869854,258.3980207375058,276.545615052645,251.2743982792825","8,7,6,5,4,3,2,1","CORN CROP,CORN CROP,CORN CROP,CORN CROP,CORN CROP,CORN CROP,CORN CROP,CORN CROP","160,150.76862742214547,140,137.84126312679487,160.34656851500284,144.43322318848703,154.48044376061017,145.94052420098626","2,1,6,5,4,3,2,1","NETTLE WEED,NETTLE WEED,THISTLE WEED,THISTLE WEED,THISTLE WEED,THISTLE WEED,THISTLE WEED,THISTLE WEED","20,20,20,20,20,20,20,20","20,20,20,20,20,20,20,20","10,10,10,10,10,10,10,10","20,20,20,20,20,20,20,20","0,0,0,0,0,0,0,0","20,20,20,20,20,20,20,20","20,20,20,20,20,20,20,20","20,20,20,20,20,20,20,20","10,10,10,10,10,10,10,10","20,20,20,20,20,20,20,20","0,0,0,0,0,0,0,0","20,20,20,20,20,20,20,20","1,0,1,1,1,1,1,1","788,55,894,607,94,455,353,487","32.11920102505352,19.43037166312479,8.595826807362695,19.56406109144439,18.68856015052043,18.147594315139195,-25.271216773362504,1.3010108052244118","-9.231372577854533,38.44315195989307,-2.158736873205132,22.505305388207987,-15.913345326515804,10.04722057212314,-8.53991955962391,-3.1661287636851543","0","0"
"768","86","text","0","135","1017458","0-0","","","","","","","","","","","","","","","","","","","","","","","","","","","","","","","","","","","","",""
"","","plant-game","0","136","1026138","0-0","","200","190","2","WHEAT CROP","Right","200","160","1","NETTLE WEED","experimental","55","1,2","160,190","1,1","NETTLE WEED,THISTLE WEED","190,214.54672243412722","2,1","WHEAT CROP,WHEAT CROP","0,0","20,20","10,10","20,20","20,20","20,20","0,0","20,20","10,10","20,20","20,20","20,20","1,1","660,829","26.40531229019814,62.449034856735025","24.546722434127226,5.288421550241257","0","0"
"519","86","text","0","137","1026889","0-0","","","","","","","","","","","","","","","","","","","","","","","","","","","","","","","","","","","","",""
"","","plant-game","0","138","1036501","0-0","","200","180","4","CORN CROP","Left","200","180","8","THISTLE WEED","experimental","56","1,2,3,4,5,6,7,8","180,207.6993883629479,223.62588845306237,207.39355444258194,160,154.3129555700137,155.4936463774381,127.61437836974817","4,3,2,1,4,3,2,1","CORN CROP,CORN CROP,CORN CROP,CORN CROP,WHEAT CROP,WHEAT CROP,WHEAT CROP,WHEAT CROP","180,139.9386240798552,194.28679972074798,188.80448598323292,203.59290295207762,209.41805320835147,219.2203448369296,209.31416546419806","8,7,6,5,4,3,2,1","THISTLE WEED,THISTLE WEED,THISTLE WEED,THISTLE WEED,THISTLE WEED,THISTLE WEED,THISTLE WEED,THISTLE WEED","20,20,20,20,20,20,20,20","20,20,20,20,20,20,20,20","10,10,10,10,10,10,10,10","20,20,20,20,20,20,20,20","0,0,0,0,0,0,0,0","20,20,20,20,20,20,20,20","20,20,20,20,20,20,20,20","20,20,20,20,20,20,20,20","10,10,10,10,10,10,10,10","20,20,20,20,20,20,20,20","0,0,0,0,0,0,0,0","20,20,20,20,20,20,20,20","1,0,1,0,1,1,1,1","1304,343,391,174,895,135,93,15","27.699388362947907,15.92650009011448,-16.232334010480415,30.604370286418305,-5.687044429986294,1.1806908074243934,-27.879268007689927,-18.78955050531497","-40.0613759201448,54.34817564089276,-5.4823137375150575,14.78841696884471,5.825150256273845,9.802291628578143,-9.906179372731534,-15.454116309460295","0","0"
"144","86","text","0","139","1036797","0-0","","","","","","","","","","","","","","","","","","","","","","","","","","","","","","","","","","","","",""
"","","plant-game","0","140","1048477","0-0","","200","120","8","WHEAT CROP","Left","200","190","1","NETTLE WEED","experimental","57","1,2,3,4,5,6,7,8","120,138.36534172044898,148.95601715282402,173.16219581309628,194.311699113848,191.3650427337084,198.49610303308648,211.2171517007982","8,7,6,5,4,3,2,1","WHEAT CROP,WHEAT CROP,WHEAT CROP,WHEAT CROP,WHEAT CROP,WHEAT CROP,WHEAT CROP,WHEAT CROP","190,130,144.8941361318579,153.96417597968772,148.06073722533228,183.49696669371156,177.27164747435012,169.641939700633","1,7,6,5,4,3,2,1","NETTLE WEED,THISTLE WEED,THISTLE WEED,THISTLE WEED,THISTLE WEED,THISTLE WEED,THISTLE WEED,THISTLE WEED","20,20,20,20,20,20,20,20","20,20,20,20,20,20,20,20","10,10,10,10,10,10,10,10","20,20,20,20,20,20,20,20","0,0,0,0,0,0,0,0","20,20,20,20,20,20,20,20","20,20,20,20,20,20,20,20","20,20,20,20,20,20,20,20","10,10,10,10,10,10,10,10","20,20,20,20,20,20,20,20","0,0,0,0,0,0,0,0","20,20,20,20,20,20,20,20","0,1,0,1,0,1,1,1","684,934,270,22,60,432,231,303","18.365341720448992,10.590675432375026,24.20617866027227,21.149503300751707,-2.9466563801395864,7.131060299378079,12.721048667711731,-2.9320326630500473","28.09790664291009,14.894136131857888,9.070039847829827,-5.903438754355458,35.436229468379295,-6.225319219361448,-7.629707773717128,-16.43334329447911","0","0"
"128","86","text","0","141","1048789","0-0","","","","","","","","","","","","","","","","","","","","","","","","","","","","","","","","","","","","",""
"","","plant-game","0","142","1060844","0-0","","200","180","8","WHEAT CROP","Right","200","120","1","NETTLE WEED","experimental","58","1,2,3,4,5,6,7,8","120,130,184.22997987631015,188.8149836456876,168.1545892751218,167.8465348966858,229.89535265160603,235.52384595492114","1,7,6,5,4,3,2,1","NETTLE WEED,THISTLE WEED,THISTLE WEED,THISTLE WEED,THISTLE WEED,THISTLE WEED,THISTLE WEED,THISTLE WEED","180,207.86900841186122,205.6059140808687,195.2782965546649,236.94666144023734,221.38856263399316,251.51569113950234,300.5227043392158","8,7,6,5,4,3,2,1","WHEAT CROP,WHEAT CROP,WHEAT CROP,WHEAT CROP,WHEAT CROP,WHEAT CROP,WHEAT CROP,WHEAT CROP","0,0,0,0,0,0,0,0","20,20,20,20,20,20,20,20","10,10,10,10,10,10,10,10","20,20,20,20,20,20,20,20","20,20,20,20,20,20,20,20","20,20,20,20,20,20,20,20","0,0,0,0,0,0,0,0","20,20,20,20,20,20,20,20","10,10,10,10,10,10,10,10","20,20,20,20,20,20,20,20","20,20,20,20,20,20,20,20","20,20,20,20,20,20,20,20","1,1,0,1,1,1,1,1","492,822,5,933,1223,325,773,213","25.647670622332246,54.22997987631015,4.585003769377425,-20.660394370565797,-0.3080543784360046,62.048817754920236,5.628493303315112,33.317877905600135","27.869008411861216,-2.2630943309925087,-10.327617526203806,41.668364885572444,-15.558098806244189,30.127128505509162,49.007013199713455,45.908429143099106","0","0"
"863","86","text","0","143","1061900","0-0","","","","","","","","","","","","","","","","","","","","","","","","","","","","","","","","","","","","",""
"","","plant-game","0","144","1075932","0-0","","200","190","2","WHEAT CROP","Left","200","120","4","THISTLE WEED","experimental","59","1,2,3,4","190,159.06793147677274,180,218.25412108258843","2,1,2,1","WHEAT CROP,WHEAT CROP,CORN CROP,CORN CROP","120,116.7850732375799,158.28503320342148,186.43481606011915","4,3,2,1","THISTLE WEED,THISTLE WEED,THISTLE WEED,THISTLE WEED","20,20,20,20","20,20,20,20","10,10,10,10","20,20,20,20","0,0,0,0","20,20,20,20","20,20,20,20","20,20,20,20","10,10,10,10","20,20,20,20","0,0,0,0","20,20,20,20","1,0,0,0","612,712,1238,2366","-30.932068523227272,-13.196064860247851,38.25412108258841,40.94575489816734","-3.2149267624201103,41.49995996584158,28.149782856697673,38.52373341882364","0","0"
"1424","86","text","0","145","1077548","0-0","","","","","","","","","","","","","","","","","","","","","","","","","","","","","","","","","","","","",""
"","","plant-game","0","146","1083413","0-0","","200","180","4","CORN CROP","Left","200","160","4","NETTLE WEED","experimental","60","1,2,3,4","180,224.3764353258205,223.01683804315002,253.14918971628484","4,3,2,1","CORN CROP,CORN CROP,CORN CROP,CORN CROP","160,136.09627176753838,142.62633291638247,161.74500311991932","4,3,2,1","NETTLE WEED,NETTLE WEED,NETTLE WEED,NETTLE WEED","20,20,20,20","20,20,20,20","10,10,10,10","20,20,20,20","0,0,0,0","20,20,20,20","20,20,20,20","20,20,20,20","10,10,10,10","20,20,20,20","0,0,0,0","20,20,20,20","1,1,0,1","1564,127,31,7","44.376435325820495,-1.3595972826704705,30.13235167313482,18.605586249572454","-23.903728232461624,6.5300611488440925,19.118670203536862,-23.504923850472967","0","0"
"144","86","text","0","147","1083709","0-0","","","","","","","","","","","","","","","","","","","","","","","","","","","","","","","","","","","","",""
"","","plant-game","0","148","1091310","0-0","","200","160","1","CORN CROP","Right","200","160","2","THISTLE WEED","experimental","61","1,2","160,176.15389424437228","2,1","THISTLE WEED,THISTLE WEED","160,190","1,1","CORN CROP,WHEAT CROP","0,0","20,20","10,10","20,20","20,20","20,20","0,0","20,20","10,10","20,20","20,20","20,20","1,0","324,1623","16.153894244372296,-22.909118200039234","46.534972226162424,20.34689109867118","0","0"
"160","86","text","0","149","1091670","0-0","","","","","","","","","","","","","","","","","","","","","","","","","","","","","","","","","","","","",""
"","","plant-game","0","150","1097246","0-0","","200","190","4","WHEAT CROP","Left","200","120","4","THISTLE WEED","experimental","62","1,2,3,4","190,199.88890467388973,185.11075086785388,198.80041997962053","4,3,2,1","WHEAT CROP,WHEAT CROP,WHEAT CROP,WHEAT CROP","120,110.92391732227424,87.37706185402816,116.75292379321442","4,3,2,1","THISTLE WEED,THISTLE WEED,THISTLE WEED,THISTLE WEED","20,20,20,20","20,20,20,20","10,10,10,10","20,20,20,20","0,0,0,0","20,20,20,20","20,20,20,20","20,20,20,20","10,10,10,10","20,20,20,20","0,0,0,0","20,20,20,20","1,1,1,1","293,214,222,375","9.888904673889712,-14.778153806035839,13.689669111766658,32.81835809227553","-9.07608267772577,-23.54685546824608,29.375861939186265,-15.179336595865141","0","0"
"944","86","text","0","151","1098382","0-0","","","","","","","","","","","","","","","","","","","","","","","","","","","","","","","","","","","","",""
"","","plant-game","0","152","1106294","0-0","","200","180","2","CORN CROP","Left","200","160","1","THISTLE WEED","experimental","63","1,2","180,192.1706053965079","2,1","CORN CROP,CORN CROP","160,190","1,1","THISTLE WEED,NETTLE WEED","20,20","20,20","10,10","20,20","0,0","20,20","20,20","20,20","10,10","20,20","0,0","20,20","0,0","629,1518","12.170605396507915,23.696962352500087","6.051079305592113,-2.879070905647918","0","0"
"704","86","text","0","153","1107198","0-0","","","","","","","","","","","","","","","","","","","","","","","","","","","","","","","","","","","","",""
"","","plant-game","0","154","1121006","0-0","","200","120","2","WHEAT CROP","Left","200","120","8","NETTLE WEED","experimental","64","1,2,3,4,5,6,7,8","120,118.93585969197919,140,167.61782289559062,183.45620016720235,224.99477666577764,241.7361132000275,229.59175983884413","2,1,6,5,4,3,2,1","WHEAT CROP,WHEAT CROP,CORN CROP,CORN CROP,CORN CROP,CORN CROP,CORN CROP,CORN CROP","120,98.89403700798636,93.9598724878818,108.58328152982574,125.00749962182189,91.35306363567986,104.7542363785764,100.59731464343902","8,7,6,5,4,3,2,1","NETTLE WEED,NETTLE WEED,NETTLE WEED,NETTLE WEED,NETTLE WEED,NETTLE WEED,NETTLE WEED,NETTLE WEED","20,20,20,20,20,20,20,20","20,20,20,20,20,20,20,20","10,10,10,10,10,10,10,10","20,20,20,20,20,20,20,20","0,0,0,0,0,0,0,0","20,20,20,20,20,20,20,20","20,20,20,20,20,20,20,20","20,20,20,20,20,20,20,20","10,10,10,10,10,10,10,10","20,20,20,20,20,20,20,20","0,0,0,0,0,0,0,0","20,20,20,20,20,20,20,20","1,1,0,0,0,1,1,1","1021,438,812,327,359,1334,648,616","-1.0641403080208114,10.821824633675863,27.617822895590635,15.838377271611733,41.53857649857528,16.74133653424985,-12.14435336118335,-0.38048531821969017","-21.105962992013644,-4.934164520104564,14.623409041943942,16.424218091996153,-33.654435986142026,13.401172742896527,-4.1569217351373755,-10.226856193288906","0","0"
"184","86","text","0","155","1121382","0-0","","","","","","","","","","","","","","","","","","","","","","","","","","","","","","","","","","","","",""
"","","plant-game","0","156","1134038","0-0","","200","190","4","CORN CROP","Left","200","160","8","NETTLE WEED","experimental","65","1,2,3,4,5,6,7,8","190,213.4475904164927,212.3216510428218,208.30102452777948,160,203.90397071180476,229.90640290977942,247.94722798361514","4,3,2,1,4,3,2,1","CORN CROP,CORN CROP,CORN CROP,CORN CROP,WHEAT CROP,WHEAT CROP,WHEAT CROP,WHEAT CROP","160,182.84486941380771,238.01656373320873,257.6388234083726,264.0985997782568,274.78655266471714,300.34437959713784,311.94972918717326","8,7,6,5,4,3,2,1","NETTLE WEED,NETTLE WEED,NETTLE WEED,NETTLE WEED,NETTLE WEED,NETTLE WEED,NETTLE WEED,NETTLE WEED","20,20,20,20,20,20,20,20","20,20,20,20,20,20,20,20","10,10,10,10,10,10,10,10","20,20,20,20,20,20,20,20","0,0,0,0,0,0,0,0","20,20,20,20,20,20,20,20","20,20,20,20,20,20,20,20","20,20,20,20,20,20,20,20","10,10,10,10,10,10,10,10","20,20,20,20,20,20,20,20","0,0,0,0,0,0,0,0","20,20,20,20,20,20,20,20","0,0,1,1,0,0,0,1","565,239,2686,127,1119,813,357,152","23.447590416492677,-1.1259393736708887,-4.020626515042311,-11.190917334684931,43.90397071180475,26.002432197974656,18.04082507383572,18.11036163184776","22.84486941380772,55.17169431940103,19.622259675163903,6.4597763698841915,10.687952886460334,25.557826932420728,11.605349590035425,-9.246094531566861","0","0"
"160","86","text","0","157","1134478","0-0","","","","","","","","","","","","","","","","","","","","","","","","","","","","","","","","","","","","",""
"","","plant-game","0","158","1146014","0-0","","200","120","8","CORN CROP","Right","200","180","1","NETTLE WEED","experimental","66","1,2,3,4,5,6,7,8","180,130,172.77883639316036,180.51516240121796,210.24651707397288,247.1132654695929,280.0361560679661,280.65302389412153","1,7,6,5,4,3,2,1","NETTLE WEED,THISTLE WEED,THISTLE WEED,THISTLE WEED,THISTLE WEED,THISTLE WEED,THISTLE WEED,THISTLE WEED","120,131.18412978815562,138.05364727134594,160.4024318490512,163.58720633864456,184.1664838358254,215.7518140294227,268.61909234077496","8,7,6,5,4,3,2,1","CORN CROP,CORN CROP,CORN CROP,CORN CROP,CORN CROP,CORN CROP,CORN CROP,CORN CROP","0,0,0,0,0,0,0,0","20,20,20,20,20,20,20,20","10,10,10,10,10,10,10,10","20,20,20,20,20,20,20,20","20,20,20,20,20,20,20,20","20,20,20,20,20,20,20,20","0,0,0,0,0,0,0,0","20,20,20,20,20,20,20,20","10,10,10,10,10,10,10,10","20,20,20,20,20,20,20,20","20,20,20,20,20,20,20,20","20,20,20,20,20,20,20,20","0,1,1,1,1,1,1,0","598,310,614,239,687,127,133,495","32.87836076935187,42.77883639316035,7.736326008057592,29.731354672754904,36.86674839562003,32.9228905983732,0.6168678261554525,-26.328889324943834","11.184129788155603,6.869517483190318,22.348784577705253,3.1847744895933694,20.579277497180843,31.5853301935973,52.86727831135227,-34.015140751702184","0","0"
"104","86","text","0","159","1146278","0-0","","","","","","","","","","","","","","","","","","","","","","","","","","","","","","","","","","","","",""
"","","plant-game","0","160","1150365","0-0","","200","160","1","WHEAT CROP","Left","200","180","1","NETTLE WEED","experimental","67","1","160","1","WHEAT CROP","180","1","NETTLE WEED","20","20","10","20","0","20","20","20","10","20","0","20","1","621","-0.41627654490684124","0.5268222147253222","0","0"
"560","86","text","0","161","1151117","0-0","","","","","","","","","","","","","","","","","","","","","","","","","","","","","","","","","","","","",""
"","","plant-game","0","162","1162528","0-0","","200","180","8","WHEAT CROP","Left","200","160","1","NETTLE WEED","experimental","68","1,2,3,4,5,6,7,8","180,196.790294027879,184.96658812251312,141.38873002254653,143.77879678176106,159.4057478791846,175.2554473264017,181.5199355984267","8,7,6,5,4,3,2,1","WHEAT CROP,WHEAT CROP,WHEAT CROP,WHEAT CROP,WHEAT CROP,WHEAT CROP,WHEAT CROP,WHEAT CROP","160,130,155.91038156283838,127.05923365794102,118.24615566704523,110.14449481226575,128.43386376453196,97.8890804708524","1,7,6,5,4,3,2,1","NETTLE WEED,THISTLE WEED,THISTLE WEED,THISTLE WEED,THISTLE WEED,THISTLE WEED,THISTLE WEED,THISTLE WEED","20,20,20,20,20,20,20,20","20,20,20,20,20,20,20,20","10,10,10,10,10,10,10,10","20,20,20,20,20,20,20,20","0,0,0,0,0,0,0,0","20,20,20,20,20,20,20,20","20,20,20,20,20,20,20,20","20,20,20,20,20,20,20,20","10,10,10,10,10,10,10,10","20,20,20,20,20,20,20,20","0,0,0,0,0,0,0,0","20,20,20,20,20,20,20,20","1,1,1,1,1,1,1,1","869,1198,460,511,1311,95,87,695","16.79029402787901,-11.82370590536589,-43.57785809996659,2.3900667592145473,15.626951097423534,15.849699447217118,6.264488272024992,16.871560437728238","7.267342439949501,25.910381562838374,-28.85114790489736,-8.813077990895797,-8.10166085477948,18.28936895226622,-30.54478329367955,-1.554988112545561","0","0"
"136","86","text","0","163","1162833","0-0","","","","","","","","","","","","","","","","","","","","","","","","","","","","","","","","","","","","",""
"","","plant-game","0","164","1170417","0-0","","200","160","2","WHEAT CROP","Left","200","180","1","NETTLE WEED","experimental","69","1,2","160,166.86942763141786","2,1","WHEAT CROP,WHEAT CROP","180,190","1,1","NETTLE WEED,THISTLE WEED","20,20","20,20","10,10","20,20","0,0","20,20","20,20","20,20","10,10","20,20","0,0","20,20","1,1","509,1135","6.869427631417851,-9.777747096276556","7.445194472627099,20.96089899710611","0","0"
"544","86","text","0","165","1171185","0-0","","","","","","","","","","","","","","","","","","","","","","","","","","","","","","","","","","","","",""
"","","plant-game","0","166","1184184","0-0","","200","120","2","WHEAT CROP","Right","200","160","8","THISTLE WEED","experimental","70","1,2,3,4,5,6,7,8","160,181.93215321651252,145.9318588801114,160.70649767468836,186.50282938790937,232.71944541701788,275.6842189194301,312.14473176479896","8,7,6,5,4,3,2,1","THISTLE WEED,THISTLE WEED,THISTLE WEED,THISTLE WEED,THISTLE WEED,THISTLE WEED,THISTLE WEED,THISTLE WEED","120,115.730995858517,140,169.27152844199426,198.16920457346868,186.08699478211736,218.2396721466495,223.3531112784277","2,1,6,5,4,3,2,1","WHEAT CROP,WHEAT CROP,CORN CROP,CORN CROP,CORN CROP,CORN CROP,CORN CROP,CORN CROP","0,0,0,0,0,0,0,0","20,20,20,20,20,20,20,20","10,10,10,10,10,10,10,10","20,20,20,20,20,20,20,20","20,20,20,20,20,20,20,20","20,20,20,20,20,20,20,20","0,0,0,0,0,0,0,0","20,20,20,20,20,20,20,20","10,10,10,10,10,10,10,10","20,20,20,20,20,20,20,20","20,20,20,20,20,20,20,20","20,20,20,20,20,20,20,20","0,0,1,1,1,1,1,1","757,191,1444,2103,773,1502,183,399","21.932153216512514,-36.00029433640112,14.77463879457697,25.796331713221004,46.21661602910851,42.96477350241226,36.460512845368825,-4.200144631283443","-4.269004141482991,28.8672700576547,29.271528441994267,28.897676131474423,-12.082209791351318,32.152677364532146,5.113439131778186,12.78702569748109","0","0"
"96","86","text","0","167","1184448","0-0","","","","","","","","","","","","","","","","","","","","","","","","","","","","","","","","","","","","",""
"","","plant-game","0","168","1193009","0-0","","200","160","2","WHEAT CROP","Left","200","160","1","NETTLE WEED","experimental","71","1,2","160,132.66610774184414","2,1","WHEAT CROP,WHEAT CROP","160,190","1,1","NETTLE WEED,THISTLE WEED","20,20","20,20","10,10","20,20","0,0","20,20","20,20","20,20","10,10","20,20","0,0","20,20","1,1","739,2383","-27.33389225815585,4.289762463937495","-17.19787791763362,-8.236206439686752","0","0"
"176","86","text","0","169","1193337","0-0","","","","","","","","","","","","","","","","","","","","","","","","","","","","","","","","","","","","",""
"","","plant-game","0","170","1200640","0-0","","200","160","2","WHEAT CROP","Left","200","160","4","THISTLE WEED","experimental","72","1,2,3,4","160,169.69356473336686,180,160.63246194273282","2,1,2,1","WHEAT CROP,WHEAT CROP,CORN CROP,CORN CROP","160,155.2465369640689,162.67161639040702,172.59396543238955","4,3,2,1","THISTLE WEED,THISTLE WEED,THISTLE WEED,THISTLE WEED","20,20,20,20","20,20,20,20","10,10,10,10","20,20,20,20","0,0,0,0","20,20,20,20","20,20,20,20","20,20,20,20","10,10,10,10","20,20,20,20","0,0,0,0","20,20,20,20","1,1,1,1","516,327,812,167","9.693564733366854,31.369607733303123,-19.36753805726718,14.162902730382438","-4.753463035931112,7.425079426338117,9.922349041982514,-12.88283297807006","0","0"
"1944","86","text","0","171","1202816","0-0","","","","","","","","","","","","","","","","","","","","","","","","","","","","","","","","","","","","",""
"","","plant-game","0","172","1213155","0-0","","200","120","2","CORN CROP","Right","200","120","1","THISTLE WEED","experimental","73","1,2","120,190","1,1","THISTLE WEED,NETTLE WEED","120,112.9321816320429","2,1","CORN CROP,CORN CROP","0,0","20,20","10,10","20,20","20,20","20,20","0,0","20,20","10,10","20,20","20,20","20,20","1,0","774,2670","9.957526223121501,-26.50773175813573","-7.067818367957109,23.24015240582512","0","0"
"759","86","text","0","173","1214148","0-0","","","","","","","","","","","","","","","","","","","","","","","","","","","","","","","","","","","","",""
"","","plant-game","0","174","1229323","0-0","","200","120","2","CORN CROP","Left","200","180","8","NETTLE WEED","experimental","74","1,2,3,4,5,6,7,8","120,144.39221983686014,140,145.63640716408008,123.46378136158168,143.74591618244042,152.36539823067153,152.93116365976522","2,1,6,5,4,3,2,1","CORN CROP,CORN CROP,WHEAT CROP,WHEAT CROP,WHEAT CROP,WHEAT CROP,WHEAT CROP,WHEAT CROP","180,195.3023993875128,183.38139704557977,201.37777352378734,198.80545350816917,248.59456978919593,284.7198941798834,294.952756805695","8,7,6,5,4,3,2,1","NETTLE WEED,NETTLE WEED,NETTLE WEED,NETTLE WEED,NETTLE WEED,NETTLE WEED,NETTLE WEED,NETTLE WEED","20,20,20,20,20,20,20,20","20,20,20,20,20,20,20,20","10,10,10,10,10,10,10,10","20,20,20,20,20,20,20,20","0,0,0,0,0,0,0,0","20,20,20,20,20,20,20,20","20,20,20,20,20,20,20,20","20,20,20,20,20,20,20,20","10,10,10,10,10,10,10,10","20,20,20,20,20,20,20,20","0,0,0,0,0,0,0,0","20,20,20,20,20,20,20,20","0,1,1,0,0,0,1,1","1363,1398,2663,1037,453,648,327,327","24.39221983686012,-15.388951846345606,5.6364071640800875,-22.172625802498402,20.282134820858754,8.619482048231111,0.5657654290936766,-7.565069082688525","15.302399387512796,-11.921002341933029,17.996376478207576,-2.5723200156181747,49.78911628102678,36.125324390687474,10.232862625811581,4.2921613575795465","0","0"
"119","86","text","0","175","1229619","0-0","","","","","","","","","","","","","","","","","","","","","","","","","","","","","","","","","","","","",""
"","","plant-game","0","176","1236339","0-0","","200","190","1","WHEAT CROP","Right","200","120","1","THISTLE WEED","experimental","75","1","120","1","THISTLE WEED","190","1","WHEAT CROP","0","20","10","20","20","20","0","20","10","20","20","20","0","1453","30.903604296698127","15.675498518089409","0","0"
"136","86","text","0","177","1236619","0-0","","","","","","","","","","","","","","","","","","","","","","","","","","","","","","","","","","","","",""
"","","plant-game","0","178","1247499","0-0","","200","180","8","WHEAT CROP","Right","200","180","1","NETTLE WEED","experimental","76","1,2,3,4,5,6,7,8","180,130,111.85433214264616,111.40393851475078,184.6934394509217,177.31517671084583,167.96285460990833,186.5050743932693","1,7,6,5,4,3,2,1","NETTLE WEED,THISTLE WEED,THISTLE WEED,THISTLE WEED,THISTLE WEED,THISTLE WEED,THISTLE WEED,THISTLE WEED","180,207.32314949468903,212.75898350980262,230.47728881173518,235.3868283705183,229.97898616412516,230.47845107852234,240.25675871914478","8,7,6,5,4,3,2,1","WHEAT CROP,WHEAT CROP,WHEAT CROP,WHEAT CROP,WHEAT CROP,WHEAT CROP,WHEAT CROP,WHEAT CROP","0,0,0,0,0,0,0,0","20,20,20,20,20,20,20,20","10,10,10,10,10,10,10,10","20,20,20,20,20,20,20,20","20,20,20,20,20,20,20,20","20,20,20,20,20,20,20,20","0,0,0,0,0,0,0,0","20,20,20,20,20,20,20,20","10,10,10,10,10,10,10,10","20,20,20,20,20,20,20,20","20,20,20,20,20,20,20,20","20,20,20,20,20,20,20,20","1,0,0,0,0,1,1,1","661,2646,142,158,158,334,255,127","52.74548453871534,-18.145667857353843,-0.45039362789538656,73.2895009361709,-7.37826274007586,-9.352322100937513,18.542219783360952,51.14864137162217","27.323149494689027,5.435834015113579,17.71830530193257,4.909539558783121,-5.407842206393136,0.49946491439718343,9.778307640622458,33.552788501344445","0","0"
"664","86","text","0","179","1248371","0-0","","","","","","","","","","","","","","","","","","","","","","","","","","","","","","","","","","","","",""
"","","plant-game","0","180","1258788","0-0","","200","190","8","WHEAT CROP","Left","200","120","8","NETTLE WEED","experimental","77","1,2,3,4,5,6,7,8","190,185.97270646197592,182.97337763372317,209.45844518106085,243.18911271471197,270.1724093138856,309.1243556287719,341.6275198991966","8,7,6,5,4,3,2,1","WHEAT CROP,WHEAT CROP,WHEAT CROP,WHEAT CROP,WHEAT CROP,WHEAT CROP,WHEAT CROP,WHEAT CROP","120,121.83154067263081,181.60706673862248,171.9593757140826,179.012584211301,219.61431670667764,219.74427982564663,224.56209399689243","8,7,6,5,4,3,2,1","NETTLE WEED,NETTLE WEED,NETTLE WEED,NETTLE WEED,NETTLE WEED,NETTLE WEED,NETTLE WEED,NETTLE WEED","20,20,20,20,20,20,20,20","20,20,20,20,20,20,20,20","10,10,10,10,10,10,10,10","20,20,20,20,20,20,20,20","0,0,0,0,0,0,0,0","20,20,20,20,20,20,20,20","20,20,20,20,20,20,20,20","20,20,20,20,20,20,20,20","10,10,10,10,10,10,10,10","20,20,20,20,20,20,20,20","0,0,0,0,0,0,0,0","20,20,20,20,20,20,20,20","0,0,0,0,0,0,0,0","1165,311,430,1927,423,783,199,215","-4.027293538024075,-2.99932882825275,26.485067547337678,33.73066753365111,26.983296599173684,38.9519463148863,32.50316427042467,22.551764055572754","1.8315406726308012,59.77552606599168,-9.647691024539892,7.0532084972184155,40.60173249537662,0.1299631189689876,4.817814171245814,-7.725040480931263","0","0"
"479","86","text","0","181","1259467","0-0","","","","","","","","","","","","","","","","","","","","","","","","","","","","","","","","","","","","",""
"","","plant-game","0","182","1271531","0-0","","200","180","8","WHEAT CROP","Left","200","180","2","NETTLE WEED","experimental","78","1,2,3,4,5,6,7,8","180,233.4085099636245,267.8460092698054,267.8813353675609,251.64204405069,225.62346145515812,249.59819748197998,284.5089045836","8,7,6,5,4,3,2,1","WHEAT CROP,WHEAT CROP,WHEAT CROP,WHEAT CROP,WHEAT CROP,WHEAT CROP,WHEAT CROP,WHEAT CROP","180,212.32031822600624,140,173.2664349106957,188.99275304371847,198.42706659940876,201.99414024029963,210.821193179903","2,1,6,5,4,3,2,1","NETTLE WEED,NETTLE WEED,THISTLE WEED,THISTLE WEED,THISTLE WEED,THISTLE WEED,THISTLE WEED,THISTLE WEED","20,20,20,20,20,20,20,20","20,20,20,20,20,20,20,20","10,10,10,10,10,10,10,10","20,20,20,20,20,20,20,20","0,0,0,0,0,0,0,0","20,20,20,20,20,20,20,20","20,20,20,20,20,20,20,20","20,20,20,20,20,20,20,20","10,10,10,10,10,10,10,10","20,20,20,20,20,20,20,20","0,0,0,0,0,0,0,0","20,20,20,20,20,20,20,20","0,0,0,1,1,1,1,1","1013,878,933,781,485,1181,231,135","53.40850996362452,34.437499306180875,0.035326097755500996,-16.239291316870876,-26.018582595531893,23.97473602682185,34.910707101619984,45.60817224810644","32.32031822600622,43.78685723410035,33.26643491069571,15.726318133022781,9.434313555690286,3.5670736408908765,8.827052939603352,-3.214036617208562","0","0"
"776","86","text","0","183","1272523","0-0","","","","","","","","","","","","","","","","","","","","","","","","","","","","","","","","","","","","",""
"","","plant-game","0","184","1276046","0-0","","200","180","1","CORN CROP","Right","200","180","1","NETTLE WEED","experimental","79","1","180","1","NETTLE WEED","180","1","CORN CROP","0","20","10","20","20","20","0","20","10","20","20","20","1","572","24.812465848721832","31.29326550403386","0","0"
"504","86","text","0","185","1276758","0-0","","","","","","","","","","","","","","","","","","","","","","","","","","","","","","","","","","","","",""
"","","plant-game","0","186","1285214","0-0","","200","190","1","WHEAT CROP","Left","200","160","1","NETTLE WEED","experimental","80","1","190","1","WHEAT CROP","160","1","NETTLE WEED","20","20","10","20","0","20","20","20","10","20","0","20","0","901","-9.165003393350219","11.438251758553138","0","0"
