"rt","key_press","trial_type","trial_index","trial_index_global","time_elapsed","internal_chunk_id","responses","experimental_goal_height","experimental_start_height","experimental_weeks_total","experimental_crop_type","experimental_crop_side","fixed_goal_height","fixed_start_height","fixed_weeks_total","fixed_crop_type","trial_kind","trial_number","stage","left_current_height","left_weeks_remaining","left_crop_type","right_current_height","right_weeks_remaining","right_crop_type","mean_left_growth_given_left","sd_left_growth_given_left","mean_left_growth_given_middle","sd_left_growth_given_middle","mean_left_growth_given_right","sd_left_growth_given_right","mean_right_growth_given_left","sd_right_growth_given_left","mean_right_growth_given_middle","sd_right_growth_given_middle","mean_right_growth_given_right","sd_right_growth_given_right","response","response_time","left_growth","right_growth","other_key_pressed","mouse_clicked"
"4570849","87","text","0","0","4570959","0-0","","","","","","","","","","","","","","","","","","","","","","","","","","","","","","","","","","","","",""
"6563","","survey-text","0","1","4578566","0-0","{""Q0"":""20""}","","","","","","","","","","","","","","","","","","","","","","","","","","","","","","","","","","","",""
"4048","86","text","0","2","4188","0-0","","","","","","","","","","","","","","","","","","","","","","","","","","","","","","","","","","","","",""
"","","plant-game","0","3","92321","0-0","","200","120","8","CORN CROP","Right","200","120","8","THISTLE WEED","practice","1","1,2,3,4,5,6,7,8","120,127.32427677873046,116.1932062288803,130.4705426423264,166.2058175188005,200.75085286432932,216.84372648730724,217.17470918576174","8,7,6,5,4,3,2,1","THISTLE WEED,THISTLE WEED,THISTLE WEED,THISTLE WEED,THISTLE WEED,THISTLE WEED,THISTLE WEED,THISTLE WEED","120,130.41665833649066,143.85735539326873,196.15728933698384,160.74429874360595,138.48583036665406,135.07612361700168,114.56580674449872","8,7,6,5,4,3,2,1","CORN CROP,CORN CROP,CORN CROP,CORN CROP,CORN CROP,CORN CROP,CORN CROP,CORN CROP","0,0,0,0,0,0,0,0","20,20,20,20,20,20,20,20","10,10,10,10,10,10,10,10","20,20,20,20,20,20,20,20","20,20,20,20,20,20,20,20","20,20,20,20,20,20,20,20","0,0,0,0,0,0,0,0","20,20,20,20,20,20,20,20","10,10,10,10,10,10,10,10","20,20,20,20,20,20,20,20","20,20,20,20,20,20,20,20","20,20,20,20,20,20,20,20","1,1,1,1,0,1,0,1","17247,6589,1817,1627,4055,3313,2212,3244","7.324276778730468,-11.131070549850165,14.277336413446095,35.73527487647411,34.54503534552882,16.092873622977923,0.33098269845450085,51.148313049901596","10.416658336490663,13.440697056778081,52.2999339437151,-35.41299059337787,-22.258468376951885,-3.4097067496523756,-20.51031687250297,-19.83058920845974","0","1"
"1156","86","text","0","4","93586","0-0","","","","","","","","","","","","","","","","","","","","","","","","","","","","","","","","","","","","",""
"","","plant-game","0","5","138532","0-0","","200","160","4","CORN CROP","Left","200","160","4","NETTLE WEED","practice","2","1,2,3,4","160,181.91220909636186,161.27360621263028,180.88679307021695","4,3,2,1","CORN CROP,CORN CROP,CORN CROP,CORN CROP","160,185.24940098930549,160.55125732772538,166.60586010546382","4,3,2,1","NETTLE WEED,NETTLE WEED,NETTLE WEED,NETTLE WEED","20,20,20,20","20,20,20,20","10,10,10,10","20,20,20,20","0,0,0,0","20,20,20,20","20,20,20,20","20,20,20,20","10,10,10,10","20,20,20,20","0,0,0,0","20,20,20,20","0,1,0,0","9502,2163,3831,1926","21.91220909636186,-20.638602883731586,19.613186857586673,39.248812232769026","25.249400989305485,-24.6981436615801,6.054602777738447,3.090136769261896","0","0"
"2357","86","text","0","6","140989","0-0","","","","","","","","","","","","","","","","","","","","","","","","","","","","","","","","","","","","",""
"","","plant-game","0","7","174232","0-0","","200","180","2","CORN CROP","Left","200","180","2","NETTLE WEED","practice","3","1,2","180,180.77242369316258","2,1","CORN CROP,CORN CROP","180,153.19350964118266","2,1","NETTLE WEED,NETTLE WEED","20,20","20,20","10,10","20,20","0,0","20,20","20,20","20,20","10,10","20,20","0,0","20,20","1,0","5169,1731","0.7724236931625861,-24.002660975734898","-26.806490358817342,38.800527596385045","0","0"
"2704","86","text","0","8","177029","0-0","","","","","","","","","","","","","","","","","","","","","","","","","","","","","","","","","","","","",""
"","","plant-game","0","9","210238","0-0","","200","190","1","WHEAT CROP","Right","200","190","1","THISTLE WEED","practice","4","1","190","1","THISTLE WEED","190","1","WHEAT CROP","0","20","10","20","20","20","0","20","10","20","20","20","0","12091","-23.87957451353117","4.620614819864221","0","0"
"1203","86","text","0","10","211535","0-0","","","","","","","","","","","","","","","","","","","","","","","","","","","","","","","","","","","","",""
"","","plant-game","0","11","262907","0-0","","200","120","8","CORN CROP","Right","200","160","8","THISTLE WEED","practice","5","1,2,3,4,5,6,7,8","160,177.35334217660528,217.41475065503727,222.53025290572893,240.38866172594567,215.73817420730862,218.46359546306743,243.81256561456354","8,7,6,5,4,3,2,1","THISTLE WEED,THISTLE WEED,THISTLE WEED,THISTLE WEED,THISTLE WEED,THISTLE WEED,THISTLE WEED,THISTLE WEED","120,134.15673729239987,190.61723255163974,222.50643146498388,225.5536607288887,232.09066861551935,279.5424192996102,271.3488015087438","8,7,6,5,4,3,2,1","CORN CROP,CORN CROP,CORN CROP,CORN CROP,CORN CROP,CORN CROP,CORN CROP,CORN CROP","0,0,0,0,0,0,0,0","20,20,20,20,20,20,20,20","10,10,10,10,10,10,10,10","20,20,20,20,20,20,20,20","20,20,20,20,20,20,20,20","20,20,20,20,20,20,20,20","0,0,0,0,0,0,0,0","20,20,20,20,20,20,20,20","10,10,10,10,10,10,10,10","20,20,20,20,20,20,20,20","20,20,20,20,20,20,20,20","20,20,20,20,20,20,20,20","0,1,1,1,0,0,1,0","2596,3703,8534,2638,2823,2222,3611,1272","17.353342176605274,40.06140847843197,5.115502250691652,17.858408820216724,-24.650487518637046,2.72542125575883,25.348970151496104,33.435419512844604","14.156737292399866,56.46049525923986,31.88919891334413,3.0472292639048106,6.537007886630651,47.45175068409083,-8.193617790866398,-5.5238264487255195","0","2"
"900","86","text","0","12","263869","0-0","","","","","","","","","","","","","","","","","","","","","","","","","","","","","","","","","","","","",""
"","","plant-game","0","13","292774","0-0","","200","180","4","CORN CROP","Right","200","160","4","NETTLE WEED","practice","6","1,2,3,4","160,166.73416811702356,175.97585557479638,172.89088071443865","4,3,2,1","NETTLE WEED,NETTLE WEED,NETTLE WEED,NETTLE WEED","180,206.1484828362573,206.13837610564698,238.85566779234406","4,3,2,1","CORN CROP,CORN CROP,CORN CROP,CORN CROP","0,0,0,0","20,20,20,20","10,10,10,10","20,20,20,20","20,20,20,20","20,20,20,20","0,0,0,0","20,20,20,20","10,10,10,10","20,20,20,20","20,20,20,20","20,20,20,20","0,1,0,0","5158,1897,1746,6816","6.734168117023568,9.241687457772827,-3.0849748603577325,13.528295790004933","26.14848283625731,-0.010106730610313974,32.71729168669709,14.483002537425724","0","0"
"2128","86","text","0","14","294995","0-0","","","","","","","","","","","","","","","","","","","","","","","","","","","","","","","","","","","","",""
"","","plant-game","0","15","310776","0-0","","200","180","2","WHEAT CROP","Right","200","190","2","THISTLE WEED","practice","7","1,2","190,225.50369907700264","2,1","THISTLE WEED,THISTLE WEED","180,190.02446906069417","2,1","WHEAT CROP,WHEAT CROP","0,0","20,20","10,10","20,20","20,20","20,20","0,0","20,20","10,10","20,20","20,20","20,20","0,1","4647,3739","35.50369907700263,7.695426924102049","10.024469060694162,13.86771175854606","0","0"
"293","86","text","0","16","311159","0-0","","","","","","","","","","","","","","","","","","","","","","","","","","","","","","","","","","","","",""
"","","plant-game","0","17","365508","0-0","","200","120","4","WHEAT CROP","Right","200","120","8","NETTLE WEED","practice","8","1,2,3,4,5,6,7,8","120,139.26866803183052,154.7042976243993,147.88930729272894,180.80970979769648,165.59541533742947,154.31232072768267,197.26500158531508","8,7,6,5,4,3,2,1","NETTLE WEED,NETTLE WEED,NETTLE WEED,NETTLE WEED,NETTLE WEED,NETTLE WEED,NETTLE WEED,NETTLE WEED","120,161.36376886295054,184.9919106953178,208.52766685677048,160,172.00474387030542,208.73907606806588,201.20115113597944","4,3,2,1,4,3,2,1","WHEAT CROP,WHEAT CROP,WHEAT CROP,WHEAT CROP,CORN CROP,CORN CROP,CORN CROP,CORN CROP","0,0,0,0,0,0,0,0","20,20,20,20,20,20,20,20","10,10,10,10,10,10,10,10","20,20,20,20,20,20,20,20","20,20,20,20,20,20,20,20","20,20,20,20,20,20,20,20","0,0,0,0,0,0,0,0","20,20,20,20,20,20,20,20","10,10,10,10,10,10,10,10","20,20,20,20,20,20,20,20","20,20,20,20,20,20,20,20","20,20,20,20,20,20,20,20","1,1,1,1,0,1,1,0","1256,2128,707,1472,4528,2012,3161,3475","19.268668031830526,15.43562959256878,-6.8149903316703515,32.92040250496755,-15.214294460267022,-11.28309460974679,42.95268085763239,5.844742527835967","41.36376886295053,23.62814183236729,23.535756161452657,31.561202011355682,12.004743870305418,36.734332197760466,-7.537924932086426,8.10195740520937","0","0"
"828","86","text","0","18","366406","0-0","","","","","","","","","","","","","","","","","","","","","","","","","","","","","","","","","","","","",""
"","","plant-game","0","19","404621","0-0","","200","160","4","WHEAT CROP","Right","200","160","2","THISTLE WEED","practice","9","1,2,3,4","160,135.20438499140556,180,241.73163523738253","2,1,2,1","THISTLE WEED,THISTLE WEED,NETTLE WEED,NETTLE WEED","160,163.46156986752854,175.73663500847172,168.69660475279548","4,3,2,1","WHEAT CROP,WHEAT CROP,WHEAT CROP,WHEAT CROP","0,0,0,0","20,20,20,20","10,10,10,10","20,20,20,20","20,20,20,20","20,20,20,20","0,0,0,0","20,20,20,20","10,10,10,10","20,20,20,20","20,20,20,20","20,20,20,20","0,0,0,1","1056,2667,2548,1636","-24.795615008594453,-35.99254060926032,61.731635237382534,11.070467857561173","3.461569867528535,12.275065140943175,-7.040030255676254,17.51845763456585","0","0"
"658","86","text","0","20","405369","0-0","","","","","","","","","","","","","","","","","","","","","","","","","","","","","","","","","","","","",""
"","","plant-game","0","21","429127","0-0","","200","180","2","CORN CROP","Right","200","180","1","NETTLE WEED","practice","10","1,2","180,190","1,1","NETTLE WEED,THISTLE WEED","180,184.05959730698663","2,1","CORN CROP,CORN CROP","0,0","20,20","10,10","20,20","20,20","20,20","0,0","20,20","10,10","20,20","20,20","20,20","0,1","2822,3159","16.93924615987861,25.283027224219317","4.05959730698663,28.679459333354423","0","0"
"1439","86","text","0","22","430697","0-0","","","","","","","","","","","","","","","","","","","","","","","","","","","","","","","","","","","","",""
"","","plant-game","0","23","479949","0-0","","200","120","8","CORN CROP","Left","200","160","4","THISTLE WEED","practice","11","1,2,3,4,5,6,7,8","120,164.7436183397893,150.4780850313561,172.35736339732688,151.27772894229145,146.89382762170897,151.70085058148544,174.6373217990693","8,7,6,5,4,3,2,1","CORN CROP,CORN CROP,CORN CROP,CORN CROP,CORN CROP,CORN CROP,CORN CROP,CORN CROP","160,187.1225614699771,137.48700057226552,167.86027232831884,160,173.28492737971854,242.04205214668013,267.7207036898419","4,3,2,1,4,3,2,1","THISTLE WEED,THISTLE WEED,THISTLE WEED,THISTLE WEED,NETTLE WEED,NETTLE WEED,NETTLE WEED,NETTLE WEED","20,20,20,20,20,20,20,20","20,20,20,20,20,20,20,20","10,10,10,10,10,10,10,10","20,20,20,20,20,20,20,20","0,0,0,0,0,0,0,0","20,20,20,20,20,20,20,20","20,20,20,20,20,20,20,20","20,20,20,20,20,20,20,20","10,10,10,10,10,10,10,10","20,20,20,20,20,20,20,20","0,0,0,0,0,0,0,0","20,20,20,20,20,20,20,20","0,1,0,1,1,0,0,0","4147,5775,2103,1617,5431,5286,4565,696","44.74361833978928,-14.265533308433183,21.879278365970762,-21.079634455035432,-4.383901320582483,4.807022959776468,22.936471217583865,5.356701443114888","27.122561469977093,-49.635560897711585,30.373271756053335,11.331304087047938,13.284927379718551,68.7571247669616,25.678651543161784,10.331665069732939","0","0"
"2184","86","text","0","24","482223","0-0","","","","","","","","","","","","","","","","","","","","","","","","","","","","","","","","","","","","",""
"","","plant-game","0","25","516535","0-0","","200","180","2","CORN CROP","Right","200","160","4","NETTLE WEED","practice","12","1,2,3,4","160,196.96703653544017,280.03987052318143,272.6543347695304","4,3,2,1","NETTLE WEED,NETTLE WEED,NETTLE WEED,NETTLE WEED","180,205.2910624951648,180,137.26975351577835","2,1,2,1","CORN CROP,CORN CROP,WHEAT CROP,WHEAT CROP","0,0,0,0","20,20,20,20","10,10,10,10","20,20,20,20","20,20,20,20","20,20,20,20","0,0,0,0","20,20,20,20","10,10,10,10","20,20,20,20","20,20,20,20","20,20,20,20","1,1,0,1","6976,1505,3126,1969","36.96703653544016,83.07283398774123,-7.385535753651004,1.593311500574245","25.29106249516478,36.037802708044296,-42.730246484221645,19.043793245386528","0","0"
"2840","86","text","0","26","519484","0-0","","","","","","","","","","","","","","","","","","","","","","","","","","","","","","","","","","","","",""
"14515","86","text","0","27","535164","0-0","","","","","","","","","","","","","","","","","","","","","","","","","","","","","","","","","","","","",""
"","","plant-game","0","28","579228","0-0","","200","160","1","WHEAT CROP","Right","200","160","2","NETTLE WEED","experimental","1","1,2","160,169.309229547197","2,1","NETTLE WEED,NETTLE WEED","160,190","1,1","WHEAT CROP,CORN CROP","0,0","20,20","10,10","20,20","20,20","20,20","0,0","20,20","10,10","20,20","20,20","20,20","1,0","22299,9248","9.309229547196978,-19.942832072709834","22.587459959102606,20.894161693917482","0","0"
"787","86","text","0","29","580135","0-0","","","","","","","","","","","","","","","","","","","","","","","","","","","","","","","","","","","","",""
"","","plant-game","0","30","607373","0-0","","200","160","2","CORN CROP","Left","200","120","1","THISTLE WEED","experimental","2","1,2","160,180.76920750327446","2,1","CORN CROP,CORN CROP","120,190","1,1","THISTLE WEED,NETTLE WEED","20,20","20,20","10,10","20,20","0,0","20,20","20,20","20,20","10,10","20,20","0,0","20,20","0,1","7705,8351","20.769207503274473,44.82371789689864","4.179370662544642,6.762342345994924","0","0"
"1301","86","text","0","31","608764","0-0","","","","","","","","","","","","","","","","","","","","","","","","","","","","","","","","","","","","",""
"","","plant-game","0","32","640522","0-0","","200","160","2","CORN CROP","Right","200","190","1","NETTLE WEED","experimental","3","1,2","190,190","1,1","NETTLE WEED,THISTLE WEED","160,193.67990191122837","2,1","CORN CROP,CORN CROP","0,0","20,20","10,10","20,20","20,20","20,20","0,0","20,20","10,10","20,20","20,20","20,20","1,0","6155,16079","9.042099066351179,17.016812588846847","33.67990191122837,-24.783537296456633","0","0"
"1137","86","text","0","33","641829","0-0","","","","","","","","","","","","","","","","","","","","","","","","","","","","","","","","","","","","",""
"","","plant-game","0","34","677131","0-0","","200","160","2","CORN CROP","Left","200","120","4","THISTLE WEED","experimental","4","1,2,3,4","160,137.07853448505728,180,235.87233899048144","2,1,2,1","CORN CROP,CORN CROP,WHEAT CROP,WHEAT CROP","120,100.77742710865081,141.38274055602412,160.76754293613925","4,3,2,1","THISTLE WEED,THISTLE WEED,THISTLE WEED,THISTLE WEED","20,20,20,20","20,20,20,20","10,10,10,10","20,20,20,20","0,0,0,0","20,20,20,20","20,20,20,20","20,20,20,20","10,10,10,10","20,20,20,20","0,0,0,0","20,20,20,20","1,0,0,1","9329,3537,10011,4169","-22.92146551494273,38.004819512252546,55.87233899048144,-8.21028568087871","-19.222572891349184,40.605313447373305,19.384802380115126,20.8883057566958","0","0"
"761","86","text","0","35","678002","0-0","","","","","","","","","","","","","","","","","","","","","","","","","","","","","","","","","","","","",""
"","","plant-game","0","36","692899","0-0","","200","190","2","WHEAT CROP","Left","200","190","2","THISTLE WEED","experimental","5","1,2","190,194.77138472752378","2,1","WHEAT CROP,WHEAT CROP","190,212.74542556265484","2,1","THISTLE WEED,THISTLE WEED","20,20","20,20","10,10","20,20","0,0","20,20","20,20","20,20","10,10","20,20","0,0","20,20","1,0","6089,2025","4.771384727523792,22.052705680990663","22.74542556265484,63.80255597168183","0","0"
"776","86","text","0","37","693765","0-0","","","","","","","","","","","","","","","","","","","","","","","","","","","","","","","","","","","","",""
"","","plant-game","0","38","730559","0-0","","200","190","2","WHEAT CROP","Left","200","120","8","NETTLE WEED","experimental","6","1,2,3,4,5,6,7,8","190,183.23457874239614,140,125.57453004686224,143.54706238979867,126.9612966300058,137.14655903615778,194.0617117944659","2,1,6,5,4,3,2,1","WHEAT CROP,WHEAT CROP,CORN CROP,CORN CROP,CORN CROP,CORN CROP,CORN CROP,CORN CROP","120,138.2025661219281,150.78741117369776,167.08227946921295,179.65812682472801,158.82016379067792,163.5951792989476,179.38069805883416","8,7,6,5,4,3,2,1","NETTLE WEED,NETTLE WEED,NETTLE WEED,NETTLE WEED,NETTLE WEED,NETTLE WEED,NETTLE WEED,NETTLE WEED","20,20,20,20,20,20,20,20","20,20,20,20,20,20,20,20","10,10,10,10,10,10,10,10","20,20,20,20,20,20,20,20","0,0,0,0,0,0,0,0","20,20,20,20,20,20,20,20","20,20,20,20,20,20,20,20","20,20,20,20,20,20,20,20","10,10,10,10,10,10,10,10","20,20,20,20,20,20,20,20","0,0,0,0,0,0,0,0","20,20,20,20,20,20,20,20","0,0,1,0,1,1,0,0","5838,4415,4225,2433,3504,2145,2244,1606","-6.765421257603869,1.8634367692733989,-14.42546995313776,17.97253234293644,-16.58576575979286,10.185262406151978,56.91515275830814,43.998614455300824","18.202566121928097,12.584845051769673,16.294868295515172,12.575847355515055,-20.837963034050084,4.775015508269702,15.785518759886532,39.80680788470609","0","0"
"687","86","text","0","39","731351","0-0","","","","","","","","","","","","","","","","","","","","","","","","","","","","","","","","","","","","",""
"","","plant-game","0","40","760473","0-0","","200","180","4","WHEAT CROP","Right","200","180","1","NETTLE WEED","experimental","7","1,2,3,4","180,170,158.9672726541844,182.9990698983703","1,3,2,1","NETTLE WEED,THISTLE WEED,THISTLE WEED,THISTLE WEED","180,152.0429508423134,143.25767044311849,187.4348918944499","4,3,2,1","WHEAT CROP,WHEAT CROP,WHEAT CROP,WHEAT CROP","0,0,0,0","20,20,20,20","10,10,10,10","20,20,20,20","20,20,20,20","20,20,20,20","0,0,0,0","20,20,20,20","10,10,10,10","20,20,20,20","20,20,20,20","20,20,20,20","0,1,1,0","10293,4337,2677,2567","-18.94417348650994,-11.032727345815594,24.031797244185896,3.8360477023147976","-27.957049157686605,-8.785280399194914,44.1772214513314,-18.836519072637298","0","0"
"880","86","text","0","41","761431","0-0","","","","","","","","","","","","","","","","","","","","","","","","","","","","","","","","","","","","",""
"","","plant-game","0","42","821539","0-0","","200","160","2","WHEAT CROP","Left","200","190","8","NETTLE WEED","experimental","8","1,2,3,4,5,6,7,8","160,171.03260155789587,140,175.05393116523084,200.96886121096313,222.2865875137151,242.86187340399943,233.72818453567749","2,1,6,5,4,3,2,1","WHEAT CROP,WHEAT CROP,CORN CROP,CORN CROP,CORN CROP,CORN CROP,CORN CROP,CORN CROP","190,205.45996944850015,221.01381790609702,244.40865369589577,230.99438505630994,215.39542026792057,230.6064824790112,224.81242167743378","8,7,6,5,4,3,2,1","NETTLE WEED,NETTLE WEED,NETTLE WEED,NETTLE WEED,NETTLE WEED,NETTLE WEED,NETTLE WEED,NETTLE WEED","20,20,20,20,20,20,20,20","20,20,20,20,20,20,20,20","10,10,10,10,10,10,10,10","20,20,20,20,20,20,20,20","0,0,0,0,0,0,0,0","20,20,20,20,20,20,20,20","20,20,20,20,20,20,20,20","20,20,20,20,20,20,20,20","10,10,10,10,10,10,10,10","20,20,20,20,20,20,20,20","0,0,0,0,0,0,0,0","20,20,20,20,20,20,20,20","0,0,1,0,0,0,1,0","24045,8222,10061,2203,3297,925,1370,1167","11.032601557895887,33.44292645826027,35.05393116523085,25.91493004573229,21.31772630275197,20.575285890284327,-9.133688868321938,33.44418037715933","15.459969448500146,15.553848457596862,23.394835789798755,-13.414268639585835,-15.59896478838936,15.211062211090628,-5.794060801577411,46.036223562519005","0","0"
"590","86","text","0","43","822229","0-0","","","","","","","","","","","","","","","","","","","","","","","","","","","","","","","","","","","","",""
"","","plant-game","0","44","852038","0-0","","200","120","4","WHEAT CROP","Right","200","190","8","NETTLE WEED","experimental","9","1,2,3,4,5,6,7,8","190,202.91098415242135,244.23791914527195,238.3510447274773,255.9142291989231,282.4293207595467,304.0184438489396,296.3871072226507","8,7,6,5,4,3,2,1","NETTLE WEED,NETTLE WEED,NETTLE WEED,NETTLE WEED,NETTLE WEED,NETTLE WEED,NETTLE WEED,NETTLE WEED","120,165.06122085045808,161.61191852722584,182.1395528140131,160,165.4487495573526,171.13714629919565,171.64691472045595","4,3,2,1,4,3,2,1","WHEAT CROP,WHEAT CROP,WHEAT CROP,WHEAT CROP,CORN CROP,CORN CROP,CORN CROP,CORN CROP","0,0,0,0,0,0,0,0","20,20,20,20,20,20,20,20","10,10,10,10,10,10,10,10","20,20,20,20,20,20,20,20","20,20,20,20,20,20,20,20","20,20,20,20,20,20,20,20","0,0,0,0,0,0,0,0","20,20,20,20,20,20,20,20","10,10,10,10,10,10,10,10","20,20,20,20,20,20,20,20","20,20,20,20,20,20,20,20","20,20,20,20,20,20,20,20","1,0,0,0,0,1,1,0","4592,4964,1185,712,2900,1769,1407,1921","12.910984152421353,41.326934992850596,-5.886874417794648,17.5631844714458,26.515091560623606,21.58912308939288,-7.631336626288942,-3.819086363676693","45.061220850458085,-3.4493023232322444,20.52763428678725,36.22300480831379,5.448749557352603,5.688396741843029,0.5097684212603149,4.0672971959814825","0","0"
"582","86","text","0","45","852729","0-0","","","","","","","","","","","","","","","","","","","","","","","","","","","","","","","","","","","","",""
"","","plant-game","0","46","892955","0-0","","200","180","4","WHEAT CROP","Left","200","120","2","NETTLE WEED","experimental","10","1,2,3,4","180,227.1247235081994,255.84298049851844,269.8236703844493","4,3,2,1","WHEAT CROP,WHEAT CROP,WHEAT CROP,WHEAT CROP","120,157.7680631969002,180,167.8456256579487","2,1,2,1","NETTLE WEED,NETTLE WEED,THISTLE WEED,THISTLE WEED","20,20,20,20","20,20,20,20","10,10,10,10","20,20,20,20","0,0,0,0","20,20,20,20","20,20,20,20","20,20,20,20","10,10,10,10","20,20,20,20","0,0,0,0","20,20,20,20","0,1,1,0","6370,9511,12389,3865","47.124723508199395,28.718256990319034,13.980689885930886,24.300253406587913","37.7680631969002,3.044657946900491,-12.15437434205132,4.308960102262189","0","0"
"755","86","text","0","47","893788","0-0","","","","","","","","","","","","","","","","","","","","","","","","","","","","","","","","","","","","",""
"","","plant-game","0","48","929013","0-0","","200","190","8","CORN CROP","Left","200","160","2","THISTLE WEED","experimental","11","1,2,3,4,5,6,7,8","190,186.127573727328,199.45822276620757,233.4881580766242,260.6739919692325,287.5680519811923,274.8299871004844,264.9541340404889","8,7,6,5,4,3,2,1","CORN CROP,CORN CROP,CORN CROP,CORN CROP,CORN CROP,CORN CROP,CORN CROP,CORN CROP","160,180.5269798842453,140,119.02552619714211,119.32232402711914,127.75823754050545,105.69731126974777,74.94732555134618","2,1,6,5,4,3,2,1","THISTLE WEED,THISTLE WEED,NETTLE WEED,NETTLE WEED,NETTLE WEED,NETTLE WEED,NETTLE WEED,NETTLE WEED","20,20,20,20,20,20,20,20","20,20,20,20,20,20,20,20","10,10,10,10,10,10,10,10","20,20,20,20,20,20,20,20","0,0,0,0,0,0,0,0","20,20,20,20,20,20,20,20","20,20,20,20,20,20,20,20","20,20,20,20,20,20,20,20","10,10,10,10,10,10,10,10","20,20,20,20,20,20,20,20","0,0,0,0,0,0,0,0","20,20,20,20,20,20,20,20","0,1,1,0,0,1,1,0","4640,1569,4717,3153,2969,2387,3071,2513","-3.8724262726720013,13.330649038879546,34.029935310416626,27.18583389260831,26.894060011959795,-12.73806488070787,-9.875853059995524,12.488610241682668","20.526979884245296,-22.030946801382186,-20.974473802857887,0.2967978299770273,8.43591351338631,-22.060926270757676,-30.749985718401582,24.69546861569646","0","0"
"945","86","text","0","49","930098","0-0","","","","","","","","","","","","","","","","","","","","","","","","","","","","","","","","","","","","",""
"","","plant-game","0","50","954660","0-0","","200","190","2","CORN CROP","Left","200","190","1","NETTLE WEED","experimental","12","1,2","190,214.69529623516326","2,1","CORN CROP,CORN CROP","190,190","1,1","NETTLE WEED,THISTLE WEED","20,20","20,20","10,10","20,20","0,0","20,20","20,20","20,20","10,10","20,20","0,0","20,20","0,1","8709,6501","24.69529623516324,-21.86402250656529","12.601644312524016,-4.153608823454738","0","0"
"1644","86","text","0","51","956464","0-0","","","","","","","","","","","","","","","","","","","","","","","","","","","","","","","","","","","","",""
"","","plant-game","0","52","970611","0-0","","200","180","2","WHEAT CROP","Left","200","180","2","NETTLE WEED","experimental","13","1,2","180,164.6823192311626","2,1","WHEAT CROP,WHEAT CROP","180,148.55472627056923","2,1","NETTLE WEED,NETTLE WEED","20,20","20,20","10,10","20,20","0,0","20,20","20,20","20,20","10,10","20,20","0,0","20,20","1,0","7276,1670","-15.317680768837397,-9.719344347615149","-31.44527372943076,12.600491542211698","0","0"
"768","86","text","0","53","971503","0-0","","","","","","","","","","","","","","","","","","","","","","","","","","","","","","","","","","","","",""
"","","plant-game","0","54","1002220","0-0","","200","180","8","WHEAT CROP","Right","200","120","1","NETTLE WEED","experimental","14","1,2,3,4,5,6,7,8","120,130,147.7435277413449,187.84755015056004,188.05652336705595,200.08143398851038,208.40185444871688,225.65413801026722","1,7,6,5,4,3,2,1","NETTLE WEED,THISTLE WEED,THISTLE WEED,THISTLE WEED,THISTLE WEED,THISTLE WEED,THISTLE WEED,THISTLE WEED","180,183.03555071579584,207.43004956380125,210.52190615934052,251.48156282330507,261.60519772566886,311.1689477492681,351.18592915699696","8,7,6,5,4,3,2,1","WHEAT CROP,WHEAT CROP,WHEAT CROP,WHEAT CROP,WHEAT CROP,WHEAT CROP,WHEAT CROP,WHEAT CROP","0,0,0,0,0,0,0,0","20,20,20,20,20,20,20,20","10,10,10,10,10,10,10,10","20,20,20,20,20,20,20,20","20,20,20,20,20,20,20,20","20,20,20,20,20,20,20,20","0,0,0,0,0,0,0,0","20,20,20,20,20,20,20,20","10,10,10,10,10,10,10,10","20,20,20,20,20,20,20,20","20,20,20,20,20,20,20,20","20,20,20,20,20,20,20,20","1,1,1,0,0,1,0,0","7972,2836,1220,1679,1694,1949,1164,2481","-14.154332840630268,17.74352774134491,40.10402240921512,0.20897321649589762,12.024910621454447,8.320420460206483,17.252283561550335,-16.889862021707586","3.0355507157958392,24.39449884800542,3.0918565955392587,40.95965666396454,10.123634902363769,49.56375002359924,40.01698140772888,1.1662078998357261","0","0"
"628","86","text","0","55","1002968","0-0","","","","","","","","","","","","","","","","","","","","","","","","","","","","","","","","","","","","",""
"","","plant-game","0","56","1027819","0-0","","200","190","4","WHEAT CROP","Right","200","180","1","THISTLE WEED","experimental","15","1,2,3,4","180,170,172.59388987603998,204.73972713393954","1,3,2,1","THISTLE WEED,NETTLE WEED,NETTLE WEED,NETTLE WEED","190,188.9577596251743,197.8162444722288,185.05470062214823","4,3,2,1","WHEAT CROP,WHEAT CROP,WHEAT CROP,WHEAT CROP","0,0,0,0","20,20,20,20","10,10,10,10","20,20,20,20","20,20,20,20","20,20,20,20","0,0,0,0","20,20,20,20","10,10,10,10","20,20,20,20","20,20,20,20","20,20,20,20","1,0,0,1","7540,5442,1112,1730","30.736393815699405,2.5938898760399787,32.145837257899544,23.75561310271156","-1.042240374825706,8.858484847054498,-12.761543850080566,-2.533821406319305","0","0"
"654","86","text","0","57","1028573","0-0","","","","","","","","","","","","","","","","","","","","","","","","","","","","","","","","","","","","",""
"","","plant-game","0","58","1062344","0-0","","200","160","8","CORN CROP","Right","200","160","4","THISTLE WEED","experimental","16","1,2,3,4,5,6,7,8","160,156.26281907342582,152.17963859675982,164.39766831478627,160,171.42372449635513,178.02749091520363,168.94592836955343","4,3,2,1,4,3,2,1","THISTLE WEED,THISTLE WEED,THISTLE WEED,THISTLE WEED,NETTLE WEED,NETTLE WEED,NETTLE WEED,NETTLE WEED","160,161.97831427368735,130.9010967485684,170.07979467232536,158.66312181127049,170.6676535910522,190.25141396407489,172.13612107694814","8,7,6,5,4,3,2,1","CORN CROP,CORN CROP,CORN CROP,CORN CROP,CORN CROP,CORN CROP,CORN CROP,CORN CROP","0,0,0,0,0,0,0,0","20,20,20,20,20,20,20,20","10,10,10,10,10,10,10,10","20,20,20,20,20,20,20,20","20,20,20,20,20,20,20,20","20,20,20,20,20,20,20,20","0,0,0,0,0,0,0,0","20,20,20,20,20,20,20,20","10,10,10,10,10,10,10,10","20,20,20,20,20,20,20,20","20,20,20,20,20,20,20,20","20,20,20,20,20,20,20,20","0,0,1,1,1,1,0,0","7200,485,2120,1331,4073,1283,2499,3701","-3.737180926574176,-4.083180476666007,12.218029718026468,20.381309585670387,11.423724496355138,6.603766418848485,-9.081562545650204,-9.271728085725751","1.9783142736873516,-31.07721752511896,39.178697923756985,-11.416672861054877,12.004531779781694,19.58376037302269,-18.115292887126742,-21.396404974738402","0","0"
"4968","86","text","0","59","1067500","0-0","","","","","","","","","","","","","","","","","","","","","","","","","","","","","","","","","","","","",""
"","","plant-game","0","60","1088766","0-0","","200","120","8","CORN CROP","Left","200","190","8","THISTLE WEED","experimental","17","1,2,3,4,5,6,7,8","120,101.34158915670322,99.56606920051385,106.62953333061382,99.29735090544361,126.87293723185273,125.69107636002516,113.20327895171063","8,7,6,5,4,3,2,1","CORN CROP,CORN CROP,CORN CROP,CORN CROP,CORN CROP,CORN CROP,CORN CROP,CORN CROP","190,214.07151925782304,220.8301889145393,223.24434775871393,200.8507876146895,203.78124059186334,202.93584987600966,162.81118239731896","8,7,6,5,4,3,2,1","THISTLE WEED,THISTLE WEED,THISTLE WEED,THISTLE WEED,THISTLE WEED,THISTLE WEED,THISTLE WEED,THISTLE WEED","20,20,20,20,20,20,20,20","20,20,20,20,20,20,20,20","10,10,10,10,10,10,10,10","20,20,20,20,20,20,20,20","0,0,0,0,0,0,0,0","20,20,20,20,20,20,20,20","20,20,20,20,20,20,20,20","20,20,20,20,20,20,20,20","10,10,10,10,10,10,10,10","20,20,20,20,20,20,20,20","0,0,0,0,0,0,0,0","20,20,20,20,20,20,20,20","0,1,1,1,0,0,1,1","6230,2545,1252,743,1199,537,925,240","-18.658410843296778,-1.7755199561893644,7.063464130099967,-7.332182425170222,27.575586326409123,-1.181860871827567,-12.487797408314535,-18.17555522948815","24.071519257823038,6.758669656716262,2.4141588441746427,-22.39356014402443,2.930452977173836,-0.8453907158536822,-40.12466747869069,5.310794286740551","0","0"
"885","86","text","0","61","1089791","0-0","","","","","","","","","","","","","","","","","","","","","","","","","","","","","","","","","","","","",""
"","","plant-game","0","62","1120315","0-0","","200","160","1","CORN CROP","Left","200","190","4","NETTLE WEED","experimental","18","1,2,3,4","160,170,191.84923280260176,219.33128980434782","1,3,2,1","CORN CROP,WHEAT CROP,WHEAT CROP,WHEAT CROP","190,201.62998927133546,210.07101628699053,207.13744033577413","4,3,2,1","NETTLE WEED,NETTLE WEED,NETTLE WEED,NETTLE WEED","20,20,20,20","20,20,20,20","10,10,10,10","20,20,20,20","0,0,0,0","20,20,20,20","20,20,20,20","20,20,20,20","10,10,10,10","20,20,20,20","0,0,0,0","20,20,20,20","1,0,0,1","12005,3504,1422,2178","15.825691186028727,21.849232802601776,27.482057001746057,-15.490253149363742","11.629989271335468,8.441027015655077,-2.933575951216394,15.575815688128205","0","0"
"648","86","text","0","63","1121103","0-0","","","","","","","","","","","","","","","","","","","","","","","","","","","","","","","","","","","","",""
"","","plant-game","0","64","1150257","0-0","","200","180","8","CORN CROP","Right","200","190","1","THISTLE WEED","experimental","19","1,2,3,4,5,6,7,8","190,130,178.05219278526107,198.38476370782737,190.48254370460242,192.46612608599284,198.12537033882998,240.91284168673315","1,7,6,5,4,3,2,1","THISTLE WEED,NETTLE WEED,NETTLE WEED,NETTLE WEED,NETTLE WEED,NETTLE WEED,NETTLE WEED,NETTLE WEED","180,190.50713263961794,205.20266121920378,195.22320673385582,257.8557918171572,234.14971300980716,234.07637642710696,239.1270254336912","8,7,6,5,4,3,2,1","CORN CROP,CORN CROP,CORN CROP,CORN CROP,CORN CROP,CORN CROP,CORN CROP,CORN CROP","0,0,0,0,0,0,0,0","20,20,20,20,20,20,20,20","10,10,10,10,10,10,10,10","20,20,20,20,20,20,20,20","20,20,20,20,20,20,20,20","20,20,20,20,20,20,20,20","0,0,0,0,0,0,0,0","20,20,20,20,20,20,20,20","10,10,10,10,10,10,10,10","20,20,20,20,20,20,20,20","20,20,20,20,20,20,20,20","20,20,20,20,20,20,20,20","0,1,0,1,0,0,1,0","4537,3024,2006,2182,4578,1520,1388,1424","-8.214188398342303,48.052192785261084,20.332570922566298,-7.902220003224947,1.9835823813904108,5.65924425283713,42.78747134790318,6.690403409376627","10.507132639617943,14.695528579585847,-9.979454485347958,62.632585083301386,-23.70607880735003,-0.0733365827001879,5.0506490065842335,-2.267703462638249","0","0"
"582","86","text","0","65","1150949","0-0","","","","","","","","","","","","","","","","","","","","","","","","","","","","","","","","","","","","",""
"","","plant-game","0","66","1169457","0-0","","200","160","2","CORN CROP","Right","200","160","1","NETTLE WEED","experimental","20","1,2","160,190","1,1","NETTLE WEED,THISTLE WEED","160,146.82925197570944","2,1","CORN CROP,CORN CROP","0,0","20,20","10,10","20,20","20,20","20,20","0,0","20,20","10,10","20,20","20,20","20,20","0,1","5635,3558","-18.880872842551007,27.608370862990075","-13.170748024290567,25.459368301932845","0","0"
"839","86","text","0","67","1170396","0-0","","","","","","","","","","","","","","","","","","","","","","","","","","","","","","","","","","","","",""
"","","plant-game","0","68","1198606","0-0","","200","180","8","CORN CROP","Right","200","120","2","THISTLE WEED","experimental","21","1,2,3,4,5,6,7,8","120,168.00552741942244,140,134.96711503584763,139.08872184037128,150.16632032755732,196.8493015739967,178.43810445296612","2,1,6,5,4,3,2,1","THISTLE WEED,THISTLE WEED,NETTLE WEED,NETTLE WEED,NETTLE WEED,NETTLE WEED,NETTLE WEED,NETTLE WEED","180,230.93484966472957,266.2583445190991,270.41059687763646,285.0403502722541,266.69193064158617,306.00255435488964,300.54321017691484","8,7,6,5,4,3,2,1","CORN CROP,CORN CROP,CORN CROP,CORN CROP,CORN CROP,CORN CROP,CORN CROP,CORN CROP","0,0,0,0,0,0,0,0","20,20,20,20,20,20,20,20","10,10,10,10,10,10,10,10","20,20,20,20,20,20,20,20","20,20,20,20,20,20,20,20","20,20,20,20,20,20,20,20","0,0,0,0,0,0,0,0","20,20,20,20,20,20,20,20","10,10,10,10,10,10,10,10","20,20,20,20,20,20,20,20","20,20,20,20,20,20,20,20","20,20,20,20,20,20,20,20","1,0,1,1,0,1,0,0","3046,4174,5053,1067,1436,2096,736,2782","48.00552741942242,-12.51891316386896,-5.032884964152366,4.1216068045236405,11.077598487186043,46.68298124643939,-18.411197121030597,-12.27132877437775","50.93484966472956,35.323494854369564,4.152252358537357,14.62975339461761,-18.348419630667923,39.31062371330345,-5.459344177974804,-32.54681079554127","0","0"
"447","86","text","0","69","1199147","0-0","","","","","","","","","","","","","","","","","","","","","","","","","","","","","","","","","","","","",""
"","","plant-game","0","70","1223161","0-0","","200","120","4","CORN CROP","Right","200","120","2","NETTLE WEED","experimental","22","1,2,3,4","120,131.14880355189428,180,201.26624332052003","2,1,2,1","NETTLE WEED,NETTLE WEED,THISTLE WEED,THISTLE WEED","120,126.22584747066898,126.83293439202056,130.4021200953085","4,3,2,1","CORN CROP,CORN CROP,CORN CROP,CORN CROP","0,0,0,0","20,20,20,20","10,10,10,10","20,20,20,20","20,20,20,20","20,20,20,20","0,0,0,0","20,20,20,20","10,10,10,10","20,20,20,20","20,20,20,20","20,20,20,20","0,0,0,1","7776,797,3700,1456","11.148803551894279,-5.783022545264077,21.26624332052004,40.94318337348962","6.225847470668979,0.6070869213515736,3.569185703287938,13.02299058040457","0","0"
"618","86","text","0","71","1223889","0-0","","","","","","","","","","","","","","","","","","","","","","","","","","","","","","","","","","","","",""
"","","plant-game","0","72","1239882","0-0","","200","120","4","CORN CROP","Left","200","160","4","THISTLE WEED","experimental","23","1,2,3,4","120,113.92346891257858,147.69061930251416,207.60792828455715","4,3,2,1","CORN CROP,CORN CROP,CORN CROP,CORN CROP","160,157.64160720059476,193.80684873124073,234.48997862505428","4,3,2,1","THISTLE WEED,THISTLE WEED,THISTLE WEED,THISTLE WEED","20,20,20,20","20,20,20,20","10,10,10,10","20,20,20,20","0,0,0,0","20,20,20,20","20,20,20,20","20,20,20,20","10,10,10,10","20,20,20,20","0,0,0,0","20,20,20,20","1,1,0,1","3689,2009,1251,4416","-6.076531087421413,33.76715038993559,59.91730898204298,-45.458419139644306","-2.358392799405225,36.16524153064597,40.68312989381354,25.19344241523303","0","0"
"307","86","text","0","73","1240289","0-0","","","","","","","","","","","","","","","","","","","","","","","","","","","","","","","","","","","","",""
"","","plant-game","0","74","1264775","0-0","","200","190","8","CORN CROP","Right","200","180","1","THISTLE WEED","experimental","24","1,2,3,4,5,6,7,8","180,130,174.34741622705448,203.33244467085598,217.71720723813752,268.7767878682361,257.50179799423654,264.33545700293945","1,7,6,5,4,3,2,1","THISTLE WEED,NETTLE WEED,NETTLE WEED,NETTLE WEED,NETTLE WEED,NETTLE WEED,NETTLE WEED,NETTLE WEED","190,188.829097378953,218.6788574503455,241.8753389518199,257.41452477761595,262.2239850077121,271.5308592634635,277.693429748066","8,7,6,5,4,3,2,1","CORN CROP,CORN CROP,CORN CROP,CORN CROP,CORN CROP,CORN CROP,CORN CROP,CORN CROP","0,0,0,0,0,0,0,0","20,20,20,20,20,20,20,20","10,10,10,10,10,10,10,10","20,20,20,20,20,20,20,20","20,20,20,20,20,20,20,20","20,20,20,20,20,20,20,20","0,0,0,0,0,0,0,0","20,20,20,20,20,20,20,20","10,10,10,10,10,10,10,10","20,20,20,20,20,20,20,20","20,20,20,20,20,20,20,20","20,20,20,20,20,20,20,20","0,1,1,0,1,0,0,0","8546,1998,2132,1071,1183,555,448,387","-12.572335525878733,44.347416227054474,28.98502844380151,14.384762567281545,51.059580630098594,-11.274989873999576,6.83365900870291,-0.8442129862997101","-1.1709026210469786,29.849760071392502,23.19648150147442,15.53918582579605,4.8094602300961515,9.30687425575142,6.162570484602501,1.4518631410938223","0","0"
"529","86","text","0","75","1265454","0-0","","","","","","","","","","","","","","","","","","","","","","","","","","","","","","","","","","","","",""
"","","plant-game","0","76","1298460","0-0","","200","160","4","CORN CROP","Left","200","190","8","THISTLE WEED","experimental","25","1,2,3,4,5,6,7,8","160,174.34608932746977,165.95196791716677,196.16808552791835,160,188.49590463357163,203.87200291562726,203.1310749092496","4,3,2,1,4,3,2,1","CORN CROP,CORN CROP,CORN CROP,CORN CROP,WHEAT CROP,WHEAT CROP,WHEAT CROP,WHEAT CROP","190,178.6494659374882,187.70325805676663,189.53822282354932,180.3417999378643,172.27968138196013,223.33925765932332,225.54061535076312","8,7,6,5,4,3,2,1","THISTLE WEED,THISTLE WEED,THISTLE WEED,THISTLE WEED,THISTLE WEED,THISTLE WEED,THISTLE WEED,THISTLE WEED","20,20,20,20,20,20,20,20","20,20,20,20,20,20,20,20","10,10,10,10,10,10,10,10","20,20,20,20,20,20,20,20","0,0,0,0,0,0,0,0","20,20,20,20,20,20,20,20","20,20,20,20,20,20,20,20","20,20,20,20,20,20,20,20","10,10,10,10,10,10,10,10","20,20,20,20,20,20,20,20","0,0,0,0,0,0,0,0","20,20,20,20,20,20,20,20","1,1,0,1,0,0,1,0","5262,551,667,2357,6995,3887,1628,1658","14.346089327469759,-8.394121410303004,30.216117610751574,13.639764127606854,28.495904633571612,15.376098282055633,-0.7409280063776522,17.9778538310126","-11.35053406251181,9.053792119278416,1.834964766782683,-9.19642288568503,-8.06211855590417,51.05957627736318,2.201357691439791,-5.8801172207037595","0","0"
"918","86","text","0","77","1299508","0-0","","","","","","","","","","","","","","","","","","","","","","","","","","","","","","","","","","","","",""
"","","plant-game","0","78","1307108","0-0","","200","180","1","WHEAT CROP","Right","200","160","1","NETTLE WEED","experimental","26","1","160","1","NETTLE WEED","180","1","WHEAT CROP","0","20","10","20","20","20","0","20","10","20","20","20","1","2188","22.474875209196504","28.46557860241872","0","0"
"760","86","text","0","79","1307990","0-0","","","","","","","","","","","","","","","","","","","","","","","","","","","","","","","","","","","","",""
"","","plant-game","0","80","1330910","0-0","","200","190","2","CORN CROP","Right","200","160","4","NETTLE WEED","experimental","27","1,2,3,4","160,199.92873513375105,192.29100572046687,204.35112248717422","4,3,2,1","NETTLE WEED,NETTLE WEED,NETTLE WEED,NETTLE WEED","190,224.24872272568925,180,158.32685633667683","2,1,2,1","CORN CROP,CORN CROP,WHEAT CROP,WHEAT CROP","0,0,0,0","20,20,20,20","10,10,10,10","20,20,20,20","20,20,20,20","20,20,20,20","0,0,0,0","20,20,20,20","10,10,10,10","20,20,20,20","20,20,20,20","20,20,20,20","1,0,0,1","3798,2428,3666,2168","39.92873513375106,-7.637729413284178,12.060116766707354,-26.001179970591878","34.24872272568925,2.363222380852391,-21.673143663323184,34.896535131831946","0","0"
"1021","86","text","0","81","1332111","0-0","","","","","","","","","","","","","","","","","","","","","","","","","","","","","","","","","","","","",""
"","","plant-game","0","82","1347714","0-0","","200","180","1","CORN CROP","Right","200","120","2","THISTLE WEED","experimental","28","1,2","120,142.70316519532975","2,1","THISTLE WEED,THISTLE WEED","180,190","1,1","CORN CROP,WHEAT CROP","0,0","20,20","10,10","20,20","20,20","20,20","0,0","20,20","10,10","20,20","20,20","20,20","1,1","2323,4138","22.703165195329753,38.27171237268335","15.71419373969,15.306275995896542","0","0"
"431","86","text","0","83","1348245","0-0","","","","","","","","","","","","","","","","","","","","","","","","","","","","","","","","","","","","",""
"","","plant-game","0","84","1383127","0-0","","200","160","8","CORN CROP","Left","200","180","2","NETTLE WEED","experimental","29","1,2,3,4,5,6,7,8","160,109.35108257411396,140.48619853963652,119.17964827779862,174.33234257654718,206.17168107843804,212.78368908828836,235.0487588059948","8,7,6,5,4,3,2,1","CORN CROP,CORN CROP,CORN CROP,CORN CROP,CORN CROP,CORN CROP,CORN CROP,CORN CROP","180,184.64223222403692,140,136.69569211626316,164.80556078189116,191.0039457942753,218.61559374174317,208.88851165345434","2,1,6,5,4,3,2,1","NETTLE WEED,NETTLE WEED,THISTLE WEED,THISTLE WEED,THISTLE WEED,THISTLE WEED,THISTLE WEED,THISTLE WEED","20,20,20,20,20,20,20,20","20,20,20,20,20,20,20,20","10,10,10,10,10,10,10,10","20,20,20,20,20,20,20,20","0,0,0,0,0,0,0,0","20,20,20,20,20,20,20,20","20,20,20,20,20,20,20,20","20,20,20,20,20,20,20,20","10,10,10,10,10,10,10,10","20,20,20,20,20,20,20,20","0,0,0,0,0,0,0,0","20,20,20,20,20,20,20,20","1,0,1,0,0,1,0,0","5013,3239,2582,10079,1614,1892,1403,1109","-50.64891742588604,31.135115965522548,-21.306550261837902,55.15269429874856,31.839338501890875,6.61200800985031,22.265069717706453,33.76169772061689","4.6422322240369045,80.40998045404967,-3.304307883736844,28.109868665628007,26.198385012384136,27.61164794746787,-9.727082088288824,44.36643519894747","0","0"
"304","86","text","0","85","1383501","0-0","","","","","","","","","","","","","","","","","","","","","","","","","","","","","","","","","","","","",""
"","","plant-game","0","86","1406177","0-0","","200","190","1","WHEAT CROP","Left","200","180","8","NETTLE WEED","experimental","30","1,2,3,4,5,6,7,8","190,130,132.96008891499548,111.38730800482548,151.9341396925268,175.31415519751644,168.62706332995288,157.14038628473486","1,7,6,5,4,3,2,1","WHEAT CROP,CORN CROP,CORN CROP,CORN CROP,CORN CROP,CORN CROP,CORN CROP,CORN CROP","180,185.7642687623831,185.7091371060288,212.17021404124498,221.45210793556942,245.32400275150303,258.70572328252814,238.61943585506805","8,7,6,5,4,3,2,1","NETTLE WEED,NETTLE WEED,NETTLE WEED,NETTLE WEED,NETTLE WEED,NETTLE WEED,NETTLE WEED,NETTLE WEED","20,20,20,20,20,20,20,20","20,20,20,20,20,20,20,20","10,10,10,10,10,10,10,10","20,20,20,20,20,20,20,20","0,0,0,0,0,0,0,0","20,20,20,20,20,20,20,20","20,20,20,20,20,20,20,20","20,20,20,20,20,20,20,20","10,10,10,10,10,10,10,10","20,20,20,20,20,20,20,20","0,0,0,0,0,0,0,0","20,20,20,20,20,20,20,20","1,1,1,0,0,1,0,0","3603,4015,82,1486,57,822,577,2731","15.058860725888088,2.9600889149954837,-21.572780910169996,40.54683168770133,23.380015504989643,-6.687091867563573,-11.48667704521803,60.30704554374063","5.764268762383092,-0.055131656354298515,26.461076935216173,9.281893894324442,23.871894815933608,13.381720531025131,-20.08628742746008,17.549639868323588","0","0"
"1096","86","text","0","87","1407433","0-0","","","","","","","","","","","","","","","","","","","","","","","","","","","","","","","","","","","","",""
"","","plant-game","0","88","1425944","0-0","","200","160","4","CORN CROP","Right","200","160","1","THISTLE WEED","experimental","31","1,2,3,4","160,170,181.04489589388228,199.31418579961357","1,3,2,1","THISTLE WEED,NETTLE WEED,NETTLE WEED,NETTLE WEED","160,182.68302692400994,197.00369306232727,253.13865193759676","4,3,2,1","CORN CROP,CORN CROP,CORN CROP,CORN CROP","0,0,0,0","20,20,20,20","10,10,10,10","20,20,20,20","20,20,20,20","20,20,20,20","0,0,0,0","20,20,20,20","10,10,10,10","20,20,20,20","20,20,20,20","20,20,20,20","0,1,1,0","3819,1960,3242,3476","-85.15684178514677,11.044895893882288,18.26928990573128,-22.002700395048663","22.683026924009944,14.320666138317328,56.134958875269504,-2.7797829096328175","0","0"
"430","86","text","0","89","1426464","0-0","","","","","","","","","","","","","","","","","","","","","","","","","","","","","","","","","","","","",""
"","","plant-game","0","90","1449435","0-0","","200","120","1","CORN CROP","Right","200","180","8","NETTLE WEED","experimental","32","1,2,3,4,5,6,7,8","180,158.18490931874442,154.59125849861346,180.91652450761157,208.2650191275969,224.28473208065685,265.33471149781917,312.25018811468215","8,7,6,5,4,3,2,1","NETTLE WEED,NETTLE WEED,NETTLE WEED,NETTLE WEED,NETTLE WEED,NETTLE WEED,NETTLE WEED,NETTLE WEED","120,130,146.11939405444267,162.74031561129982,174.38581626277676,185.10977473935225,192.6168766999063,175.75621349092583","1,7,6,5,4,3,2,1","CORN CROP,WHEAT CROP,WHEAT CROP,WHEAT CROP,WHEAT CROP,WHEAT CROP,WHEAT CROP,WHEAT CROP","0,0,0,0,0,0,0,0","20,20,20,20,20,20,20,20","10,10,10,10,10,10,10,10","20,20,20,20,20,20,20,20","20,20,20,20,20,20,20,20","20,20,20,20,20,20,20,20","0,0,0,0,0,0,0,0","20,20,20,20,20,20,20,20","10,10,10,10,10,10,10,10","20,20,20,20,20,20,20,20","20,20,20,20,20,20,20,20","20,20,20,20,20,20,20,20","0,0,0,1,0,1,1,0","2026,5380,1059,971,983,1991,487,741","-21.815090681255583,-3.5936508201309465,26.325266008998106,27.34849461998534,16.01971295305994,41.04997941716235,46.915476616863,-3.245842310717208","22.82988959567197,16.119394054442672,16.620921556857166,11.645500651476935,10.723958476575483,7.507101960554049,-16.860663208980462,-13.604439693884874","0","0"
"193","86","text","0","91","1449748","0-0","","","","","","","","","","","","","","","","","","","","","","","","","","","","","","","","","","","","",""
"","","plant-game","0","92","1471192","0-0","","200","120","2","WHEAT CROP","Right","200","190","1","THISTLE WEED","experimental","33","1,2","190,190","1,1","THISTLE WEED,NETTLE WEED","120,150.5221863295896","2,1","WHEAT CROP,WHEAT CROP","0,0","20,20","10,10","20,20","20,20","20,20","0,0","20,20","10,10","20,20","20,20","20,20","0,1","11608,2415","2.436840533897768,5.218592968668203","30.522186329589587,14.151938347225988","0","0"
"680","86","text","0","93","1471981","0-0","","","","","","","","","","","","","","","","","","","","","","","","","","","","","","","","","","","","",""
"","","plant-game","0","94","1480389","0-0","","200","120","1","WHEAT CROP","Left","200","120","1","NETTLE WEED","experimental","34","1","120","1","WHEAT CROP","120","1","NETTLE WEED","20","20","10","20","0","20","20","20","10","20","0","20","1","2392","12.439863558043129","7.30122724385601","0","0"
"884","86","text","0","95","1481444","0-0","","","","","","","","","","","","","","","","","","","","","","","","","","","","","","","","","","","","",""
"","","plant-game","0","96","1500860","0-0","","200","160","1","CORN CROP","Right","200","120","8","THISTLE WEED","experimental","35","1,2,3,4,5,6,7,8","120,146.99768494428434,111.17970087787317,158.12476909732328,163.7848589942403,211.21791301090008,215.93913457151962,253.23968514799907","8,7,6,5,4,3,2,1","THISTLE WEED,THISTLE WEED,THISTLE WEED,THISTLE WEED,THISTLE WEED,THISTLE WEED,THISTLE WEED,THISTLE WEED","160,130,119.56201732875518,164.69262214057966,178.17484212666167,207.39919047006936,202.92889231850478,220.67781201714928","1,7,6,5,4,3,2,1","CORN CROP,WHEAT CROP,WHEAT CROP,WHEAT CROP,WHEAT CROP,WHEAT CROP,WHEAT CROP,WHEAT CROP","0,0,0,0,0,0,0,0","20,20,20,20,20,20,20,20","10,10,10,10,10,10,10,10","20,20,20,20,20,20,20,20","20,20,20,20,20,20,20,20","20,20,20,20,20,20,20,20","0,0,0,0,0,0,0,0","20,20,20,20,20,20,20,20","10,10,10,10,10,10,10,10","20,20,20,20,20,20,20,20","20,20,20,20,20,20,20,20","20,20,20,20,20,20,20,20","1,0,1,1,1,0,1,0","3143,2347,1145,1705,638,1043,709,969","26.997684944284337,-35.81798406641117,46.94506821945011,5.660089896917002,47.43305401665978,4.721221560619531,37.30055057647944,17.75642466003215","10.468457058815403,-10.43798267124483,45.1306048118245,13.482219986082006,29.22434834340769,-4.470298151564576,17.74891969864451,35.568895888264","0","0"
"306","86","text","0","97","1501226","0-0","","","","","","","","","","","","","","","","","","","","","","","","","","","","","","","","","","","","",""
"","","plant-game","0","98","1521950","0-0","","200","190","8","WHEAT CROP","Left","200","120","4","NETTLE WEED","experimental","36","1,2,3,4,5,6,7,8","190,211.68093212311885,216.80056463124166,214.07942829727455,208.09260897837808,209.59254732194177,263.60897459127153,264.5537504933687","8,7,6,5,4,3,2,1","WHEAT CROP,WHEAT CROP,WHEAT CROP,WHEAT CROP,WHEAT CROP,WHEAT CROP,WHEAT CROP,WHEAT CROP","120,131.04689781321855,121.74000453958377,147.42142600518648,160,192.66194874522546,222.10882640025832,204.04779017020707","4,3,2,1,4,3,2,1","NETTLE WEED,NETTLE WEED,NETTLE WEED,NETTLE WEED,THISTLE WEED,THISTLE WEED,THISTLE WEED,THISTLE WEED","20,20,20,20,20,20,20,20","20,20,20,20,20,20,20,20","10,10,10,10,10,10,10,10","20,20,20,20,20,20,20,20","0,0,0,0,0,0,0,0","20,20,20,20,20,20,20,20","20,20,20,20,20,20,20,20","20,20,20,20,20,20,20,20","10,10,10,10,10,10,10,10","20,20,20,20,20,20,20,20","0,0,0,0,0,0,0,0","20,20,20,20,20,20,20,20","1,1,1,1,1,0,1,1","944,1092,437,1381,5981,1526,1259,407","21.68093212311884,5.1196325081228,-2.7211363339671157,-5.986819318896474,1.4999383435636873,54.01642726932978,0.9447759020971744,-33.226505125795185","11.046897813218557,-9.306893273634788,25.68142146560271,-4.255796563462653,32.66194874522546,29.446877655032864,-18.06103623005125,-38.1220616894172","0","0"
"700","86","text","0","99","1522740","0-0","","","","","","","","","","","","","","","","","","","","","","","","","","","","","","","","","","","","",""
"","","plant-game","0","100","1543097","0-0","","200","160","1","CORN CROP","Left","200","180","8","NETTLE WEED","experimental","37","1,2,3,4,5,6,7,8","160,130,149.02191964248732,130.84834317842666,153.7225215823301,189.60063384414528,167.06774036437614,184.23865822657015","1,7,6,5,4,3,2,1","CORN CROP,WHEAT CROP,WHEAT CROP,WHEAT CROP,WHEAT CROP,WHEAT CROP,WHEAT CROP,WHEAT CROP","180,174.49333569045282,178.36953474179944,180.064961949574,246.29118752592592,235.6764261949555,272.4787995294305,293.4000428746761","8,7,6,5,4,3,2,1","NETTLE WEED,NETTLE WEED,NETTLE WEED,NETTLE WEED,NETTLE WEED,NETTLE WEED,NETTLE WEED,NETTLE WEED","20,20,20,20,20,20,20,20","20,20,20,20,20,20,20,20","10,10,10,10,10,10,10,10","20,20,20,20,20,20,20,20","0,0,0,0,0,0,0,0","20,20,20,20,20,20,20,20","20,20,20,20,20,20,20,20","20,20,20,20,20,20,20,20","10,10,10,10,10,10,10,10","20,20,20,20,20,20,20,20","0,0,0,0,0,0,0,0","20,20,20,20,20,20,20,20","1,1,1,0,0,0,1,0","1673,3417,713,919,889,313,830,2126","19.415632169129058,19.021919642487312,-18.173576464060673,22.87417840390343,35.87811226181518,-22.532893479769143,17.170917862194013,14.488676999911988","-5.506664309547165,3.876199051346618,1.6954272077745665,66.22622557635191,-10.614761330970424,36.80237333447502,20.921243345245596,23.500934497752326","0","0"
"100","86","text","0","101","1543317","0-0","","","","","","","","","","","","","","","","","","","","","","","","","","","","","","","","","","","","",""
"","","plant-game","0","102","1558582","0-0","","200","190","4","CORN CROP","Left","200","120","4","NETTLE WEED","experimental","38","1,2,3,4","190,211.54310472912894,179.41824597209055,198.19325600509916","4,3,2,1","CORN CROP,CORN CROP,CORN CROP,CORN CROP","120,191.43318618142865,180.9288159604199,172.44737948969205","4,3,2,1","NETTLE WEED,NETTLE WEED,NETTLE WEED,NETTLE WEED","20,20,20,20","20,20,20,20","10,10,10,10","20,20,20,20","0,0,0,0","20,20,20,20","20,20,20,20","20,20,20,20","10,10,10,10","20,20,20,20","0,0,0,0","20,20,20,20","0,1,0,0","7304,1688,890,700","21.543104729128945,-32.1248587570384,18.775010033008616,-19.24398246490091","71.43318618142865,-10.504370221008744,-8.481436470727857,38.878576117053804","0","0"
"1301","86","text","0","103","1560130","0-0","","","","","","","","","","","","","","","","","","","","","","","","","","","","","","","","","","","","",""
"","","plant-game","0","104","1581015","0-0","","200","120","1","WHEAT CROP","Right","200","190","8","NETTLE WEED","experimental","39","1,2,3,4,5,6,7,8","190,181.09616523335814,200.01624994459357,214.49148018989433,228.15626755482947,211.3825657126365,220.43129399456,224.58488608866756","8,7,6,5,4,3,2,1","NETTLE WEED,NETTLE WEED,NETTLE WEED,NETTLE WEED,NETTLE WEED,NETTLE WEED,NETTLE WEED,NETTLE WEED","120,130,134.35673694372798,165.3836976378568,163.410773166588,165.41388998144674,188.95593795321898,174.66886015761318","1,7,6,5,4,3,2,1","WHEAT CROP,CORN CROP,CORN CROP,CORN CROP,CORN CROP,CORN CROP,CORN CROP,CORN CROP","0,0,0,0,0,0,0,0","20,20,20,20,20,20,20,20","10,10,10,10,10,10,10,10","20,20,20,20,20,20,20,20","20,20,20,20,20,20,20,20","20,20,20,20,20,20,20,20","0,0,0,0,0,0,0,0","20,20,20,20,20,20,20,20","10,10,10,10,10,10,10,10","20,20,20,20,20,20,20,20","20,20,20,20,20,20,20,20","20,20,20,20,20,20,20,20","0,0,1,0,1,1,0,1","3315,2797,991,1298,1434,451,769,837","-8.903834766641857,18.920084711235436,14.47523024530075,13.664787364935151,-16.77370184219295,9.048728281923493,4.153592094107561,5.267125695437008","57.038117444915066,4.35673694372798,31.026960694128817,-1.9729244712688045,2.0031168148587284,23.54204797177223,-14.287077795605809,-20.873326878655057","0","0"
"664","86","text","0","105","1581839","0-0","","","","","","","","","","","","","","","","","","","","","","","","","","","","","","","","","","","","",""
"","","plant-game","0","106","1609538","0-0","","200","190","2","WHEAT CROP","Left","200","180","4","THISTLE WEED","experimental","40","1,2,3,4","190,251.7280053173215,180,216.2830809396555","2,1,2,1","WHEAT CROP,WHEAT CROP,CORN CROP,CORN CROP","180,208.659757024462,291.31114980844325,289.1516516924893","4,3,2,1","THISTLE WEED,THISTLE WEED,THISTLE WEED,THISTLE WEED","20,20,20,20","20,20,20,20","10,10,10,10","20,20,20,20","0,0,0,0","20,20,20,20","20,20,20,20","20,20,20,20","10,10,10,10","20,20,20,20","0,0,0,0","20,20,20,20","0,0,1,1","9350,3759,3876,1247","61.7280053173215,11.341172535152744,36.283080939655484,-12.71291125625119","28.65975702446201,82.65139278398124,-2.1594981159539617,16.826898340846775","0","0"
"1697","86","text","0","107","1611405","0-0","","","","","","","","","","","","","","","","","","","","","","","","","","","","","","","","","","","","",""
"","","plant-game","0","108","1635147","0-0","","200","120","8","CORN CROP","Right","200","180","2","THISTLE WEED","experimental","41","1,2,3,4,5,6,7,8","180,195.87116481839988,140,124.43409708102742,165.15088009264065,161.28916616152893,193.24678865537393,218.4553120903525","2,1,6,5,4,3,2,1","THISTLE WEED,THISTLE WEED,NETTLE WEED,NETTLE WEED,NETTLE WEED,NETTLE WEED,NETTLE WEED,NETTLE WEED","120,121.6995500356213,143.964195771028,194.96936388656889,187.21441454303584,174.53660433554964,194.46967959236392,218.77443137105567","8,7,6,5,4,3,2,1","CORN CROP,CORN CROP,CORN CROP,CORN CROP,CORN CROP,CORN CROP,CORN CROP,CORN CROP","0,0,0,0,0,0,0,0","20,20,20,20,20,20,20,20","10,10,10,10,10,10,10,10","20,20,20,20,20,20,20,20","20,20,20,20,20,20,20,20","20,20,20,20,20,20,20,20","0,0,0,0,0,0,0,0","20,20,20,20,20,20,20,20","10,10,10,10,10,10,10,10","20,20,20,20,20,20,20,20","20,20,20,20,20,20,20,20","20,20,20,20,20,20,20,20","0,1,1,1,0,1,1,0","3699,1756,5045,1296,851,614,792,1454","15.871164818399881,8.235245797534672,-15.565902918972583,40.71678301161322,-3.8617139311117192,31.95762249384502,25.20852343497856,6.9385191499364485","1.6995500356212958,22.26464573540668,51.0051681155409,-7.754949343533045,-12.677810207486193,19.933075256814277,24.30475177869176,10.733868597741631","0","0"
"501","86","text","0","109","1635768","0-0","","","","","","","","","","","","","","","","","","","","","","","","","","","","","","","","","","","","",""
"","","plant-game","0","110","1656023","0-0","","200","160","8","WHEAT CROP","Left","200","180","1","THISTLE WEED","experimental","42","1,2,3,4,5,6,7,8","160,134.98199962621356,142.6490070718989,139.5295781642712,135.00996261447696,161.4698252698281,177.30609718305786,233.78529313282263","8,7,6,5,4,3,2,1","WHEAT CROP,WHEAT CROP,WHEAT CROP,WHEAT CROP,WHEAT CROP,WHEAT CROP,WHEAT CROP,WHEAT CROP","180,130,137.7489308583008,148.9272563992542,163.9111950108134,165.36175893002562,206.50144263539332,259.21669996170374","1,7,6,5,4,3,2,1","THISTLE WEED,NETTLE WEED,NETTLE WEED,NETTLE WEED,NETTLE WEED,NETTLE WEED,NETTLE WEED,NETTLE WEED","20,20,20,20,20,20,20,20","20,20,20,20,20,20,20,20","10,10,10,10,10,10,10,10","20,20,20,20,20,20,20,20","0,0,0,0,0,0,0,0","20,20,20,20,20,20,20,20","20,20,20,20,20,20,20,20","20,20,20,20,20,20,20,20","10,10,10,10,10,10,10,10","20,20,20,20,20,20,20,20","0,0,0,0,0,0,0,0","20,20,20,20,20,20,20,20","1,0,0,1,0,0,0,0","3717,2915,514,1027,917,652,974,2062","-25.01800037378645,7.667007445685323,-3.1194289076277073,-4.519615549794228,26.45986265535116,15.83627191322976,56.47919594976477,25.326895642585782","-29.145679913065173,7.748930858300806,11.178325540953391,14.9839386115592,1.450563919212204,41.1396837053677,52.71525732631044,16.970015894225853","0","0"
"215","86","text","0","111","1656348","0-0","","","","","","","","","","","","","","","","","","","","","","","","","","","","","","","","","","","","",""
"","","plant-game","0","112","1681693","0-0","","200","120","2","CORN CROP","Right","200","160","8","THISTLE WEED","experimental","43","1,2,3,4,5,6,7,8","160,154.1148143374357,189.6682392543626,200.5562813599882,192.00791513013723,192.26082775918556,177.4338163231991,178.08226968387547","8,7,6,5,4,3,2,1","THISTLE WEED,THISTLE WEED,THISTLE WEED,THISTLE WEED,THISTLE WEED,THISTLE WEED,THISTLE WEED,THISTLE WEED","120,102.04250632246294,140,145.67092398146164,127.84384339668436,101.88442353292803,87.0577590183809,48.503748720518104","2,1,6,5,4,3,2,1","CORN CROP,CORN CROP,WHEAT CROP,WHEAT CROP,WHEAT CROP,WHEAT CROP,WHEAT CROP,WHEAT CROP","0,0,0,0,0,0,0,0","20,20,20,20,20,20,20,20","10,10,10,10,10,10,10,10","20,20,20,20,20,20,20,20","20,20,20,20,20,20,20,20","20,20,20,20,20,20,20,20","0,0,0,0,0,0,0,0","20,20,20,20,20,20,20,20","10,10,10,10,10,10,10,10","20,20,20,20,20,20,20,20","20,20,20,20,20,20,20,20","20,20,20,20,20,20,20,20","0,0,1,0,0,0,0,0","5217,429,5438,3719,559,1068,462,306","-5.885185662564303,35.5534249169269,10.888042105625612,-8.548366229850968,0.2529126290483116,-14.827011435986464,0.6484533606763688,-17.191764368542593","-17.957493677537066,29.841596121234257,5.670923981461639,-17.82708058477728,-25.959419863756345,-14.82666451454712,-38.5540102978628,22.353122988910865","0","0"
"281","86","text","0","113","1682074","0-0","","","","","","","","","","","","","","","","","","","","","","","","","","","","","","","","","","","","",""
"","","plant-game","0","114","1707216","0-0","","200","160","8","WHEAT CROP","Right","200","160","2","THISTLE WEED","experimental","44","1,2,3,4,5,6,7,8","160,177.42377752706653,140,139.65115177637077,164.47101607133547,168.3847330013356,168.51457677543235,181.4460078714803","2,1,6,5,4,3,2,1","THISTLE WEED,THISTLE WEED,NETTLE WEED,NETTLE WEED,NETTLE WEED,NETTLE WEED,NETTLE WEED,NETTLE WEED","160,164.09546874998352,205.67974341667556,186.25293348125712,215.77158567255128,207.6328165993021,229.65237530386318,267.8046543720345","8,7,6,5,4,3,2,1","WHEAT CROP,WHEAT CROP,WHEAT CROP,WHEAT CROP,WHEAT CROP,WHEAT CROP,WHEAT CROP,WHEAT CROP","0,0,0,0,0,0,0,0","20,20,20,20,20,20,20,20","10,10,10,10,10,10,10,10","20,20,20,20,20,20,20,20","20,20,20,20,20,20,20,20","20,20,20,20,20,20,20,20","0,0,0,0,0,0,0,0","20,20,20,20,20,20,20,20","10,10,10,10,10,10,10,10","20,20,20,20,20,20,20,20","20,20,20,20,20,20,20,20","20,20,20,20,20,20,20,20","1,1,0,1,0,1,1,0","4516,471,3886,866,1534,2002,1231,1654","17.423777527066534,10.456672346323138,-0.3488482236292412,24.819864294964695,3.913716930000126,0.12984377409675218,12.931431096047971,3.3532911545338373","4.095468749983539,41.58427466669204,-19.426809935418447,29.518652191294173,-8.13876907324918,22.01955870456109,38.15227906817136,-7.005412865225712","0","0"
"266","86","text","0","115","1707552","0-0","","","","","","","","","","","","","","","","","","","","","","","","","","","","","","","","","","","","",""
"","","plant-game","0","116","1728168","0-0","","200","190","8","CORN CROP","Left","200","120","1","THISTLE WEED","experimental","45","1,2,3,4,5,6,7,8","190,190.52287379219942,204.40908207022562,207.5531486499893,232.07488162596218,241.33308911303237,252.62915969874066,248.82872108901813","8,7,6,5,4,3,2,1","CORN CROP,CORN CROP,CORN CROP,CORN CROP,CORN CROP,CORN CROP,CORN CROP,CORN CROP","120,130,155.18721693398734,211.72785495580834,221.53681225296245,195.7904528419353,161.5742088489522,162.38122736730568","1,7,6,5,4,3,2,1","THISTLE WEED,NETTLE WEED,NETTLE WEED,NETTLE WEED,NETTLE WEED,NETTLE WEED,NETTLE WEED,NETTLE WEED","20,20,20,20,20,20,20,20","20,20,20,20,20,20,20,20","10,10,10,10,10,10,10,10","20,20,20,20,20,20,20,20","0,0,0,0,0,0,0,0","20,20,20,20,20,20,20,20","20,20,20,20,20,20,20,20","20,20,20,20,20,20,20,20","10,10,10,10,10,10,10,10","20,20,20,20,20,20,20,20","0,0,0,0,0,0,0,0","20,20,20,20,20,20,20,20","0,0,0,1,1,1,1,0","4177,2512,1644,1096,649,1370,490,1741","0.5228737921994195,13.886208278026189,3.144066579763688,24.52173297597288,9.258207487070194,11.296070585708282,-3.8004386097225455,27.28368064929748","-9.03211929380753,25.187216933987347,56.540638021821,9.808957297154109,-25.74635941102715,-34.2162439929831,0.8070185183534955,36.6882208617033","0","0"
"696","86","text","0","117","1728934","0-0","","","","","","","","","","","","","","","","","","","","","","","","","","","","","","","","","","","","",""
"","","plant-game","0","118","1748677","0-0","","200","190","4","CORN CROP","Right","200","120","2","NETTLE WEED","experimental","46","1,2,3,4","120,166.97999988143607,180,151.3865526200039","2,1,2,1","NETTLE WEED,NETTLE WEED,THISTLE WEED,THISTLE WEED","190,190.9304198730843,178.7338064194552,200.39763770318953","4,3,2,1","CORN CROP,CORN CROP,CORN CROP,CORN CROP","0,0,0,0","20,20,20,20","10,10,10,10","20,20,20,20","20,20,20,20","20,20,20,20","0,0,0,0","20,20,20,20","10,10,10,10","20,20,20,20","20,20,20,20","20,20,20,20","1,1,0,0","4216,2237,2391,3424","46.97999988143607,21.500581444071745,-28.613447379996103,49.870907052745835","0.9304198730843147,-12.196613453629112,21.66383128373434,30.51639247278901","0","0"
"3325","86","text","0","119","1752122","0-0","","","","","","","","","","","","","","","","","","","","","","","","","","","","","","","","","","","","",""
"","","plant-game","0","120","1759135","0-0","","200","120","1","WHEAT CROP","Left","200","180","1","THISTLE WEED","experimental","47","1","120","1","WHEAT CROP","180","1","THISTLE WEED","20","20","10","20","0","20","20","20","10","20","0","20","1","1967","-3.605268411329869","2.2081150873762394","0","0"
"99","86","text","0","121","1759324","0-0","","","","","","","","","","","","","","","","","","","","","","","","","","","","","","","","","","","","",""
"","","plant-game","0","122","1779855","0-0","","200","120","2","WHEAT CROP","Left","200","120","8","NETTLE WEED","experimental","48","1,2,3,4,5,6,7,8","120,117.26670487991339,140,128.57652923094813,149.4651196139295,121.71771093430473,171.85032803910005,190.64512960380875","2,1,6,5,4,3,2,1","WHEAT CROP,WHEAT CROP,CORN CROP,CORN CROP,CORN CROP,CORN CROP,CORN CROP,CORN CROP","120,136.71804439523592,167.11329201439378,196.42738023882913,253.71134175590305,256.2617011858042,260.814175300578,285.1508751799248","8,7,6,5,4,3,2,1","NETTLE WEED,NETTLE WEED,NETTLE WEED,NETTLE WEED,NETTLE WEED,NETTLE WEED,NETTLE WEED,NETTLE WEED","20,20,20,20,20,20,20,20","20,20,20,20,20,20,20,20","10,10,10,10,10,10,10,10","20,20,20,20,20,20,20,20","0,0,0,0,0,0,0,0","20,20,20,20,20,20,20,20","20,20,20,20,20,20,20,20","20,20,20,20,20,20,20,20","10,10,10,10,10,10,10,10","20,20,20,20,20,20,20,20","0,0,0,0,0,0,0,0","20,20,20,20,20,20,20,20","1,1,1,0,1,0,0,0","4979,233,2131,2618,1239,584,352,308","-2.73329512008661,-18.385975556699226,-11.423470769051875,20.888590382981366,-27.747408679624748,50.132617104795315,18.794801564708692,46.69731905612613","16.71804439523591,30.39524761915787,29.314088224435345,57.28396151707393,2.550359429901148,4.552474114773755,24.33669987934681,52.11925085307137","3","0"
"4369","86","text","0","123","1784464","0-0","","","","","","","","","","","","","","","","","","","","","","","","","","","","","","","","","","","","",""
"","","plant-game","0","124","1806248","0-0","","200","180","1","WHEAT CROP","Right","200","190","4","NETTLE WEED","experimental","49","1,2,3,4","190,228.21549730974655,258.9519351930404,280.06994331264866","4,3,2,1","NETTLE WEED,NETTLE WEED,NETTLE WEED,NETTLE WEED","180,170,176.03502518748533,179.04207443314024","1,3,2,1","WHEAT CROP,CORN CROP,CORN CROP,CORN CROP","0,0,0,0","20,20,20,20","10,10,10,10","20,20,20,20","20,20,20,20","20,20,20,20","0,0,0,0","20,20,20,20","10,10,10,10","20,20,20,20","20,20,20,20","20,20,20,20","1,0,0,0","11530,2068,704,387","38.21549730974655,30.736437883293853,21.11800811960824,5.551800450425764","18.340644078565923,6.035025187485323,3.007049245654913,-0.09493017364630861","0","0"
"203","86","text","0","125","1806581","0-0","","","","","","","","","","","","","","","","","","","","","","","","","","","","","","","","","","","","",""
"","","plant-game","0","126","1822143","0-0","","200","180","2","CORN CROP","Left","200","120","1","NETTLE WEED","experimental","50","1,2","180,193.7980424666339","2,1","CORN CROP,CORN CROP","120,190","1,1","NETTLE WEED,THISTLE WEED","20,20","20,20","10,10","20,20","0,0","20,20","20,20","20,20","10,10","20,20","0,0","20,20","0,0","4119,3307","13.798042466633902,34.933681366721544","18.54193512798534,-16.560402451216646","0","0"
"460","86","text","0","127","1822723","0-0","","","","","","","","","","","","","","","","","","","","","","","","","","","","","","","","","","","","",""
"","","plant-game","0","128","1837338","0-0","","200","120","2","WHEAT CROP","Left","200","160","1","THISTLE WEED","experimental","51","1,2","120,129.63941314511825","2,1","WHEAT CROP,WHEAT CROP","160,190","1,1","THISTLE WEED,NETTLE WEED","20,20","20,20","10,10","20,20","0,0","20,20","20,20","20,20","10,10","20,20","0,0","20,20","1,1","2219,2884","9.63941314511825,-13.604530252019337","42.036260137312205,-15.881101166593265","0","0"
"889","86","text","0","129","1838347","0-0","","","","","","","","","","","","","","","","","","","","","","","","","","","","","","","","","","","","",""
"","","plant-game","0","130","1859640","0-0","","200","190","4","WHEAT CROP","Left","200","160","8","NETTLE WEED","experimental","52","1,2,3,4,5,6,7,8","190,219.3142349882228,238.8896506369335,242.38952179810022,160,154.37380136104616,173.91480800146135,206.07592698655634","4,3,2,1,4,3,2,1","WHEAT CROP,WHEAT CROP,WHEAT CROP,WHEAT CROP,CORN CROP,CORN CROP,CORN CROP,CORN CROP","160,172.93842265638418,235.05134281233617,236.84126982585988,274.31887531852686,243.36464937404298,267.4002278980613,309.0693606426481","8,7,6,5,4,3,2,1","NETTLE WEED,NETTLE WEED,NETTLE WEED,NETTLE WEED,NETTLE WEED,NETTLE WEED,NETTLE WEED,NETTLE WEED","20,20,20,20,20,20,20,20","20,20,20,20,20,20,20,20","10,10,10,10,10,10,10,10","20,20,20,20,20,20,20,20","0,0,0,0,0,0,0,0","20,20,20,20,20,20,20,20","20,20,20,20,20,20,20,20","20,20,20,20,20,20,20,20","10,10,10,10,10,10,10,10","20,20,20,20,20,20,20,20","0,0,0,0,0,0,0,0","20,20,20,20,20,20,20,20","0,1,0,0,1,0,0,0","4397,2140,944,458,4084,1614,774,565","29.314234988222818,19.575415648710692,3.499871161166716,17.982763491782176,-5.626198638953842,19.541006640415183,32.161118985095,1.247897830861394","12.938422656384166,62.11292015595199,1.7899270135236982,37.477605492666996,-30.95422594448388,24.03557852401834,41.66913274458679,14.267796877110808","0","0"
"1072","86","text","0","131","1860837","0-0","","","","","","","","","","","","","","","","","","","","","","","","","","","","","","","","","","","","",""
"","","plant-game","0","132","1882450","0-0","","200","120","8","CORN CROP","Right","200","180","1","NETTLE WEED","experimental","53","1,2,3,4,5,6,7,8","180,130,157.18910145573938,196.94664686064434,201.85070092500374,213.61459393517626,233.926605081674,230.76859332721975","1,7,6,5,4,3,2,1","NETTLE WEED,THISTLE WEED,THISTLE WEED,THISTLE WEED,THISTLE WEED,THISTLE WEED,THISTLE WEED,THISTLE WEED","120,117.4912169897918,144.39899495299125,186.94064486753038,210.65487174748313,244.07340803168705,276.6194365341212,271.63766207651815","8,7,6,5,4,3,2,1","CORN CROP,CORN CROP,CORN CROP,CORN CROP,CORN CROP,CORN CROP,CORN CROP,CORN CROP","0,0,0,0,0,0,0,0","20,20,20,20,20,20,20,20","10,10,10,10,10,10,10,10","20,20,20,20,20,20,20,20","20,20,20,20,20,20,20,20","20,20,20,20,20,20,20,20","0,0,0,0,0,0,0,0","20,20,20,20,20,20,20,20","10,10,10,10,10,10,10,10","20,20,20,20,20,20,20,20","20,20,20,20,20,20,20,20","20,20,20,20,20,20,20,20","0,1,1,0,1,1,0,0","5533,2302,392,1398,1870,1606,671,204","-6.060083642480835,27.189101455739383,39.75754540490496,4.904054064359407,11.763893010172533,20.312011146497742,-3.158011754454276,10.02269845682106","-2.508783010208199,26.90777796319944,42.54164991453913,23.714226879952758,33.41853628420391,32.5460285024341,-4.981774457603043,4.56133409142254","0","0"
"223","86","text","0","133","1882793","0-0","","","","","","","","","","","","","","","","","","","","","","","","","","","","","","","","","","","","",""
"","","plant-game","0","134","1893626","0-0","","200","180","4","CORN CROP","Left","200","180","4","THISTLE WEED","experimental","54","1,2,3,4","180,181.92111584883895,220.02532346434913,228.33001904224307","4,3,2,1","CORN CROP,CORN CROP,CORN CROP,CORN CROP","180,209.88109562394888,237.1175212193838,258.1551133617705","4,3,2,1","THISTLE WEED,THISTLE WEED,THISTLE WEED,THISTLE WEED","20,20,20,20","20,20,20,20","10,10,10,10","20,20,20,20","0,0,0,0","20,20,20,20","20,20,20,20","20,20,20,20","10,10,10,10","20,20,20,20","0,0,0,0","20,20,20,20","0,0,1,0","4946,155,695,1138","1.9211158488389621,38.10420761551019,8.304695577893936,32.690708047462536","29.88109562394888,27.236425595434916,21.037592142386675,39.45690857237099","0","0"
"675","86","text","0","135","1894461","0-0","","","","","","","","","","","","","","","","","","","","","","","","","","","","","","","","","","","","",""
"","","plant-game","0","136","1911641","0-0","","200","120","1","WHEAT CROP","Right","200","160","8","NETTLE WEED","experimental","55","1,2,3,4,5,6,7,8","160,180.3908098641038,224.8369793342357,250.04641523842264,267.25053328235913,294.8996998223309,313.09455969488096,330.6353547406149","8,7,6,5,4,3,2,1","NETTLE WEED,NETTLE WEED,NETTLE WEED,NETTLE WEED,NETTLE WEED,NETTLE WEED,NETTLE WEED,NETTLE WEED","120,130,118.76886508177614,124.97250449578874,168.87637724751013,222.01762476620337,242.79268867965695,272.91472477382456","1,7,6,5,4,3,2,1","WHEAT CROP,CORN CROP,CORN CROP,CORN CROP,CORN CROP,CORN CROP,CORN CROP,CORN CROP","0,0,0,0,0,0,0,0","20,20,20,20,20,20,20,20","10,10,10,10,10,10,10,10","20,20,20,20,20,20,20,20","20,20,20,20,20,20,20,20","20,20,20,20,20,20,20,20","0,0,0,0,0,0,0,0","20,20,20,20,20,20,20,20","10,10,10,10,10,10,10,10","20,20,20,20,20,20,20,20","20,20,20,20,20,20,20,20","20,20,20,20,20,20,20,20","1,0,0,1,1,1,1,1","1735,2064,458,876,489,391,968,790","20.390809864103808,44.44616947013189,25.20943590418692,17.204118043936475,27.64916653997176,18.194859872550094,17.540795045733965,37.861241200496195","5.050765427344876,-11.231134918223864,6.203639414012603,43.903872751721394,53.14124751869323,20.77506391345357,30.122036094167587,38.859406309856936","0","0"
"504","86","text","0","137","1912275","0-0","","","","","","","","","","","","","","","","","","","","","","","","","","","","","","","","","","","","",""
"","","plant-game","0","138","1924495","0-0","","200","190","2","CORN CROP","Left","200","180","1","THISTLE WEED","experimental","56","1,2","190,213.21251872442946","2,1","CORN CROP,CORN CROP","180,190","1,1","THISTLE WEED,NETTLE WEED","20,20","20,20","10,10","20,20","0,0","20,20","20,20","20,20","10,10","20,20","0,0","20,20","0,0","2683,1800","23.212518724429447,30.22089826285637","52.91498302181288,-5.403095033169105","0","0"
"565","86","text","0","139","1925170","0-0","","","","","","","","","","","","","","","","","","","","","","","","","","","","","","","","","","","","",""
"","","plant-game","0","140","1942997","0-0","","200","180","8","CORN CROP","Right","200","190","2","NETTLE WEED","experimental","57","1,2,3,4,5,6,7,8","190,178.52080080948585,140,174.9219952269968,187.01546241288696,239.88007149605386,264.28759773152325,271.39317897456897","2,1,6,5,4,3,2,1","NETTLE WEED,NETTLE WEED,THISTLE WEED,THISTLE WEED,THISTLE WEED,THISTLE WEED,THISTLE WEED,THISTLE WEED","180,180.657254231792,179.84432555005196,211.68248202650489,195.84548608973557,221.1881476232188,200.62225639064934,202.64057178612507","8,7,6,5,4,3,2,1","CORN CROP,CORN CROP,CORN CROP,CORN CROP,CORN CROP,CORN CROP,CORN CROP,CORN CROP","0,0,0,0,0,0,0,0","20,20,20,20,20,20,20,20","10,10,10,10,10,10,10,10","20,20,20,20,20,20,20,20","20,20,20,20,20,20,20,20","20,20,20,20,20,20,20,20","0,0,0,0,0,0,0,0","20,20,20,20,20,20,20,20","10,10,10,10,10,10,10,10","20,20,20,20,20,20,20,20","20,20,20,20,20,20,20,20","20,20,20,20,20,20,20,20","0,0,1,0,1,0,0,1","806,2159,1261,2517,1145,776,1191,782","-11.479199190514144,-19.258366621540606,34.921995226996806,12.09346718589016,52.86460908316689,24.40752623546937,7.105581243045699,6.328423520838902","0.6572542317919848,-0.8129286817400367,31.838156476452923,-15.836995936769311,25.342661533483238,-20.56589123256948,2.018315395475725,32.14534072583518","0","0"
"684","86","text","0","141","1943771","0-0","","","","","","","","","","","","","","","","","","","","","","","","","","","","","","","","","","","","",""
"","","plant-game","0","142","1963811","0-0","","200","180","2","CORN CROP","Left","200","180","4","THISTLE WEED","experimental","58","1,2,3,4","180,190.4907525969505,180,188.72431986295365","2,1,2,1","CORN CROP,CORN CROP,WHEAT CROP,WHEAT CROP","180,200.86588981533697,208.9723891135475,211.20890518906177","4,3,2,1","THISTLE WEED,THISTLE WEED,THISTLE WEED,THISTLE WEED","20,20,20,20","20,20,20,20","10,10,10,10","20,20,20,20","0,0,0,0","20,20,20,20","20,20,20,20","20,20,20,20","10,10,10,10","20,20,20,20","0,0,0,0","20,20,20,20","1,0,1,0","990,972,7109,3672","10.49075259695051,0.31684402280510326,8.724319862953656,32.283693350540176","20.86588981533697,8.106499298210547,2.2365160755142717,13.997212894172657","0","0"
"968","86","text","0","143","1964859","0-0","","","","","","","","","","","","","","","","","","","","","","","","","","","","","","","","","","","","",""
"","","plant-game","0","144","1985811","0-0","","200","160","1","CORN CROP","Left","200","160","8","NETTLE WEED","experimental","59","1,2,3,4,5,6,7,8","160,130,132.526313754263,154.3332212316206,202.46129856454087,203.15401628387463,235.55758676907936,219.5721809839059","1,7,6,5,4,3,2,1","CORN CROP,WHEAT CROP,WHEAT CROP,WHEAT CROP,WHEAT CROP,WHEAT CROP,WHEAT CROP,WHEAT CROP","160,189.80825504675653,189.8426077617795,170.2087576354471,148.46958652012756,144.86174118586138,131.38557454743204,121.18104870114874","8,7,6,5,4,3,2,1","NETTLE WEED,NETTLE WEED,NETTLE WEED,NETTLE WEED,NETTLE WEED,NETTLE WEED,NETTLE WEED,NETTLE WEED","20,20,20,20,20,20,20,20","20,20,20,20,20,20,20,20","10,10,10,10,10,10,10,10","20,20,20,20,20,20,20,20","0,0,0,0,0,0,0,0","20,20,20,20,20,20,20,20","20,20,20,20,20,20,20,20","20,20,20,20,20,20,20,20","10,10,10,10,10,10,10,10","20,20,20,20,20,20,20,20","0,0,0,0,0,0,0,0","20,20,20,20,20,20,20,20","0,1,1,1,1,1,1,1","2955,2946,104,475,2134,453,437,2240","6.706250203159481,2.526313754262996,21.806907477357598,48.12807733292027,0.6927177193337658,32.40357048520475,-15.985405785173478,41.53652633314941","29.808255046756514,0.03435271502297975,-19.633850126332394,-21.739171115319557,-3.6078453342661785,-13.476166638429328,-10.204525846283305,-23.915736772344168","0","0"
"2085","86","text","0","145","1988006","0-0","","","","","","","","","","","","","","","","","","","","","","","","","","","","","","","","","","","","",""
"","","plant-game","0","146","2001602","0-0","","200","180","2","WHEAT CROP","Left","200","190","4","THISTLE WEED","experimental","60","1,2,3,4","180,195.82475548744276,180,188.6894041408037","2,1,2,1","WHEAT CROP,WHEAT CROP,CORN CROP,CORN CROP","190,195.79597407656024,191.43472992737603,201.98547783888375","4,3,2,1","THISTLE WEED,THISTLE WEED,THISTLE WEED,THISTLE WEED","20,20,20,20","20,20,20,20","10,10,10,10","20,20,20,20","0,0,0,0","20,20,20,20","20,20,20,20","20,20,20,20","10,10,10,10","20,20,20,20","0,0,0,0","20,20,20,20","1,1,1,0","2582,429,1363,1247","15.824755487442747,21.857350319531506,8.689404140803706,-2.2180465964905167","5.795974076560254,-4.3612441491842215,10.550747911507734,45.88416650716663","0","0"
"122","86","text","0","147","2001794","0-0","","","","","","","","","","","","","","","","","","","","","","","","","","","","","","","","","","","","",""
"","","plant-game","0","148","2012963","0-0","","200","190","4","WHEAT CROP","Left","200","190","4","NETTLE WEED","experimental","61","1,2,3,4","190,216.3595843592554,219.481076202993,222.33697450612712","4,3,2,1","WHEAT CROP,WHEAT CROP,WHEAT CROP,WHEAT CROP","190,191.7331167210286,203.15807962123526,231.55769460184374","4,3,2,1","NETTLE WEED,NETTLE WEED,NETTLE WEED,NETTLE WEED","20,20,20,20","20,20,20,20","10,10,10,10","20,20,20,20","0,0,0,0","20,20,20,20","20,20,20,20","20,20,20,20","10,10,10,10","20,20,20,20","0,0,0,0","20,20,20,20","1,1,0,1","3875,1585,1023,626","26.359584359255408,3.1214918437375987,2.855898303134129,13.224915460560812","1.7331167210286023,11.424962900206651,28.399614980608483,0.46185232757198336","0","0"
"456","86","text","0","149","2013519","0-0","","","","","","","","","","","","","","","","","","","","","","","","","","","","","","","","","","","","",""
"","","plant-game","0","150","2030141","0-0","","200","160","2","WHEAT CROP","Right","200","160","4","NETTLE WEED","experimental","62","1,2,3,4","160,167.02844052580593,181.52720402766423,167.5597517899603","4,3,2,1","NETTLE WEED,NETTLE WEED,NETTLE WEED,NETTLE WEED","160,195.63185443766426,180,152.1123636424898","2,1,2,1","WHEAT CROP,WHEAT CROP,CORN CROP,CORN CROP","0,0,0,0","20,20,20,20","10,10,10,10","20,20,20,20","20,20,20,20","20,20,20,20","0,0,0,0","20,20,20,20","10,10,10,10","20,20,20,20","20,20,20,20","20,20,20,20","1,1,0,0","3711,498,4515,793","7.028440525805941,14.498763501858303,-13.967452237703913,-45.81459080773772","35.63185443766426,4.377504049960429,-27.887636357510203,10.546230374329866","0","0"
"268","86","text","0","151","2030479","0-0","","","","","","","","","","","","","","","","","","","","","","","","","","","","","","","","","","","","",""
"","","plant-game","0","152","2040300","0-0","","200","160","4","WHEAT CROP","Left","200","180","4","NETTLE WEED","experimental","63","1,2,3,4","160,190.59501465923245,189.27324826948828,198.27432054307025","4,3,2,1","WHEAT CROP,WHEAT CROP,WHEAT CROP,WHEAT CROP","180,198.0070703472577,244.91104769865797,215.62952077554894","4,3,2,1","NETTLE WEED,NETTLE WEED,NETTLE WEED,NETTLE WEED","20,20,20,20","20,20,20,20","10,10,10,10","20,20,20,20","0,0,0,0","20,20,20,20","20,20,20,20","20,20,20,20","10,10,10,10","20,20,20,20","0,0,0,0","20,20,20,20","0,0,1,1","3101,555,1023,686","30.59501465923244,-1.3217663897441696,9.001072273581968,-9.736776111345517","18.0070703472577,46.903977351400286,-29.28152692310902,7.348165673291048","0","0"
"39","86","text","0","153","2040450","0-0","","","","","","","","","","","","","","","","","","","","","","","","","","","","","","","","","","","","",""
"","","plant-game","0","154","2053644","0-0","","200","160","1","WHEAT CROP","Right","200","120","2","THISTLE WEED","experimental","64","1,2","120,137.35823677756176","2,1","THISTLE WEED,THISTLE WEED","160,190","1,1","WHEAT CROP,CORN CROP","0,0","20,20","10,10","20,20","20,20","20,20","0,0","20,20","10,10","20,20","20,20","20,20","1,1","4416,1436","17.358236777561768,23.87993762373775","13.995149874638146,-33.761816306818886","0","0"
"5194","86","text","0","155","2058963","0-0","","","","","","","","","","","","","","","","","","","","","","","","","","","","","","","","","","","","",""
"","","plant-game","0","156","2086388","0-0","","200","180","8","WHEAT CROP","Right","200","180","2","NETTLE WEED","experimental","65","1,2,3,4,5,6,7,8","180,159.58768054238902,140,161.52295638567927,213.0965169494622,183.90369889067603,161.31313020545457,180.25927519795167","2,1,6,5,4,3,2,1","NETTLE WEED,NETTLE WEED,THISTLE WEED,THISTLE WEED,THISTLE WEED,THISTLE WEED,THISTLE WEED,THISTLE WEED","180,175.3849877109267,190.41389702425175,210.02646118257593,274.75618225044093,223.95848660628965,203.90738622777508,219.604820522608","8,7,6,5,4,3,2,1","WHEAT CROP,WHEAT CROP,WHEAT CROP,WHEAT CROP,WHEAT CROP,WHEAT CROP,WHEAT CROP,WHEAT CROP","0,0,0,0,0,0,0,0","20,20,20,20,20,20,20,20","10,10,10,10,10,10,10,10","20,20,20,20,20,20,20,20","20,20,20,20,20,20,20,20","20,20,20,20,20,20,20,20","0,0,0,0,0,0,0,0","20,20,20,20,20,20,20,20","10,10,10,10,10,10,10,10","20,20,20,20,20,20,20,20","20,20,20,20,20,20,20,20","20,20,20,20,20,20,20,20","0,0,1,1,0,0,0,1","2331,2120,3828,1959,1499,1535,1128,2027","-20.412319457610973,25.267670721894888,21.52295638567927,51.573560563782934,-29.192818058786166,-22.59056868522147,18.946144992497096,27.032481984155602","-4.615012289073279,15.028909313325034,19.61256415832416,64.72972106786503,-50.79769564415127,-20.05110037851457,15.69743429483293,18.16284506330351","0","0"
"700","86","text","0","157","2087183","0-0","","","","","","","","","","","","","","","","","","","","","","","","","","","","","","","","","","","","",""
"","","plant-game","0","158","2098213","0-0","","200","160","2","WHEAT CROP","Left","200","180","2","THISTLE WEED","experimental","66","1,2","160,164.34156505540201","2,1","WHEAT CROP,WHEAT CROP","180,148.6758807290638","2,1","THISTLE WEED,THISTLE WEED","20,20","20,20","10,10","20,20","0,0","20,20","20,20","20,20","10,10","20,20","0,0","20,20","1,1","4830,516","4.341565055402027,16.324749938738716","-31.3241192709362,1.2658228433782137","0","0"
"1018","86","text","0","159","2099411","0-0","","","","","","","","","","","","","","","","","","","","","","","","","","","","","","","","","","","","",""
"","","plant-game","0","160","2129367","0-0","","200","190","2","WHEAT CROP","Right","200","180","8","THISTLE WEED","experimental","67","1,2,3,4,5,6,7,8","180,201.86122073955036,199.6171607985784,207.54861744755573,226.31803666111972,228.6348092397197,262.1647499304898,256.28888566775606","8,7,6,5,4,3,2,1","THISTLE WEED,THISTLE WEED,THISTLE WEED,THISTLE WEED,THISTLE WEED,THISTLE WEED,THISTLE WEED,THISTLE WEED","190,197.3510231943643,140,160.24316766032925,121.88904534369073,144.2390189361463,175.6508834078638,168.22412974806412","2,1,6,5,4,3,2,1","WHEAT CROP,WHEAT CROP,CORN CROP,CORN CROP,CORN CROP,CORN CROP,CORN CROP,CORN CROP","0,0,0,0,0,0,0,0","20,20,20,20,20,20,20,20","10,10,10,10,10,10,10,10","20,20,20,20,20,20,20,20","20,20,20,20,20,20,20,20","20,20,20,20,20,20,20,20","0,0,0,0,0,0,0,0","20,20,20,20,20,20,20,20","10,10,10,10,10,10,10,10","20,20,20,20,20,20,20,20","20,20,20,20,20,20,20,20","20,20,20,20,20,20,20,20","0,0,0,0,0,1,1,0","8795,2691,3952,499,342,1459,100,1117","21.861220739550372,-2.2440599409719777,7.931456648977335,18.76941921356398,2.3167725785999744,33.52994069077011,-5.875864262733707,-5.546570838840007","7.35102319436431,18.568691235877726,20.24316766032924,-38.354122316638524,22.349973592455573,31.41186447171751,-7.426753659799683,20.35155455050317","0","0"
"92","86","text","0","161","2129539","0-0","","","","","","","","","","","","","","","","","","","","","","","","","","","","","","","","","","","","",""
"","","plant-game","0","162","2153256","0-0","","200","120","8","WHEAT CROP","Left","200","190","1","THISTLE WEED","experimental","68","1,2,3,4,5,6,7,8","120,138.58455337443291,152.30639048954316,176.0084877779782,208.798851350146,213.63750350281333,220.92795774018583,242.42129402284735","8,7,6,5,4,3,2,1","WHEAT CROP,WHEAT CROP,WHEAT CROP,WHEAT CROP,WHEAT CROP,WHEAT CROP,WHEAT CROP,WHEAT CROP","190,130,107.55894321520131,144.7674400963428,188.21748877926336,199.18159106961866,228.29295623733583,210.0343021250514","1,7,6,5,4,3,2,1","THISTLE WEED,NETTLE WEED,NETTLE WEED,NETTLE WEED,NETTLE WEED,NETTLE WEED,NETTLE WEED,NETTLE WEED","20,20,20,20,20,20,20,20","20,20,20,20,20,20,20,20","10,10,10,10,10,10,10,10","20,20,20,20,20,20,20,20","0,0,0,0,0,0,0,0","20,20,20,20,20,20,20,20","20,20,20,20,20,20,20,20","20,20,20,20,20,20,20,20","10,10,10,10,10,10,10,10","20,20,20,20,20,20,20,20","0,0,0,0,0,0,0,0","20,20,20,20,20,20,20,20","1,0,0,0,1,1,0,0","3545,4103,451,425,4311,695,1465,562","18.584553374432925,13.721837115110251,23.70209728843504,32.79036357216782,4.838652152667329,7.290454237372498,21.493336282661513,27.684940461258186","-25.549947200582288,-22.441056784798683,37.208496881141485,43.45004868292056,10.964102290355305,29.111365167717167,-18.258654112284432,39.72006374985231","0","0"
"509","86","text","0","163","2153855","0-0","","","","","","","","","","","","","","","","","","","","","","","","","","","","","","","","","","","","",""
"","","plant-game","0","164","2179861","0-0","","200","190","8","WHEAT CROP","Right","200","160","4","THISTLE WEED","experimental","69","1,2,3,4,5,6,7,8","160,202.5922663526698,194.11583242869924,240.4215384066676,160,198.47273889171248,168.51165829210785,131.38686647844747","4,3,2,1,4,3,2,1","THISTLE WEED,THISTLE WEED,THISTLE WEED,THISTLE WEED,NETTLE WEED,NETTLE WEED,NETTLE WEED,NETTLE WEED","190,168.10235404431694,170.55636359690774,170.9289485020136,182.56091288778342,221.45097165885983,244.49705989828513,250.305725134892","8,7,6,5,4,3,2,1","WHEAT CROP,WHEAT CROP,WHEAT CROP,WHEAT CROP,WHEAT CROP,WHEAT CROP,WHEAT CROP,WHEAT CROP","0,0,0,0,0,0,0,0","20,20,20,20,20,20,20,20","10,10,10,10,10,10,10,10","20,20,20,20,20,20,20,20","20,20,20,20,20,20,20,20","20,20,20,20,20,20,20,20","0,0,0,0,0,0,0,0","20,20,20,20,20,20,20,20","10,10,10,10,10,10,10,10","20,20,20,20,20,20,20,20","20,20,20,20,20,20,20,20","20,20,20,20,20,20,20,20","1,0,0,1,1,1,0,0","2354,2454,433,1857,4950,66,4476,1214","42.59226635266982,-8.476433923970587,46.30570597796836,11.637346572079469,38.47273889171247,-29.96108059960462,-37.12479181366039,-11.15150629159591","-21.89764595568306,2.4540095525908017,0.372584905105873,11.631964385769818,38.89005877107641,23.046088239425305,5.808665236606848,-9.003396102613435","0","0"
"732","86","text","0","165","2180703","0-0","","","","","","","","","","","","","","","","","","","","","","","","","","","","","","","","","","","","",""
"","","plant-game","0","166","2200641","0-0","","200","190","4","CORN CROP","Right","200","160","1","NETTLE WEED","experimental","70","1,2,3,4","160,170,172.86732362875645,186.43997957564426","1,3,2,1","NETTLE WEED,THISTLE WEED,THISTLE WEED,THISTLE WEED","190,197.567897863277,213.3472006798342,278.3895133819956","4,3,2,1","CORN CROP,CORN CROP,CORN CROP,CORN CROP","0,0,0,0","20,20,20,20","10,10,10,10","20,20,20,20","20,20,20,20","20,20,20,20","0,0,0,0","20,20,20,20","10,10,10,10","20,20,20,20","20,20,20,20","20,20,20,20","0,1,1,0","6912,2155,2823,1653","-23.693762756422995,2.8673236287564627,13.572655946887798,-5.845981884146592","7.567897863277016,15.779302816557195,65.0423127021614,-20.150599789492357","0","0"
"99","86","text","0","167","2200810","0-0","","","","","","","","","","","","","","","","","","","","","","","","","","","","","","","","","","","","",""
"","","plant-game","0","168","2212405","0-0","","200","180","2","WHEAT CROP","Right","200","120","2","NETTLE WEED","experimental","71","1,2","120,144.80077034384442","2,1","NETTLE WEED,NETTLE WEED","180,172.09882999617915","2,1","WHEAT CROP,WHEAT CROP","0,0","20,20","10,10","20,20","20,20","20,20","0,0","20,20","10,10","20,20","20,20","20,20","0,0","5739,1430","24.800770343844405,-4.44712336264885","-7.901170003820853,-4.110356660703481","0","0"
"614","86","text","0","169","2213129","0-0","","","","","","","","","","","","","","","","","","","","","","","","","","","","","","","","","","","","",""
"","","plant-game","0","170","2234461","0-0","","200","190","1","WHEAT CROP","Right","200","190","8","THISTLE WEED","experimental","72","1,2,3,4,5,6,7,8","190,226.58820570784565,229.1432625562687,248.65480467710034,237.21271688956608,197.593750211409,202.80269775173662,161.77079829892745","8,7,6,5,4,3,2,1","THISTLE WEED,THISTLE WEED,THISTLE WEED,THISTLE WEED,THISTLE WEED,THISTLE WEED,THISTLE WEED,THISTLE WEED","190,130,147.36434548149674,156.75164050739534,149.72896488488462,154.0927413669885,149.2518046872346,150.05963809773468","1,7,6,5,4,3,2,1","WHEAT CROP,CORN CROP,CORN CROP,CORN CROP,CORN CROP,CORN CROP,CORN CROP,CORN CROP","0,0,0,0,0,0,0,0","20,20,20,20,20,20,20,20","10,10,10,10,10,10,10,10","20,20,20,20,20,20,20,20","20,20,20,20,20,20,20,20","20,20,20,20,20,20,20,20","0,0,0,0,0,0,0,0","20,20,20,20,20,20,20,20","10,10,10,10,10,10,10,10","20,20,20,20,20,20,20,20","20,20,20,20,20,20,20,20","20,20,20,20,20,20,20,20","1,0,0,0,0,0,0,0","6644,2712,116,132,734,410,520,880","36.58820570784564,2.555056848423037,19.511542120831642,-11.442087787534263,-39.618966678157086,5.208947540327625,-41.03189945280916,2.770907234054797","25.746648207657927,17.364345481496755,9.387295025898585,-7.02267562251072,4.363776482103865,-4.840936679753903,0.80783341050009,33.846903338879535","0","0"
"785","86","text","0","171","2235376","0-0","","","","","","","","","","","","","","","","","","","","","","","","","","","","","","","","","","","","",""
"","","plant-game","0","172","2259931","0-0","","200","190","8","CORN CROP","Left","200","160","1","THISTLE WEED","experimental","73","1,2,3,4,5,6,7,8","190,182.26420338765251,200.71712259619437,191.2764778795136,208.23311775549507,204.8433299751905,206.46848659664562,234.26895528619343","8,7,6,5,4,3,2,1","CORN CROP,CORN CROP,CORN CROP,CORN CROP,CORN CROP,CORN CROP,CORN CROP,CORN CROP","160,130,127.89139671415818,141.88469702123462,140.38892548598832,153.38013035770945,191.66809280220588,248.3397198288086","1,7,6,5,4,3,2,1","THISTLE WEED,NETTLE WEED,NETTLE WEED,NETTLE WEED,NETTLE WEED,NETTLE WEED,NETTLE WEED,NETTLE WEED","20,20,20,20,20,20,20,20","20,20,20,20,20,20,20,20","10,10,10,10,10,10,10,10","20,20,20,20,20,20,20,20","0,0,0,0,0,0,0,0","20,20,20,20,20,20,20,20","20,20,20,20,20,20,20,20","20,20,20,20,20,20,20,20","10,10,10,10,10,10,10,10","20,20,20,20,20,20,20,20","0,0,0,0,0,0,0,0","20,20,20,20,20,20,20,20","1,0,0,1,1,0,0,1","3607,4033,1397,1221,1137,1194,807,2919","-7.735796612347477,18.452919208541857,-9.440644716680762,16.956639875981455,-3.3897877803045655,1.6251566214551225,27.800468689547817,-39.27991728601081","-9.977875343504952,-2.108603285841827,13.99330030707643,-1.4957715352462833,12.991204871721136,38.287962444496415,56.67162702660272,0.6284025342657864","0","0"
"358","86","text","0","173","2260469","0-0","","","","","","","","","","","","","","","","","","","","","","","","","","","","","","","","","","","","",""
"","","plant-game","0","174","2280191","0-0","","200","120","8","CORN CROP","Right","200","160","2","NETTLE WEED","experimental","74","1,2,3,4,5,6,7,8","160,191.33911493701746,140,189.6296385627136,216.3211350221891,215.71929141643864,257.4572803080005,256.87143425346915","2,1,6,5,4,3,2,1","NETTLE WEED,NETTLE WEED,THISTLE WEED,THISTLE WEED,THISTLE WEED,THISTLE WEED,THISTLE WEED,THISTLE WEED","120,137.40688517872826,124.80889439461029,133.1719091728957,164.6866503049376,156.18428204520325,169.92205555160518,207.4899270102021","8,7,6,5,4,3,2,1","CORN CROP,CORN CROP,CORN CROP,CORN CROP,CORN CROP,CORN CROP,CORN CROP,CORN CROP","0,0,0,0,0,0,0,0","20,20,20,20,20,20,20,20","10,10,10,10,10,10,10,10","20,20,20,20,20,20,20,20","20,20,20,20,20,20,20,20","20,20,20,20,20,20,20,20","0,0,0,0,0,0,0,0","20,20,20,20,20,20,20,20","10,10,10,10,10,10,10,10","20,20,20,20,20,20,20,20","20,20,20,20,20,20,20,20","20,20,20,20,20,20,20,20","0,0,1,1,1,1,1,1","2675,464,6582,146,771,939,474,1035","31.339114937017452,32.146291593165316,49.6296385627136,26.691496459475502,-0.6018436057504815,41.73798889156189,-0.5858460545313875,13.828491358028373","17.406885178728245,-12.597990784117965,8.363014778285427,31.514741132041866,-8.502368259734329,13.737773506401936,37.567871458596926,20.814224017926144","0","0"
"81","86","text","0","175","2280328","0-0","","","","","","","","","","","","","","","","","","","","","","","","","","","","","","","","","","","","",""
"","","plant-game","0","176","2291310","0-0","","200","190","8","WHEAT CROP","Left","200","180","8","THISTLE WEED","experimental","75","1,2,3,4,5,6,7,8","190,184.87484822980844,211.35698513452454,240.0170494523147,283.98596061978674,334.1547713840612,298.68359011400764,303.19000914708795","8,7,6,5,4,3,2,1","WHEAT CROP,WHEAT CROP,WHEAT CROP,WHEAT CROP,WHEAT CROP,WHEAT CROP,WHEAT CROP,WHEAT CROP","180,195.06759570035894,179.7073532790351,191.15901360415498,219.70667309600094,270.2347257426312,297.82234911424985,294.1862125058075","8,7,6,5,4,3,2,1","THISTLE WEED,THISTLE WEED,THISTLE WEED,THISTLE WEED,THISTLE WEED,THISTLE WEED,THISTLE WEED,THISTLE WEED","20,20,20,20,20,20,20,20","20,20,20,20,20,20,20,20","10,10,10,10,10,10,10,10","20,20,20,20,20,20,20,20","0,0,0,0,0,0,0,0","20,20,20,20,20,20,20,20","20,20,20,20,20,20,20,20","20,20,20,20,20,20,20,20","10,10,10,10,10,10,10,10","20,20,20,20,20,20,20,20","0,0,0,0,0,0,0,0","20,20,20,20,20,20,20,20","0,1,0,1,0,1,0,1","4533,126,60,42,94,54,68,1311","-5.125151770191568,26.48213690471609,28.660064317790166,43.968911167472044,50.16881076427441,-35.47118127005356,4.506419033080283,0.11520324138893161","15.067595700358925,-15.360242421323846,11.451660325119876,28.547659491845977,50.52805264663027,27.587623371618623,-3.6361366084423494,30.799483770674673","0","0"
"293","86","text","0","177","2291734","0-0","","","","","","","","","","","","","","","","","","","","","","","","","","","","","","","","","","","","",""
"","","plant-game","0","178","2300416","0-0","","200","190","1","CORN CROP","Left","200","190","1","NETTLE WEED","experimental","76","1","190","1","CORN CROP","190","1","NETTLE WEED","20","20","10","20","0","20","20","20","10","20","0","20","0","2156","30.673695480151068","3.3938869578066537","0","0"
"950","86","text","0","179","2301496","0-0","","","","","","","","","","","","","","","","","","","","","","","","","","","","","","","","","","","","",""
"","","plant-game","0","180","2311349","0-0","","200","190","2","CORN CROP","Right","200","160","2","NETTLE WEED","experimental","77","1,2","160,179.39373476562014","2,1","NETTLE WEED,NETTLE WEED","190,178.541242845471","2,1","CORN CROP,CORN CROP","0,0","20,20","10,10","20,20","20,20","20,20","0,0","20,20","10,10","20,20","20,20","20,20","1,0","3516,1718","19.393734765620138,16.846777862935117","-11.458757154528982,0.6992485371632097","0","0"
"663","86","text","0","181","2312162","0-0","","","","","","","","","","","","","","","","","","","","","","","","","","","","","","","","","","","","",""
"","","plant-game","0","182","2329319","0-0","","200","160","8","WHEAT CROP","Right","200","190","4","NETTLE WEED","experimental","78","1,2,3,4,5,6,7,8","190,222.86842847680583,230.51832255882113,275.0151158985807,160,181.77250498715523,197.73122096084333,200.00889080467454","4,3,2,1,4,3,2,1","NETTLE WEED,NETTLE WEED,NETTLE WEED,NETTLE WEED,THISTLE WEED,THISTLE WEED,THISTLE WEED,THISTLE WEED","160,186.44482101602253,176.35189360540033,183.15565875656085,231.3969743110157,214.68990036355103,192.57902966331935,175.3769201874474","8,7,6,5,4,3,2,1","WHEAT CROP,WHEAT CROP,WHEAT CROP,WHEAT CROP,WHEAT CROP,WHEAT CROP,WHEAT CROP,WHEAT CROP","0,0,0,0,0,0,0,0","20,20,20,20,20,20,20,20","10,10,10,10,10,10,10,10","20,20,20,20,20,20,20,20","20,20,20,20,20,20,20,20","20,20,20,20,20,20,20,20","0,0,0,0,0,0,0,0","20,20,20,20,20,20,20,20","10,10,10,10,10,10,10,10","20,20,20,20,20,20,20,20","20,20,20,20,20,20,20,20","20,20,20,20,20,20,20,20","0,0,1,1,0,1,0,1","2907,147,913,105,3142,1437,968,1018","32.86842847680584,7.6498940820152805,44.49679333975958,-9.02873331477885,21.772504987155244,15.958715973688099,2.2776698438311977,31.523908883592703","26.44482101602252,-10.092927410622199,6.80376515116051,48.24131555445483,-16.70707394746468,-22.11087070023168,-17.202109475871943,22.027085207379667","0","0"
"128","86","text","0","183","2329499","0-0","","","","","","","","","","","","","","","","","","","","","","","","","","","","","","","","","","","","",""
"","","plant-game","0","184","2344212","0-0","","200","180","8","CORN CROP","Left","200","160","8","NETTLE WEED","experimental","79","1,2,3,4,5,6,7,8","180,161.76941243689214,199.3033460382057,230.89191123805014,223.35972279656062,245.6935975904958,201.45197923235455,227.9954182007703","8,7,6,5,4,3,2,1","CORN CROP,CORN CROP,CORN CROP,CORN CROP,CORN CROP,CORN CROP,CORN CROP,CORN CROP","160,181.23674059227253,234.00833779038283,211.02184468200522,227.1299468140535,228.07060789416457,220.1776588199843,229.5606123688582","8,7,6,5,4,3,2,1","NETTLE WEED,NETTLE WEED,NETTLE WEED,NETTLE WEED,NETTLE WEED,NETTLE WEED,NETTLE WEED,NETTLE WEED","20,20,20,20,20,20,20,20","20,20,20,20,20,20,20,20","10,10,10,10,10,10,10,10","20,20,20,20,20,20,20,20","0,0,0,0,0,0,0,0","20,20,20,20,20,20,20,20","20,20,20,20,20,20,20,20","20,20,20,20,20,20,20,20","10,10,10,10,10,10,10,10","20,20,20,20,20,20,20,20","0,0,0,0,0,0,0,0","20,20,20,20,20,20,20,20","1,0,1,1,0,1,0,0","1374,446,1618,841,936,870,1143,2324","-18.230587563107864,37.53393360131355,31.58856519984445,-7.532188441489534,22.333874793935188,-44.24161835814127,26.54343896841575,28.5660477371862","21.236740592272536,52.771597198110285,-22.986493108377594,16.108102132048284,0.9406610801110489,-7.892949074180294,9.3829535488739,26.271263266756435","0","0"
"626","86","text","0","185","2344938","0-0","","","","","","","","","","","","","","","","","","","","","","","","","","","","","","","","","","","","",""
"","","plant-game","0","186","2363135","0-0","","200","190","2","WHEAT CROP","Left","200","120","2","THISTLE WEED","experimental","80","1,2","190,222.85416345357996","2,1","WHEAT CROP,WHEAT CROP","120,131.52829748626792","2,1","THISTLE WEED,THISTLE WEED","20,20","20,20","10,10","20,20","0,0","20,20","20,20","20,20","10,10","20,20","0,0","20,20","0,0","12348,2185","32.85416345357996,6.388556388062634","11.528297486267926,11.619174674104917","0","0"
"1409","86","text","0","187","2364734","0-0","","","","","","","","","","","","","","","","","","","","","","","","","","","","","","","","","","","","",""
