"rt","key_press","trial_type","trial_index","trial_index_global","time_elapsed","internal_chunk_id","responses","experimental_goal_height","experimental_start_height","experimental_weeks_total","experimental_crop_type","experimental_crop_side","fixed_goal_height","fixed_start_height","fixed_weeks_total","fixed_crop_type","trial_kind","trial_number","stage","left_current_height","left_weeks_remaining","left_crop_type","right_current_height","right_weeks_remaining","right_crop_type","mean_left_growth_given_left","sd_left_growth_given_left","mean_left_growth_given_middle","sd_left_growth_given_middle","mean_left_growth_given_right","sd_left_growth_given_right","mean_right_growth_given_left","sd_right_growth_given_left","mean_right_growth_given_middle","sd_right_growth_given_middle","mean_right_growth_given_right","sd_right_growth_given_right","response","response_time","left_growth","right_growth","other_key_pressed","mouse_clicked"
"1198961","77","text","0","0","1199104","0-0","","","","","","","","","","","","","","","","","","","","","","","","","","","","","","","","","","","","",""
"3485","","survey-text","0","1","1203637","0-0","{""Q0"":""21""}","","","","","","","","","","","","","","","","","","","","","","","","","","","","","","","","","","","",""
"4313","86","text","0","2","4391","0-0","","","","","","","","","","","","","","","","","","","","","","","","","","","","","","","","","","","","",""
"","","plant-game","0","3","67404","0-0","","200","120","8","CORN CROP","Left","200","120","8","NETTLE WEED","practice","1","1,2,3,4,5,6,7,8","120,118.7583020750227,147.49974557603227,132.80537864406247,181.53874900046816,232.07276395501034,259.257515946275,290.18612769392996","8,7,6,5,4,3,2,1","CORN CROP,CORN CROP,CORN CROP,CORN CROP,CORN CROP,CORN CROP,CORN CROP,CORN CROP","120,176.23014799329758,186.1317340380593,196.60423113691053,223.15511980841327,247.01811528508645,281.1358353459806,288.4289954664565","8,7,6,5,4,3,2,1","NETTLE WEED,NETTLE WEED,NETTLE WEED,NETTLE WEED,NETTLE WEED,NETTLE WEED,NETTLE WEED,NETTLE WEED","20,20,20,20,20,20,20,20","20,20,20,20,20,20,20,20","10,10,10,10,10,10,10,10","20,20,20,20,20,20,20,20","0,0,0,0,0,0,0,0","20,20,20,20,20,20,20,20","20,20,20,20,20,20,20,20","20,20,20,20,20,20,20,20","10,10,10,10,10,10,10,10","20,20,20,20,20,20,20,20","0,0,0,0,0,0,0,0","20,20,20,20,20,20,20,20","0,1,1,0,0,0,0,0","4880,6409,4004,4941,6192,4575,2948,1016","-1.2416979249773092,28.741443501009577,-14.694366931969798,48.733370356405686,50.53401495454219,27.184751991264687,30.928611747654937,15.109362609433159","56.23014799329757,9.901586044761734,10.472497098851225,26.550888671502747,23.86299547667317,34.117720060894115,7.293160120475923,31.89429264329345","0","2"
"964","86","text","0","4","68498","0-0","","","","","","","","","","","","","","","","","","","","","","","","","","","","","","","","","","","","",""
"","","plant-game","0","5","93011","0-0","","200","160","4","CORN CROP","Right","200","160","4","THISTLE WEED","practice","2","1,2,3,4","160,184.56126458549141,158.56787260278713,111.9848125247278","4,3,2,1","THISTLE WEED,THISTLE WEED,THISTLE WEED,THISTLE WEED","160,160.95834804069216,190.9200035196304,192.18475436076653","4,3,2,1","CORN CROP,CORN CROP,CORN CROP,CORN CROP","0,0,0,0","20,20,20,20","10,10,10,10","20,20,20,20","20,20,20,20","20,20,20,20","0,0,0,0","20,20,20,20","10,10,10,10","20,20,20,20","20,20,20,20","20,20,20,20","1,0,0,1","1552,1915,2608,2304","24.561264585491408,-25.99339198270429,-46.58306007805933,0.11911749598856858","0.9583480406921616,29.961655478938248,1.2647508411361417,3.146153338266153","0","0"
"531","86","text","0","6","93682","0-0","","","","","","","","","","","","","","","","","","","","","","","","","","","","","","","","","","","","",""
"","","plant-game","0","7","113906","0-0","","200","180","2","CORN CROP","Left","200","180","2","THISTLE WEED","practice","3","1,2","180,150.646418207313","2,1","CORN CROP,CORN CROP","180,152.05506865929866","2,1","THISTLE WEED,THISTLE WEED","20,20","20,20","10,10","20,20","0,0","20,20","20,20","20,20","10,10","20,20","0,0","20,20","1,0","1683,1191","-29.353581792687,20.547222135180277","-27.944931340701338,36.503137541507535","1","0"
"552","86","text","0","8","114551","0-0","","","","","","","","","","","","","","","","","","","","","","","","","","","","","","","","","","","","",""
"","","plant-game","0","9","127877","0-0","","200","190","1","CORN CROP","Left","200","190","1","THISTLE WEED","practice","4","1","190","1","CORN CROP","190","1","THISTLE WEED","20","20","10","20","0","20","20","20","10","20","0","20","0","414","61.0503691798082","10.5684380809638","0","0"
"534","86","text","0","10","128511","0-0","","","","","","","","","","","","","","","","","","","","","","","","","","","","","","","","","","","","",""
"","","plant-game","0","11","155911","0-0","","200","120","8","CORN CROP","Left","200","160","8","NETTLE WEED","practice","5","1,2,3,4,5,6,7,8","120,120.95378074857895,116.62636620282925,119.64151115601047,148.15724682159183,209.78996553319706,209.63354376533368,241.93666054210004","8,7,6,5,4,3,2,1","CORN CROP,CORN CROP,CORN CROP,CORN CROP,CORN CROP,CORN CROP,CORN CROP,CORN CROP","160,209.6977227321758,206.86292189307403,255.69025832783197,252.88036054052085,294.68061964860345,320.70959191679356,291.0128905165496","8,7,6,5,4,3,2,1","NETTLE WEED,NETTLE WEED,NETTLE WEED,NETTLE WEED,NETTLE WEED,NETTLE WEED,NETTLE WEED,NETTLE WEED","20,20,20,20,20,20,20,20","20,20,20,20,20,20,20,20","10,10,10,10,10,10,10,10","20,20,20,20,20,20,20,20","0,0,0,0,0,0,0,0","20,20,20,20,20,20,20,20","20,20,20,20,20,20,20,20","20,20,20,20,20,20,20,20","10,10,10,10,10,10,10,10","20,20,20,20,20,20,20,20","0,0,0,0,0,0,0,0","20,20,20,20,20,20,20,20","1,1,0,0,0,0,1,1","725,2685,3529,390,314,788,970,77","0.9537807485789546,-4.327414545749708,3.0151449531812204,28.51573566558136,61.63271871160522,-0.1564217678633817,32.30311677676636,-33.60719412609268","49.69772273217582,-2.83480083910176,48.82733643475794,-2.8098977873111224,41.80025910808259,26.028972268190124,-29.696701400243946,-11.139667453297921","0","0"
"443","86","text","0","12","156484","0-0","","","","","","","","","","","","","","","","","","","","","","","","","","","","","","","","","","","","",""
"","","plant-game","0","13","173032","0-0","","200","180","4","CORN CROP","Right","200","160","4","NETTLE WEED","practice","6","1,2,3,4","160,173.69066392943498,205.79527395924555,182.2777996016495","4,3,2,1","NETTLE WEED,NETTLE WEED,NETTLE WEED,NETTLE WEED","180,212.95256544234138,215.21656639892285,198.36968537560705","4,3,2,1","CORN CROP,CORN CROP,CORN CROP,CORN CROP","0,0,0,0","20,20,20,20","10,10,10,10","20,20,20,20","20,20,20,20","20,20,20,20","0,0,0,0","20,20,20,20","10,10,10,10","20,20,20,20","20,20,20,20","20,20,20,20","1,1,0,1","387,1553,1778,1044","13.690663929434976,32.10461002981059,-23.51747435759605,10.387514034651142","32.95256544234139,2.264000956581466,-16.846881023315802,2.074990771563211","0","0"
"486","86","text","0","14","173631","0-0","","","","","","","","","","","","","","","","","","","","","","","","","","","","","","","","","","","","",""
"","","plant-game","0","15","189356","0-0","","200","180","2","CORN CROP","Right","200","190","2","THISTLE WEED","practice","7","1,2","190,218.5763792105136","2,1","THISTLE WEED,THISTLE WEED","180,172.7443605813095","2,1","CORN CROP,CORN CROP","0,0","20,20","10,10","20,20","20,20","20,20","0,0","20,20","10,10","20,20","20,20","20,20","1,1","2375,2452","28.576379210513593,37.34441301300248","-7.255639418690485,42.432090301098505","0","0"
"444","86","text","0","16","189880","0-0","","","","","","","","","","","","","","","","","","","","","","","","","","","","","","","","","","","","",""
"","","plant-game","0","17","218822","0-0","","200","120","4","CORN CROP","Right","200","120","8","NETTLE WEED","practice","8","1,2,3,4,5,6,7,8","120,138.5208676372525,152.80137160431366,180.0849455388262,205.39446941434426,219.56501397274735,245.13297661557314,247.84048747556687","8,7,6,5,4,3,2,1","NETTLE WEED,NETTLE WEED,NETTLE WEED,NETTLE WEED,NETTLE WEED,NETTLE WEED,NETTLE WEED,NETTLE WEED","120,134.6474073192269,140.1874882979163,152.4456981107343,160,140.8335386702343,184.39047593648368,185.07641237100745","4,3,2,1,4,3,2,1","CORN CROP,CORN CROP,CORN CROP,CORN CROP,WHEAT CROP,WHEAT CROP,WHEAT CROP,WHEAT CROP","0,0,0,0,0,0,0,0","20,20,20,20,20,20,20,20","10,10,10,10,10,10,10,10","20,20,20,20,20,20,20,20","20,20,20,20,20,20,20,20","20,20,20,20,20,20,20,20","0,0,0,0,0,0,0,0","20,20,20,20,20,20,20,20","10,10,10,10,10,10,10,10","20,20,20,20,20,20,20,20","20,20,20,20,20,20,20,20","20,20,20,20,20,20,20,20","1,1,1,1,0,1,1,0","1650,364,350,1521,2438,2236,509,840","18.520867637252508,14.280503967061161,27.283573934512525,25.309523875518064,14.1705445584031,25.567962642825783,2.7075108599937217,-34.35333010562133","14.647407319226886,5.540080978689414,12.258209812818002,7.384447320929482,-19.16646132976569,43.55693726624938,0.6859364345237715,-2.996956239911052","0","0"
"410","86","text","0","18","219322","0-0","","","","","","","","","","","","","","","","","","","","","","","","","","","","","","","","","","","","",""
"","","plant-game","0","19","243663","0-0","","200","160","4","CORN CROP","Left","200","160","2","NETTLE WEED","practice","9","1,2,3,4","160,135.12278547064724,177.95757220902306,165.54343932240846","4,3,2,1","CORN CROP,CORN CROP,CORN CROP,CORN CROP","160,226.885235905887,180,172.69431174138845","2,1,2,1","NETTLE WEED,NETTLE WEED,THISTLE WEED,THISTLE WEED","20,20,20,20","20,20,20,20","10,10,10,10","20,20,20,20","0,0,0,0","20,20,20,20","20,20,20,20","20,20,20,20","10,10,10,10","20,20,20,20","0,0,0,0","20,20,20,20","0,0,1,0","5255,1300,4622,1189","-24.87721452935275,42.834786738375804,-12.41413288661461,32.87558653095898","66.88523590588699,16.678253299321554,-7.305688258611557,-13.609750004831113","0","0"
"550","86","text","0","20","244373","0-0","","","","","","","","","","","","","","","","","","","","","","","","","","","","","","","","","","","","",""
"","","plant-game","0","21","265655","0-0","","200","180","2","WHEAT CROP","Right","200","180","1","THISTLE WEED","practice","10","1,2","180,190","1,1","THISTLE WEED,NETTLE WEED","180,159.16088990114378","2,1","WHEAT CROP,WHEAT CROP","0,0","20,20","10,10","20,20","20,20","20,20","0,0","20,20","10,10","20,20","20,20","20,20","0,1","274,1807","-14.90505542187041,44.55899672836803","-20.839110098856217,33.38024048118231","0","0"
"105","86","text","0","22","265890","0-0","","","","","","","","","","","","","","","","","","","","","","","","","","","","","","","","","","","","",""
"","","plant-game","0","23","305523","0-0","","200","120","8","CORN CROP","Left","200","160","4","NETTLE WEED","practice","11","1,2,3,4,5,6,7,8","120,145.34145944089317,128.39643184427308,129.95088829976578,128.9904198618521,189.91592191395608,186.50563214487474,204.39754669733156","8,7,6,5,4,3,2,1","CORN CROP,CORN CROP,CORN CROP,CORN CROP,CORN CROP,CORN CROP,CORN CROP,CORN CROP","160,193.8731498173715,179.17497905200685,193.55310022788757,160,173.17952715993778,143.99554605117538,195.05508011566968","4,3,2,1,4,3,2,1","NETTLE WEED,NETTLE WEED,NETTLE WEED,NETTLE WEED,THISTLE WEED,THISTLE WEED,THISTLE WEED,THISTLE WEED","20,20,20,20,20,20,20,20","20,20,20,20,20,20,20,20","10,10,10,10,10,10,10,10","20,20,20,20,20,20,20,20","0,0,0,0,0,0,0,0","20,20,20,20,20,20,20,20","20,20,20,20,20,20,20,20","20,20,20,20,20,20,20,20","10,10,10,10,10,10,10,10","20,20,20,20,20,20,20,20","0,0,0,0,0,0,0,0","20,20,20,20,20,20,20,20","0,1,1,0,0,1,0,1","2514,1195,1498,2333,7177,2263,1860,1426","25.34145944089316,-16.94502759662008,1.5544564554926867,-0.9604684379136614,60.92550205210398,-3.410289769081346,17.891914552456832,-13.417796873510497","33.87314981737151,-14.698170765364653,14.378121175880732,49.822042628497435,13.17952715993778,-29.18398110876241,51.05953406449429,-3.7499957568180973","0","0"
"566","86","text","0","24","306229","0-0","","","","","","","","","","","","","","","","","","","","","","","","","","","","","","","","","","","","",""
"","","plant-game","0","25","329822","0-0","","200","180","2","CORN CROP","Left","200","160","4","NETTLE WEED","practice","12","1,2,3,4","180,155.5041020674447,180,181.53911139498746","2,1,2,1","CORN CROP,CORN CROP,WHEAT CROP,WHEAT CROP","160,151.19262621604418,156.04362460626524,165.91712799244584","4,3,2,1","NETTLE WEED,NETTLE WEED,NETTLE WEED,NETTLE WEED","20,20,20,20","20,20,20,20","10,10,10,10","20,20,20,20","0,0,0,0","20,20,20,20","20,20,20,20","20,20,20,20","10,10,10,10","20,20,20,20","0,0,0,0","20,20,20,20","1,0,0,0","362,824,3168,2040","-24.495897932555284,-0.9423424388476356,1.5391113949874438,50.731813293887924","-8.807373783955835,4.850998390221065,9.873503386180598,-0.04072230276205957","0","0"
"1412","86","text","0","26","331370","0-0","","","","","","","","","","","","","","","","","","","","","","","","","","","","","","","","","","","","",""
"8056","86","text","0","27","340560","0-0","","","","","","","","","","","","","","","","","","","","","","","","","","","","","","","","","","","","",""
"","","plant-game","0","28","366348","0-0","","200","180","8","CORN CROP","Left","200","160","2","THISTLE WEED","experimental","1","1,2,3,4,5,6,7,8","180,167.42160724555598,135.71597429754496,165.66109457763628,191.10927737739942,199.86038135955732,210.12632341793625,217.59298314288102","8,7,6,5,4,3,2,1","CORN CROP,CORN CROP,CORN CROP,CORN CROP,CORN CROP,CORN CROP,CORN CROP,CORN CROP","160,160.1650864156435,140,159.60557258720826,178.51825058852887,163.1430306236127,167.54164359926307,221.58894481150026","2,1,6,5,4,3,2,1","THISTLE WEED,THISTLE WEED,NETTLE WEED,NETTLE WEED,NETTLE WEED,NETTLE WEED,NETTLE WEED,NETTLE WEED","20,20,20,20,20,20,20,20","20,20,20,20,20,20,20,20","10,10,10,10,10,10,10,10","20,20,20,20,20,20,20,20","0,0,0,0,0,0,0,0","20,20,20,20,20,20,20,20","20,20,20,20,20,20,20,20","20,20,20,20,20,20,20,20","10,10,10,10,10,10,10,10","20,20,20,20,20,20,20,20","0,0,0,0,0,0,0,0","20,20,20,20,20,20,20,20","1,1,0,0,1,1,1,0","7360,1067,4647,844,986,1028,1165,2528","-12.57839275444402,-31.705632948011008,29.945120280091302,25.448182799763153,8.751103982157911,10.265942058378927,7.466659724944787,33.64909148681146","0.1650864156434792,26.170982551101613,19.605572587208265,18.912678001320607,-15.375219964916162,4.398612975650352,54.04730121223719,14.320340758423463","0","0"
"414","86","text","0","29","366842","0-0","","","","","","","","","","","","","","","","","","","","","","","","","","","","","","","","","","","","",""
"","","plant-game","0","30","393230","0-0","","200","190","4","CORN CROP","Left","200","160","8","THISTLE WEED","experimental","2","1,2,3,4,5,6,7,8","190,191.22802510962896,182.3329677293906,183.04889848875544,160,179.81833136966097,169.02057728932886,171.32300488356964","4,3,2,1,4,3,2,1","CORN CROP,CORN CROP,CORN CROP,CORN CROP,WHEAT CROP,WHEAT CROP,WHEAT CROP,WHEAT CROP","160,167.72394866120138,185.95456270597478,225.30402135545225,220.95590438626692,265.0527695685029,234.6766324283259,254.1361336029326","8,7,6,5,4,3,2,1","THISTLE WEED,THISTLE WEED,THISTLE WEED,THISTLE WEED,THISTLE WEED,THISTLE WEED,THISTLE WEED,THISTLE WEED","20,20,20,20,20,20,20,20","20,20,20,20,20,20,20,20","10,10,10,10,10,10,10,10","20,20,20,20,20,20,20,20","0,0,0,0,0,0,0,0","20,20,20,20,20,20,20,20","20,20,20,20,20,20,20,20","20,20,20,20,20,20,20,20","10,10,10,10,10,10,10,10","20,20,20,20,20,20,20,20","0,0,0,0,0,0,0,0","20,20,20,20,20,20,20,20","1,1,1,0,0,1,1,0","4072,2178,1228,2067,7525,918,453,829","1.228025109628964,-8.895057380238384,0.7159307593648438,-4.878768536652789,19.818331369660967,-10.797754080332119,2.302427594240792,-15.640097975710447","7.7239486612013755,18.230614044773404,39.34945864947747,-4.348116969185316,44.09686518223601,-30.37613714017704,19.459501174606714,16.22392367892035","1","0"
"536","86","text","0","31","393891","0-0","","","","","","","","","","","","","","","","","","","","","","","","","","","","","","","","","","","","",""
"","","plant-game","0","32","418879","0-0","","200","180","8","CORN CROP","Right","200","190","4","NETTLE WEED","experimental","3","1,2,3,4,5,6,7,8","190,168.5584186070052,163.48346192114914,156.92536328791013,160,192.80103438520052,191.6640140115056,211.19995832561705","4,3,2,1,4,3,2,1","NETTLE WEED,NETTLE WEED,NETTLE WEED,NETTLE WEED,THISTLE WEED,THISTLE WEED,THISTLE WEED,THISTLE WEED","180,189.26035713678425,190.64881885140073,169.46559443895086,153.74460664347023,157.86570798731137,146.18146881723825,97.89698335877361","8,7,6,5,4,3,2,1","CORN CROP,CORN CROP,CORN CROP,CORN CROP,CORN CROP,CORN CROP,CORN CROP,CORN CROP","0,0,0,0,0,0,0,0","20,20,20,20,20,20,20,20","10,10,10,10,10,10,10,10","20,20,20,20,20,20,20,20","20,20,20,20,20,20,20,20","20,20,20,20,20,20,20,20","0,0,0,0,0,0,0,0","20,20,20,20,20,20,20,20","10,10,10,10,10,10,10,10","20,20,20,20,20,20,20,20","20,20,20,20,20,20,20,20","20,20,20,20,20,20,20,20","0,0,0,0,1,0,0,1","6405,797,402,2992,3385,1306,1718,1226","-21.44158139299479,-5.074956685856048,-6.558098633239016,25.226982501188143,32.80103438520052,-1.137020373694922,19.53594431411145,36.869752425270086","9.260357136784238,1.3884617146164966,-21.18322441244988,-15.720987795480621,4.121101343841133,-11.684239170073115,-48.284485458464644,31.56800072605119","0","0"
"613","86","text","0","33","419652","0-0","","","","","","","","","","","","","","","","","","","","","","","","","","","","","","","","","","","","",""
"","","plant-game","0","34","436333","0-0","","200","160","4","CORN CROP","Right","200","190","2","THISTLE WEED","experimental","4","1,2,3,4","190,219.15637497677665,180,195.67010602651695","2,1,2,1","THISTLE WEED,THISTLE WEED,NETTLE WEED,NETTLE WEED","160,178.73643775082687,188.81862803221708,206.02818126953179","4,3,2,1","CORN CROP,CORN CROP,CORN CROP,CORN CROP","0,0,0,0","20,20,20,20","10,10,10,10","20,20,20,20","20,20,20,20","20,20,20,20","0,0,0,0","20,20,20,20","10,10,10,10","20,20,20,20","20,20,20,20","20,20,20,20","0,1,1,1","4133,1483,3906,2004","29.156374976776632,9.811839739619948,15.670106026516947,62.84892798344999","18.736437750826873,10.08219028139022,17.20955323731472,22.573850533367096","0","0"
"211","86","text","0","35","436604","0-0","","","","","","","","","","","","","","","","","","","","","","","","","","","","","","","","","","","","",""
"","","plant-game","0","36","460063","0-0","","200","160","8","CORN CROP","Left","200","160","2","THISTLE WEED","experimental","5","1,2,3,4,5,6,7,8","160,176.45953397407482,158.1941909013025,152.0322626359599,132.63161992456583,134.79174617058672,114.99263439844775,171.96253721451285","8,7,6,5,4,3,2,1","CORN CROP,CORN CROP,CORN CROP,CORN CROP,CORN CROP,CORN CROP,CORN CROP,CORN CROP","160,216.08754082532664,140,171.25619089518398,174.1113797425903,176.55504512269675,257.5780498717089,266.2546748298432","2,1,6,5,4,3,2,1","THISTLE WEED,THISTLE WEED,NETTLE WEED,NETTLE WEED,NETTLE WEED,NETTLE WEED,NETTLE WEED,NETTLE WEED","20,20,20,20,20,20,20,20","20,20,20,20,20,20,20,20","10,10,10,10,10,10,10,10","20,20,20,20,20,20,20,20","0,0,0,0,0,0,0,0","20,20,20,20,20,20,20,20","20,20,20,20,20,20,20,20","20,20,20,20,20,20,20,20","10,10,10,10,10,10,10,10","20,20,20,20,20,20,20,20","0,0,0,0,0,0,0,0","20,20,20,20,20,20,20,20","0,0,0,1,1,0,0,0","6053,1234,1993,1156,880,1917,2740,1483","16.45953397407481,-18.265343072772318,-6.161928265342592,-19.400642711394084,2.1601262460208805,-19.79911177213897,56.969902816065094,19.865050482955027","56.087540825326656,0.6393407333839747,31.256190895183963,2.855188847406297,2.443665380106455,81.02300474901213,8.676624958134308,50.86862687469997","0","0"
"493","86","text","0","37","460696","0-0","","","","","","","","","","","","","","","","","","","","","","","","","","","","","","","","","","","","",""
"","","plant-game","0","38","480439","0-0","","200","190","1","WHEAT CROP","Right","200","190","8","NETTLE WEED","experimental","6","1,2,3,4,5,6,7,8","190,204.71989988265142,228.6186584994225,237.8356756066802,269.9556082861873,241.82453930938945,260.9741460902564,280.49229026715494","8,7,6,5,4,3,2,1","NETTLE WEED,NETTLE WEED,NETTLE WEED,NETTLE WEED,NETTLE WEED,NETTLE WEED,NETTLE WEED,NETTLE WEED","190,130,135.97422984759808,130.3842912819737,174.7722742008685,177.26427950476585,169.58353939934685,231.54299127763602","1,7,6,5,4,3,2,1","WHEAT CROP,CORN CROP,CORN CROP,CORN CROP,CORN CROP,CORN CROP,CORN CROP,CORN CROP","0,0,0,0,0,0,0,0","20,20,20,20,20,20,20,20","10,10,10,10,10,10,10,10","20,20,20,20,20,20,20,20","20,20,20,20,20,20,20,20","20,20,20,20,20,20,20,20","0,0,0,0,0,0,0,0","20,20,20,20,20,20,20,20","10,10,10,10,10,10,10,10","20,20,20,20,20,20,20,20","20,20,20,20,20,20,20,20","20,20,20,20,20,20,20,20","0,1,1,1,1,1,1,0","4881,4780,75,52,72,421,72,3851","14.719899882651422,23.898758616771104,9.217017107257693,32.119932679507116,-28.13106897679787,19.14960678086695,19.51814417689857,3.3584597322375287","14.305082857755638,5.974229847598089,-5.589938565624383,44.38798291889481,2.4920053038973435,-7.680740105419016,61.95945187828919,-9.540615605627153","0","0"
"694","86","text","0","39","481223","0-0","","","","","","","","","","","","","","","","","","","","","","","","","","","","","","","","","","","","",""
"","","plant-game","0","40","494848","0-0","","200","190","1","CORN CROP","Right","200","160","4","NETTLE WEED","experimental","7","1,2,3,4","160,148.97761885862025,155.24554650532406,182.52942193287743","4,3,2,1","NETTLE WEED,NETTLE WEED,NETTLE WEED,NETTLE WEED","190,170,187.2783863984609,198.18195215845952","1,3,2,1","CORN CROP,WHEAT CROP,WHEAT CROP,WHEAT CROP","0,0,0,0","20,20,20,20","10,10,10,10","20,20,20,20","20,20,20,20","20,20,20,20","0,0,0,0","20,20,20,20","10,10,10,10","20,20,20,20","20,20,20,20","20,20,20,20","1,1,1,1","3138,2421,1725,1057","-11.022381141379753,6.267927646703823,27.283875427553376,-15.886210701294303","17.451648185156387,17.278386398460896,10.903565759998626,24.361366790070406","0","0"
"418","86","text","0","41","495356","0-0","","","","","","","","","","","","","","","","","","","","","","","","","","","","","","","","","","","","",""
"","","plant-game","0","42","501238","0-0","","200","190","1","WHEAT CROP","Right","200","190","1","NETTLE WEED","experimental","8","1","190","1","NETTLE WEED","190","1","WHEAT CROP","0","20","10","20","20","20","0","20","10","20","20","20","1","2794","33.39006797429853","-1.2821493808952553","0","0"
"850","86","text","0","43","502178","0-0","","","","","","","","","","","","","","","","","","","","","","","","","","","","","","","","","","","","",""
"","","plant-game","0","44","520769","0-0","","200","120","1","WHEAT CROP","Left","200","120","4","THISTLE WEED","experimental","9","1,2,3,4","120,170,154.71933622142092,166.2870520311682","1,3,2,1","WHEAT CROP,CORN CROP,CORN CROP,CORN CROP","120,130.85801131579564,150.18093205702053,155.10545643781816","4,3,2,1","THISTLE WEED,THISTLE WEED,THISTLE WEED,THISTLE WEED","20,20,20,20","20,20,20,20","10,10,10,10","20,20,20,20","0,0,0,0","20,20,20,20","20,20,20,20","20,20,20,20","10,10,10,10","20,20,20,20","0,0,0,0","20,20,20,20","0,0,0,0","5138,4821,1769,1001","-18.707082929436503,-15.280663778579068,11.567715809747286,23.19007455386168","10.858011315795641,19.322920741224905,4.924524380797626,60.90624726954899","0","0"
"560","86","text","0","45","521449","0-0","","","","","","","","","","","","","","","","","","","","","","","","","","","","","","","","","","","","",""
"","","plant-game","0","46","530845","0-0","","200","120","4","CORN CROP","Left","200","120","4","THISTLE WEED","experimental","10","1,2,3,4","120,103.9699039946712,53.06932419407656,25.020438842189602","4,3,2,1","CORN CROP,CORN CROP,CORN CROP,CORN CROP","120,135.29657321551588,162.7453576299444,143.0497562591595","4,3,2,1","THISTLE WEED,THISTLE WEED,THISTLE WEED,THISTLE WEED","20,20,20,20","20,20,20,20","10,10,10,10","20,20,20,20","0,0,0,0","20,20,20,20","20,20,20,20","20,20,20,20","10,10,10,10","20,20,20,20","0,0,0,0","20,20,20,20","1,1,1,1","3518,72,1180,857","-16.0300960053288,-50.90057980059464,-28.048885351886955,-11.91397194549958","15.296573215515874,27.448784414428545,-19.6956013707849,17.74888020237569","0","0"
"470","86","text","0","47","531395","0-0","","","","","","","","","","","","","","","","","","","","","","","","","","","","","","","","","","","","",""
"","","plant-game","0","48","552648","0-0","","200","120","8","CORN CROP","Right","200","180","4","THISTLE WEED","experimental","11","1,2,3,4,5,6,7,8","180,186.4758302884447,204.6253584444846,233.09561304674324,160,118.47812714047167,111.87717206616938,137.22701526972972","4,3,2,1,4,3,2,1","THISTLE WEED,THISTLE WEED,THISTLE WEED,THISTLE WEED,NETTLE WEED,NETTLE WEED,NETTLE WEED,NETTLE WEED","120,98.83394127140807,142.19890189324414,166.6148738316101,183.64546851883654,176.73908325100825,219.73530899790416,219.30966488329156","8,7,6,5,4,3,2,1","CORN CROP,CORN CROP,CORN CROP,CORN CROP,CORN CROP,CORN CROP,CORN CROP,CORN CROP","0,0,0,0,0,0,0,0","20,20,20,20,20,20,20,20","10,10,10,10,10,10,10,10","20,20,20,20,20,20,20,20","20,20,20,20,20,20,20,20","20,20,20,20,20,20,20,20","0,0,0,0,0,0,0,0","20,20,20,20,20,20,20,20","10,10,10,10,10,10,10,10","20,20,20,20,20,20,20,20","20,20,20,20,20,20,20,20","20,20,20,20,20,20,20,20","0,0,1,1,0,1,0,1","5940,485,1194,381,3521,906,1211,1271","6.475830288444717,18.14952815603988,28.470254602258645,47.68091102879941,-41.52187285952833,-6.600955074302295,25.349843203560344,17.249393278393892","-21.166058728591928,43.36496062183607,24.41597193836598,17.03059468722642,-6.906385267828272,42.996225746895895,-0.4256441146126084,-6.4306662846137925","0","0"
"463","86","text","0","49","553261","0-0","","","","","","","","","","","","","","","","","","","","","","","","","","","","","","","","","","","","",""
"","","plant-game","0","50","575199","0-0","","200","190","8","WHEAT CROP","Left","200","180","1","THISTLE WEED","experimental","12","1,2,3,4,5,6,7,8","190,175.96616152903397,189.56174346253144,196.54993318009187,201.67212023886574,190.82271665811777,233.8488507802168,254.58241548594313","8,7,6,5,4,3,2,1","WHEAT CROP,WHEAT CROP,WHEAT CROP,WHEAT CROP,WHEAT CROP,WHEAT CROP,WHEAT CROP,WHEAT CROP","180,130,132.86968388592908,129.31517521847215,94.99607272639028,89.33596576069705,130.7269193279738,161.07894685625834","1,7,6,5,4,3,2,1","THISTLE WEED,NETTLE WEED,NETTLE WEED,NETTLE WEED,NETTLE WEED,NETTLE WEED,NETTLE WEED,NETTLE WEED","20,20,20,20,20,20,20,20","20,20,20,20,20,20,20,20","10,10,10,10,10,10,10,10","20,20,20,20,20,20,20,20","0,0,0,0,0,0,0,0","20,20,20,20,20,20,20,20","20,20,20,20,20,20,20,20","20,20,20,20,20,20,20,20","10,10,10,10,10,10,10,10","20,20,20,20,20,20,20,20","0,0,0,0,0,0,0,0","20,20,20,20,20,20,20,20","1,1,1,1,1,0,0,1","5433,3455,493,349,1252,1107,1110,883","-14.033838470966021,13.595581933497465,6.988189717560433,5.122187058773877,-10.849403580747987,43.026134122099016,20.733564705726334,15.730264275731436","-7.24187055973904,2.8696838859290903,-3.5545086674569375,-34.31910249208187,-5.660106965693233,41.39095356727675,30.352027528284545,-13.320720019142593","0","0"
"446","86","text","0","51","575775","0-0","","","","","","","","","","","","","","","","","","","","","","","","","","","","","","","","","","","","",""
"","","plant-game","0","52","583088","0-0","","200","120","1","CORN CROP","Left","200","120","1","NETTLE WEED","experimental","13","1","120","1","CORN CROP","120","1","NETTLE WEED","20","20","10","20","0","20","20","20","10","20","0","20","1","4415","-5.197344776300582","8.128038882720077","0","0"
"477","86","text","0","53","583655","0-0","","","","","","","","","","","","","","","","","","","","","","","","","","","","","","","","","","","","",""
"","","plant-game","0","54","603765","0-0","","200","180","8","WHEAT CROP","Left","200","180","2","NETTLE WEED","experimental","14","1,2,3,4,5,6,7,8","180,157.86014577343352,175.06547021862184,186.32078082805936,188.7123390109722,178.28966947453648,167.68835096385016,207.63785173167642","8,7,6,5,4,3,2,1","WHEAT CROP,WHEAT CROP,WHEAT CROP,WHEAT CROP,WHEAT CROP,WHEAT CROP,WHEAT CROP,WHEAT CROP","180,206.67376851346623,140,150.51209090081906,144.09162696020087,165.9271576281518,139.53350628006405,168.03903493265153","2,1,6,5,4,3,2,1","NETTLE WEED,NETTLE WEED,THISTLE WEED,THISTLE WEED,THISTLE WEED,THISTLE WEED,THISTLE WEED,THISTLE WEED","20,20,20,20,20,20,20,20","20,20,20,20,20,20,20,20","10,10,10,10,10,10,10,10","20,20,20,20,20,20,20,20","0,0,0,0,0,0,0,0","20,20,20,20,20,20,20,20","20,20,20,20,20,20,20,20","20,20,20,20,20,20,20,20","10,10,10,10,10,10,10,10","20,20,20,20,20,20,20,20","0,0,0,0,0,0,0,0","20,20,20,20,20,20,20,20","1,1,1,1,1,1,0,0","3859,2563,2946,373,389,489,1289,2463","-22.139854226566488,17.205324445188335,11.255310609437505,2.3915581829128296,-10.4226695364357,-10.601318510686333,39.949500767826265,59.466561887226284","26.673768513466225,-13.218891425138493,10.512090900819056,-6.420463940618205,21.835530667950938,-26.393651348087744,28.505528652587472,41.53445346983847","0","0"
"377","86","text","0","55","604272","0-0","","","","","","","","","","","","","","","","","","","","","","","","","","","","","","","","","","","","",""
"","","plant-game","0","56","621988","0-0","","200","180","2","WHEAT CROP","Right","200","120","4","THISTLE WEED","experimental","15","1,2,3,4","120,132.61665676214432,149.41560152925803,91.94140793302017","4,3,2,1","THISTLE WEED,THISTLE WEED,THISTLE WEED,THISTLE WEED","180,205.36573133311205,180,183.59641170490428","2,1,2,1","WHEAT CROP,WHEAT CROP,CORN CROP,CORN CROP","0,0,0,0","20,20,20,20","10,10,10,10","20,20,20,20","20,20,20,20","20,20,20,20","0,0,0,0","20,20,20,20","10,10,10,10","20,20,20,20","20,20,20,20","20,20,20,20","1,1,0,1","4629,881,5438,819","12.616656762144318,16.79894476711371,-57.474193596237846,23.75969195419591","25.36573133311206,15.363980362307228,3.5964117049042796,25.20929125099852","0","0"
"527","86","text","0","57","622631","0-0","","","","","","","","","","","","","","","","","","","","","","","","","","","","","","","","","","","","",""
"","","plant-game","0","58","644315","0-0","","200","180","8","CORN CROP","Right","200","120","2","NETTLE WEED","experimental","16","1,2,3,4,5,6,7,8","120,109.51485224895931,140,149.50202775721786,134.38530252095302,141.73799812140854,147.1226527072309,169.06152337593193","2,1,6,5,4,3,2,1","NETTLE WEED,NETTLE WEED,THISTLE WEED,THISTLE WEED,THISTLE WEED,THISTLE WEED,THISTLE WEED,THISTLE WEED","180,193.5389482188421,191.1159618462002,172.94201590517605,193.3553270831522,210.14236985791297,194.49566528462498,244.92126151317586","8,7,6,5,4,3,2,1","CORN CROP,CORN CROP,CORN CROP,CORN CROP,CORN CROP,CORN CROP,CORN CROP,CORN CROP","0,0,0,0,0,0,0,0","20,20,20,20,20,20,20,20","10,10,10,10,10,10,10,10","20,20,20,20,20,20,20,20","20,20,20,20,20,20,20,20","20,20,20,20,20,20,20,20","0,0,0,0,0,0,0,0","20,20,20,20,20,20,20,20","10,10,10,10,10,10,10,10","20,20,20,20,20,20,20,20","20,20,20,20,20,20,20,20","20,20,20,20,20,20,20,20","0,0,0,0,0,0,1,0","8289,354,2636,346,515,1222,1246,984","-10.485147751040685,-13.094399609824606,9.502027757217856,-15.116725236264852,7.352695600455521,5.384654585822379,21.93887066870101,15.510886735923133","13.538948218842105,-2.4229863726419083,-18.173945941024144,20.41331117797613,16.78704277476078,-15.646704573288003,50.425596228550894,-33.51999179963092","0","0"
"205","86","text","0","59","644608","0-0","","","","","","","","","","","","","","","","","","","","","","","","","","","","","","","","","","","","",""
"","","plant-game","0","60","670454","0-0","","200","190","1","WHEAT CROP","Left","200","160","8","NETTLE WEED","experimental","17","1,2,3,4,5,6,7,8","190,130,112.01510188061351,128.45893391150625,153.7205933524937,130.25228798609697,136.1618783835577,153.96795303200702","1,7,6,5,4,3,2,1","WHEAT CROP,CORN CROP,CORN CROP,CORN CROP,CORN CROP,CORN CROP,CORN CROP,CORN CROP","160,170.38218663048946,126.05865737570157,132.21759681478812,157.6392270039363,145.19629827614582,164.33535758008819,188.70888345970258","8,7,6,5,4,3,2,1","NETTLE WEED,NETTLE WEED,NETTLE WEED,NETTLE WEED,NETTLE WEED,NETTLE WEED,NETTLE WEED,NETTLE WEED","20,20,20,20,20,20,20,20","20,20,20,20,20,20,20,20","10,10,10,10,10,10,10,10","20,20,20,20,20,20,20,20","0,0,0,0,0,0,0,0","20,20,20,20,20,20,20,20","20,20,20,20,20,20,20,20","20,20,20,20,20,20,20,20","10,10,10,10,10,10,10,10","20,20,20,20,20,20,20,20","0,0,0,0,0,0,0,0","20,20,20,20,20,20,20,20","0,1,1,1,1,0,1,1","7687,4891,332,258,1120,1891,1237,2152","20.633801309537777,-17.984898119386486,16.443832030892743,25.261659440987437,-23.468305366396716,5.909590397460722,17.806074648449307,-29.05189787963945","10.382186630489445,-44.323529254787886,6.1589394390865575,25.42163018914817,-12.442928727790486,19.13905930394237,24.373525879614377,-11.638477785417127","0","0"
"440","86","text","0","61","671003","0-0","","","","","","","","","","","","","","","","","","","","","","","","","","","","","","","","","","","","",""
"","","plant-game","0","62","679802","0-0","","200","180","2","CORN CROP","Left","200","180","2","THISTLE WEED","experimental","18","1,2","180,134.86360847916671","2,1","CORN CROP,CORN CROP","180,160.55874152092827","2,1","THISTLE WEED,THISTLE WEED","20,20","20,20","10,10","20,20","0,0","20,20","20,20","20,20","10,10","20,20","0,0","20,20","1,0","4793,876","-45.1363915208333,10.820238547727831","-19.44125847907172,29.63696653185344","0","0"
"418","86","text","0","63","680298","0-0","","","","","","","","","","","","","","","","","","","","","","","","","","","","","","","","","","","","",""
"","","plant-game","0","64","689116","0-0","","200","120","2","WHEAT CROP","Left","200","180","2","THISTLE WEED","experimental","19","1,2","120,130.82115136409783","2,1","WHEAT CROP,WHEAT CROP","180,150.9197980896699","2,1","THISTLE WEED,THISTLE WEED","20,20","20,20","10,10","20,20","0,0","20,20","20,20","20,20","10,10","20,20","0,0","20,20","1,0","3734,1684","10.82115136409782,7.037904708251386","-29.0802019103301,-15.83189653124603","0","0"
"1527","86","text","0","65","690768","0-0","","","","","","","","","","","","","","","","","","","","","","","","","","","","","","","","","","","","",""
"","","plant-game","0","66","711763","0-0","","200","190","2","WHEAT CROP","Right","200","190","4","THISTLE WEED","experimental","20","1,2,3,4","190,226.43983497111645,248.446627594218,281.55998025922764","4,3,2,1","THISTLE WEED,THISTLE WEED,THISTLE WEED,THISTLE WEED","190,228.92199386269928,180,188.7908770561781","2,1,2,1","WHEAT CROP,WHEAT CROP,CORN CROP,CORN CROP","0,0,0,0","20,20,20,20","10,10,10,10","20,20,20,20","20,20,20,20","20,20,20,20","0,0,0,0","20,20,20,20","10,10,10,10","20,20,20,20","20,20,20,20","20,20,20,20","1,0,0,0","7844,3005,4033,62","36.43983497111644,22.00679262310155,33.11335266500963,7.1798332683840425","38.92199386269928,15.172293185070451,8.790877056178084,11.266378719139984","0","0"
"480","86","text","0","67","712363","0-0","","","","","","","","","","","","","","","","","","","","","","","","","","","","","","","","","","","","",""
"","","plant-game","0","68","728492","0-0","","200","120","1","CORN CROP","Left","200","190","4","NETTLE WEED","experimental","21","1,2,3,4","120,170,185.13726352108972,208.61871561894162","1,3,2,1","CORN CROP,WHEAT CROP,WHEAT CROP,WHEAT CROP","190,140.84770603014758,117.74914055915579,118.6313792511736","4,3,2,1","NETTLE WEED,NETTLE WEED,NETTLE WEED,NETTLE WEED","20,20,20,20","20,20,20,20","10,10,10,10","20,20,20,20","0,0,0,0","20,20,20,20","20,20,20,20","20,20,20,20","10,10,10,10","20,20,20,20","0,0,0,0","20,20,20,20","1,1,0,0","4778,3182,1237,1043","33.23077135868961,15.137263521089722,23.48145209785191,-28.805838606425375","-49.15229396985243,-23.098565470991787,0.8822386920178147,56.73291665515193","0","0"
"647","86","text","0","69","729299","0-0","","","","","","","","","","","","","","","","","","","","","","","","","","","","","","","","","","","","",""
"","","plant-game","0","70","756995","0-0","","200","180","8","WHEAT CROP","Right","200","180","4","THISTLE WEED","experimental","22","1,2,3,4,5,6,7,8","180,202.9011678413124,209.58827391951488,188.83481050373177,160,189.9932272000495,189.9133990813324,161.73494313118073","4,3,2,1,4,3,2,1","THISTLE WEED,THISTLE WEED,THISTLE WEED,THISTLE WEED,NETTLE WEED,NETTLE WEED,NETTLE WEED,NETTLE WEED","180,138.1125004866451,156.42079045353336,163.30868734455086,166.83927161246456,169.6543092662228,199.9912653464329,193.50901520129585","8,7,6,5,4,3,2,1","WHEAT CROP,WHEAT CROP,WHEAT CROP,WHEAT CROP,WHEAT CROP,WHEAT CROP,WHEAT CROP,WHEAT CROP","0,0,0,0,0,0,0,0","20,20,20,20,20,20,20,20","10,10,10,10,10,10,10,10","20,20,20,20,20,20,20,20","20,20,20,20,20,20,20,20","20,20,20,20,20,20,20,20","0,0,0,0,0,0,0,0","20,20,20,20,20,20,20,20","10,10,10,10,10,10,10,10","20,20,20,20,20,20,20,20","20,20,20,20,20,20,20,20","20,20,20,20,20,20,20,20","0,0,0,0,1,1,0,1","13167,103,1947,105,2719,1501,2102,918","22.90116784131239,6.687106078202467,-20.7534634157831,7.828306355251501,29.993227200049503,-0.07982811871710993,-28.178455950151648,9.903173227658202","-41.88749951335491,18.30828996688825,6.887896891017512,3.5305842679136856,2.81503765375826,30.33695608021008,-6.482250145137033,10.458292796533193","0","0"
"391","86","text","0","71","757456","0-0","","","","","","","","","","","","","","","","","","","","","","","","","","","","","","","","","","","","",""
"","","plant-game","0","72","777847","0-0","","200","190","8","CORN CROP","Right","200","120","4","THISTLE WEED","experimental","23","1,2,3,4,5,6,7,8","120,168.45194203134332,178.90858776391676,121.66878649741818,160,165.1707092536513,217.89803145956606,226.4452502115209","4,3,2,1,4,3,2,1","THISTLE WEED,THISTLE WEED,THISTLE WEED,THISTLE WEED,NETTLE WEED,NETTLE WEED,NETTLE WEED,NETTLE WEED","190,179.7535319830288,182.4711329769048,182.39881414518163,176.7463529106382,191.9042580137255,221.24220769923767,217.76777809824802","8,7,6,5,4,3,2,1","CORN CROP,CORN CROP,CORN CROP,CORN CROP,CORN CROP,CORN CROP,CORN CROP,CORN CROP","0,0,0,0,0,0,0,0","20,20,20,20,20,20,20,20","10,10,10,10,10,10,10,10","20,20,20,20,20,20,20,20","20,20,20,20,20,20,20,20","20,20,20,20,20,20,20,20","0,0,0,0,0,0,0,0","20,20,20,20,20,20,20,20","10,10,10,10,10,10,10,10","20,20,20,20,20,20,20,20","20,20,20,20,20,20,20,20","20,20,20,20,20,20,20,20","0,0,0,1,1,1,0,1","6681,673,346,970,2609,365,635,992","48.451942031343336,10.456645732573435,-57.23980126649857,9.392777372020278,5.170709253651298,52.72732220591475,8.547218751954833,47.74419063705942","-10.246468016971184,2.7176009938759984,-0.07231883172317494,-5.652461234543434,15.157905103087312,29.33794968551216,-3.4744296009896547,29.450034999935184","0","0"
"460","86","text","0","73","778397","0-0","","","","","","","","","","","","","","","","","","","","","","","","","","","","","","","","","","","","",""
"","","plant-game","0","74","798344","0-0","","200","160","8","CORN CROP","Left","200","160","4","NETTLE WEED","experimental","24","1,2,3,4,5,6,7,8","160,145.75667165222498,139.0519062928591,159.54942451286695,174.88199610943673,207.97823243795847,207.67335983450485,195.80355453499968","8,7,6,5,4,3,2,1","CORN CROP,CORN CROP,CORN CROP,CORN CROP,CORN CROP,CORN CROP,CORN CROP,CORN CROP","160,138.4627889227827,162.9572349647322,173.50353885213164,160,204.72358141436337,175.43489461471341,172.4939541795044","4,3,2,1,4,3,2,1","NETTLE WEED,NETTLE WEED,NETTLE WEED,NETTLE WEED,THISTLE WEED,THISTLE WEED,THISTLE WEED,THISTLE WEED","20,20,20,20,20,20,20,20","20,20,20,20,20,20,20,20","10,10,10,10,10,10,10,10","20,20,20,20,20,20,20,20","0,0,0,0,0,0,0,0","20,20,20,20,20,20,20,20","20,20,20,20,20,20,20,20","20,20,20,20,20,20,20,20","10,10,10,10,10,10,10,10","20,20,20,20,20,20,20,20","0,0,0,0,0,0,0,0","20,20,20,20,20,20,20,20","1,1,1,1,0,1,1,0","4807,59,912,1195,4260,932,1012,999","-14.24332834777501,-6.704765359365895,20.497518220007848,15.332571596569766,33.096236328521734,-0.30487260345360967,-11.869805299505163,-30.033173941161657","-21.53721107721731,24.49444604194951,10.54630388739942,-23.890875758162423,44.723581414363366,-29.288686799649966,-2.9409404352090105,-16.608137060597215","0","0"
"400","86","text","0","75","798814","0-0","","","","","","","","","","","","","","","","","","","","","","","","","","","","","","","","","","","","",""
"","","plant-game","0","76","809863","0-0","","200","180","2","WHEAT CROP","Left","200","160","2","THISTLE WEED","experimental","25","1,2","180,166.35755681673254","2,1","WHEAT CROP,WHEAT CROP","160,193.7449549039895","2,1","THISTLE WEED,THISTLE WEED","20,20","20,20","10,10","20,20","0,0","20,20","20,20","20,20","10,10","20,20","0,0","20,20","0,0","6501,1455","-13.642443183267474,30.13272901618631","33.74495490398951,17.904479756844587","0","0"
"462","86","text","0","77","810425","0-0","","","","","","","","","","","","","","","","","","","","","","","","","","","","","","","","","","","","",""
"","","plant-game","0","78","823660","0-0","","200","190","8","CORN CROP","Left","200","190","8","NETTLE WEED","experimental","26","1,2,3,4,5,6,7,8","190,218.23769874014963,229.62188919235246,224.19355395512483,231.6981053662519,227.11601067910073,235.75811841124766,240.14393022977575","8,7,6,5,4,3,2,1","CORN CROP,CORN CROP,CORN CROP,CORN CROP,CORN CROP,CORN CROP,CORN CROP,CORN CROP","190,201.85164322829272,204.4338746520773,238.52911295474254,200.21392734934733,217.2369051205786,221.84295013988827,240.62641976953918","8,7,6,5,4,3,2,1","NETTLE WEED,NETTLE WEED,NETTLE WEED,NETTLE WEED,NETTLE WEED,NETTLE WEED,NETTLE WEED,NETTLE WEED","20,20,20,20,20,20,20,20","20,20,20,20,20,20,20,20","10,10,10,10,10,10,10,10","20,20,20,20,20,20,20,20","0,0,0,0,0,0,0,0","20,20,20,20,20,20,20,20","20,20,20,20,20,20,20,20","20,20,20,20,20,20,20,20","10,10,10,10,10,10,10,10","20,20,20,20,20,20,20,20","0,0,0,0,0,0,0,0","20,20,20,20,20,20,20,20","1,1,1,1,1,1,1,1","5409,78,296,118,805,421,270,1567","28.237698740149625,11.38419045220283,-5.428335237227638,7.50455141112707,-4.582094687151181,8.642107732146934,4.385811818528083,41.914871086629134","11.851643228292712,2.582231423784569,34.095238302665244,-38.31518560539523,17.022977771231275,4.606045019309683,18.783469629650916,-33.00964495453562","0","0"
"440","86","text","0","79","824210","0-0","","","","","","","","","","","","","","","","","","","","","","","","","","","","","","","","","","","","",""
"","","plant-game","0","80","843224","0-0","","200","160","2","CORN CROP","Right","200","160","8","THISTLE WEED","experimental","27","1,2,3,4,5,6,7,8","160,185.86530987411612,187.479394019453,162.41904101565547,167.76362932527965,157.14634328782202,178.91099083028524,199.24294084025405","8,7,6,5,4,3,2,1","THISTLE WEED,THISTLE WEED,THISTLE WEED,THISTLE WEED,THISTLE WEED,THISTLE WEED,THISTLE WEED,THISTLE WEED","160,193.60880045232477,140,158.3693102173076,155.97351525515734,142.97095800518298,154.73225532556367,159.88130730913457","2,1,6,5,4,3,2,1","CORN CROP,CORN CROP,WHEAT CROP,WHEAT CROP,WHEAT CROP,WHEAT CROP,WHEAT CROP,WHEAT CROP","0,0,0,0,0,0,0,0","20,20,20,20,20,20,20,20","10,10,10,10,10,10,10,10","20,20,20,20,20,20,20,20","20,20,20,20,20,20,20,20","20,20,20,20,20,20,20,20","0,0,0,0,0,0,0,0","20,20,20,20,20,20,20,20","10,10,10,10,10,10,10,10","20,20,20,20,20,20,20,20","20,20,20,20,20,20,20,20","20,20,20,20,20,20,20,20","1,1,0,0,0,0,0,0","4124,6039,2885,60,74,105,88,91","25.865309874116118,1.6140841453368857,-25.060353003797545,5.344588309624174,-10.617286037457628,21.76464754246322,20.331950009968814,36.246435956505614","33.608800452324765,-14.69394167936013,18.369310217307593,-2.3957949621502523,-13.002557249974371,11.761297320380699,5.149051983570908,-40.26721271996688","0","0"
"460","86","text","0","81","843794","0-0","","","","","","","","","","","","","","","","","","","","","","","","","","","","","","","","","","","","",""
"","","plant-game","0","82","865518","0-0","","200","160","8","WHEAT CROP","Left","200","190","2","NETTLE WEED","experimental","28","1,2,3,4,5,6,7,8","160,139.7288714020424,116.28468419877709,127.13876494412068,166.06784327586934,201.6487345299718,227.57512584169527,220.66166238849473","8,7,6,5,4,3,2,1","WHEAT CROP,WHEAT CROP,WHEAT CROP,WHEAT CROP,WHEAT CROP,WHEAT CROP,WHEAT CROP,WHEAT CROP","190,175.79609378986504,140,175.10924057970743,156.55907472664634,207.4517465343452,191.23537572958193,184.14720860388442","2,1,6,5,4,3,2,1","NETTLE WEED,NETTLE WEED,THISTLE WEED,THISTLE WEED,THISTLE WEED,THISTLE WEED,THISTLE WEED,THISTLE WEED","20,20,20,20,20,20,20,20","20,20,20,20,20,20,20,20","10,10,10,10,10,10,10,10","20,20,20,20,20,20,20,20","0,0,0,0,0,0,0,0","20,20,20,20,20,20,20,20","20,20,20,20,20,20,20,20","20,20,20,20,20,20,20,20","10,10,10,10,10,10,10,10","20,20,20,20,20,20,20,20","0,0,0,0,0,0,0,0","20,20,20,20,20,20,20,20","1,1,0,0,0,1,1,1","5982,387,1996,928,1543,1504,1436,2043","-20.271128597957627,-23.444187203265294,10.854080745343593,38.92907833174864,35.580891254102454,25.926391311723474,-6.913463453200532,-21.6327159787574","-14.203906210134964,8.842437890226847,35.10924057970743,-18.55016585306108,50.892671807698875,-16.216370804763265,-7.088167125697522,-14.504693585599885","0","0"
"426","86","text","0","83","866084","0-0","","","","","","","","","","","","","","","","","","","","","","","","","","","","","","","","","","","","",""
"","","plant-game","0","84","886403","0-0","","200","160","8","WHEAT CROP","Left","200","120","2","NETTLE WEED","experimental","29","1,2,3,4,5,6,7,8","160,144.22468260301193,175.636136821693,196.78235688716256,196.1459291772163,208.26167231940585,217.64109197433118,202.76898770379657","8,7,6,5,4,3,2,1","WHEAT CROP,WHEAT CROP,WHEAT CROP,WHEAT CROP,WHEAT CROP,WHEAT CROP,WHEAT CROP,WHEAT CROP","120,112.5574552546058,140,130.76672352582926,134.96630114696774,136.23494263960356,178.64123340054059,171.75034798899858","2,1,6,5,4,3,2,1","NETTLE WEED,NETTLE WEED,THISTLE WEED,THISTLE WEED,THISTLE WEED,THISTLE WEED,THISTLE WEED,THISTLE WEED","20,20,20,20,20,20,20,20","20,20,20,20,20,20,20,20","10,10,10,10,10,10,10,10","20,20,20,20,20,20,20,20","0,0,0,0,0,0,0,0","20,20,20,20,20,20,20,20","20,20,20,20,20,20,20,20","20,20,20,20,20,20,20,20","10,10,10,10,10,10,10,10","20,20,20,20,20,20,20,20","0,0,0,0,0,0,0,0","20,20,20,20,20,20,20,20","1,0,1,1,1,1,1,1","9207,870,1821,999,381,543,309,404","-15.775317396988074,31.41145421868107,21.146220065469592,-0.6364277099462639,12.115743142189563,9.379419654925336,-14.872104270534601,-8.570620298934038","-7.442544745394196,41.54781058890954,-9.23327647417074,4.1995776211384666,1.2686414926358291,42.40629076093703,-6.890885411542005,-4.218254392843325","0","0"
"368","86","text","0","85","886899","0-0","","","","","","","","","","","","","","","","","","","","","","","","","","","","","","","","","","","","",""
"","","plant-game","0","86","899202","0-0","","200","180","1","CORN CROP","Left","200","180","8","NETTLE WEED","experimental","30","1,2,3,4,5,6,7,8","180,130,111.06756707150231,150.60283905146886,144.58265952384718,172.66545266296745,189.66859112099962,190.52463489382825","1,7,6,5,4,3,2,1","CORN CROP,WHEAT CROP,WHEAT CROP,WHEAT CROP,WHEAT CROP,WHEAT CROP,WHEAT CROP,WHEAT CROP","180,215.51032117235653,201.47826430389836,224.20160419641417,220.25877435917855,237.133854682615,216.56985515423307,269.17749764161107","8,7,6,5,4,3,2,1","NETTLE WEED,NETTLE WEED,NETTLE WEED,NETTLE WEED,NETTLE WEED,NETTLE WEED,NETTLE WEED,NETTLE WEED","20,20,20,20,20,20,20,20","20,20,20,20,20,20,20,20","10,10,10,10,10,10,10,10","20,20,20,20,20,20,20,20","0,0,0,0,0,0,0,0","20,20,20,20,20,20,20,20","20,20,20,20,20,20,20,20","20,20,20,20,20,20,20,20","10,10,10,10,10,10,10,10","20,20,20,20,20,20,20,20","0,0,0,0,0,0,0,0","20,20,20,20,20,20,20,20","0,1,1,1,1,1,1,1","3133,2762,53,89,88,89,97,91","33.42048418227879,-18.93243292849769,39.53527197996655,-6.020179527621682,28.082793139120263,17.003138458032158,0.8560437728286162,5.151673928831434","35.51032117235653,-14.032056868458174,22.723339892515817,-3.942829837235612,16.875080323436475,-20.56399952838194,52.607642487378,-6.840771693455522","0","0"
"443","86","text","0","87","899755","0-0","","","","","","","","","","","","","","","","","","","","","","","","","","","","","","","","","","","","",""
"","","plant-game","0","88","913959","0-0","","200","180","2","WHEAT CROP","Right","200","180","1","NETTLE WEED","experimental","31","1,2","180,190","1,1","NETTLE WEED,THISTLE WEED","180,180.050339832017","2,1","WHEAT CROP,WHEAT CROP","0,0","20,20","10,10","20,20","20,20","20,20","0,0","20,20","10,10","20,20","20,20","20,20","0,1","7588,678","5.502773145493328,37.88778292411614","0.05033983201698078,-8.477814617545292","0","0"
"557","86","text","0","89","914636","0-0","","","","","","","","","","","","","","","","","","","","","","","","","","","","","","","","","","","","",""
"","","plant-game","0","90","928725","0-0","","200","180","8","WHEAT CROP","Right","200","180","8","THISTLE WEED","experimental","32","1,2,3,4,5,6,7,8","180,214.72727737738916,228.81571190059694,257.9578372879347,242.51024750873634,215.2986471660825,208.1098483765817,199.45295658131576","8,7,6,5,4,3,2,1","THISTLE WEED,THISTLE WEED,THISTLE WEED,THISTLE WEED,THISTLE WEED,THISTLE WEED,THISTLE WEED,THISTLE WEED","180,205.26920897561902,232.92717856577087,246.10378192757764,280.08053649206045,290.7185423495663,276.1238387187849,222.8306727504998","8,7,6,5,4,3,2,1","WHEAT CROP,WHEAT CROP,WHEAT CROP,WHEAT CROP,WHEAT CROP,WHEAT CROP,WHEAT CROP,WHEAT CROP","0,0,0,0,0,0,0,0","20,20,20,20,20,20,20,20","10,10,10,10,10,10,10,10","20,20,20,20,20,20,20,20","20,20,20,20,20,20,20,20","20,20,20,20,20,20,20,20","0,0,0,0,0,0,0,0","20,20,20,20,20,20,20,20","10,10,10,10,10,10,10,10","20,20,20,20,20,20,20,20","20,20,20,20,20,20,20,20","20,20,20,20,20,20,20,20","1,1,1,1,0,0,0,0","4943,716,216,89,1885,85,109,133","34.72727737738916,14.088434523207786,29.14212538733777,-15.44758977919836,-27.21160034265383,-7.188798789500802,-8.65689179526595,-4.468403580022925","25.269208975619026,27.657969590151847,13.176603361806755,33.9767545644828,10.638005857505863,-14.594703630781417,-53.29316596828511,-5.687357932675158","0","0"
"4313","86","text","0","91","933188","0-0","","","","","","","","","","","","","","","","","","","","","","","","","","","","","","","","","","","","",""
"","","plant-game","0","92","950551","0-0","","200","160","8","CORN CROP","Right","200","190","4","THISTLE WEED","experimental","33","1,2,3,4,5,6,7,8","190,211.2410423418398,220.85363645290266,181.94084777359478,160,169.73822324236966,154.569443818526,157.27021973326612","4,3,2,1,4,3,2,1","THISTLE WEED,THISTLE WEED,THISTLE WEED,THISTLE WEED,NETTLE WEED,NETTLE WEED,NETTLE WEED,NETTLE WEED","160,228.46020115567683,229.78337616641002,229.7109856053211,225.33855170745773,226.06788473947066,177.87143912090647,186.18072305202463","8,7,6,5,4,3,2,1","CORN CROP,CORN CROP,CORN CROP,CORN CROP,CORN CROP,CORN CROP,CORN CROP,CORN CROP","0,0,0,0,0,0,0,0","20,20,20,20,20,20,20,20","10,10,10,10,10,10,10,10","20,20,20,20,20,20,20,20","20,20,20,20,20,20,20,20","20,20,20,20,20,20,20,20","0,0,0,0,0,0,0,0","20,20,20,20,20,20,20,20","10,10,10,10,10,10,10,10","20,20,20,20,20,20,20,20","20,20,20,20,20,20,20,20","20,20,20,20,20,20,20,20","0,0,0,0,0,0,1,1","5897,55,508,66,3110,541,937,953","21.241042341839794,9.612594111062874,-38.912788679307894,9.57858954198337,9.738223242369644,-15.16877942384366,2.7007759147401345,27.24240939810355","68.46020115567681,1.323175010733203,-0.07239056108892511,-4.372433897863388,0.7293330320129353,-48.1964456185642,8.309283931118163,-21.020689629730455","0","0"
"436","86","text","0","93","951077","0-0","","","","","","","","","","","","","","","","","","","","","","","","","","","","","","","","","","","","",""
"","","plant-game","0","94","958971","0-0","","200","120","1","WHEAT CROP","Right","200","180","1","NETTLE WEED","experimental","34","1","180","1","NETTLE WEED","120","1","WHEAT CROP","0","20","10","20","20","20","0","20","10","20","20","20","0","4824","44.55738379806138","-28.59024648744121","0","0"
"420","86","text","0","95","959511","0-0","","","","","","","","","","","","","","","","","","","","","","","","","","","","","","","","","","","","",""
"","","plant-game","0","96","973554","0-0","","200","180","4","WHEAT CROP","Left","200","160","1","NETTLE WEED","experimental","35","1,2,3,4","180,176.89322678687597,163.3978709816647,207.7546275121189","4,3,2,1","WHEAT CROP,WHEAT CROP,WHEAT CROP,WHEAT CROP","160,170,109.40646939888751,123.84204926970449","1,3,2,1","NETTLE WEED,THISTLE WEED,THISTLE WEED,THISTLE WEED","20,20,20,20","20,20,20,20","10,10,10,10","20,20,20,20","0,0,0,0","20,20,20,20","20,20,20,20","20,20,20,20","10,10,10,10","20,20,20,20","0,0,0,0","20,20,20,20","0,1,0,0","5368,1835,888,495","-3.1067732131240433,-13.495355805211275,44.356756530454184,7.243859243961651","-14.590227125637881,-60.593530601112484,14.435579870816982,17.770393794821356","1","0"
"220","86","text","0","97","973874","0-0","","","","","","","","","","","","","","","","","","","","","","","","","","","","","","","","","","","","",""
"","","plant-game","0","98","985567","0-0","","200","180","1","CORN CROP","Right","200","180","2","NETTLE WEED","experimental","36","1,2","180,200.3256526717036","2,1","NETTLE WEED,NETTLE WEED","180,190","1,1","CORN CROP,WHEAT CROP","0,0","20,20","10,10","20,20","20,20","20,20","0,0","20,20","10,10","20,20","20,20","20,20","1,0","5191,1562","20.325652671703605,7.795167436563729","52.477125595897824,8.152911728967673","0","0"
"163","86","text","0","99","985820","0-0","","","","","","","","","","","","","","","","","","","","","","","","","","","","","","","","","","","","",""
"","","plant-game","0","100","992010","0-0","","200","180","1","WHEAT CROP","Right","200","120","1","NETTLE WEED","experimental","37","1","120","1","NETTLE WEED","180","1","WHEAT CROP","0","20","10","20","20","20","0","20","10","20","20","20","1","3327","5.717423651162337","43.897730664239404","0","0"
"403","86","text","0","101","992513","0-0","","","","","","","","","","","","","","","","","","","","","","","","","","","","","","","","","","","","",""
"","","plant-game","0","102","1007567","0-0","","200","160","4","WHEAT CROP","Right","200","160","2","NETTLE WEED","experimental","38","1,2,3,4","160,183.59872206265047,180,198.3512301489219","2,1,2,1","NETTLE WEED,NETTLE WEED,THISTLE WEED,THISTLE WEED","160,174.08726068879648,150.75052523271555,180.6093504296093","4,3,2,1","WHEAT CROP,WHEAT CROP,WHEAT CROP,WHEAT CROP","0,0,0,0","20,20,20,20","10,10,10,10","20,20,20,20","20,20,20,20","20,20,20,20","0,0,0,0","20,20,20,20","10,10,10,10","20,20,20,20","20,20,20,20","20,20,20,20","1,0,1,0","5395,1596,1035,2433","23.59872206265046,-14.475687574317176,18.351230148921907,-2.772238697711334","14.087260688796476,-23.336735456080923,29.858825196893747,-40.63012459855144","0","0"
"468","86","text","0","103","1008144","0-0","","","","","","","","","","","","","","","","","","","","","","","","","","","","","","","","","","","","",""
"","","plant-game","0","104","1027613","0-0","","200","160","4","CORN CROP","Right","200","180","8","THISTLE WEED","experimental","39","1,2,3,4,5,6,7,8","180,191.28762413312865,197.77118547153796,215.13844368685864,266.3645851847014,260.55986774364857,249.45709405818783,250.4350257601029","8,7,6,5,4,3,2,1","THISTLE WEED,THISTLE WEED,THISTLE WEED,THISTLE WEED,THISTLE WEED,THISTLE WEED,THISTLE WEED,THISTLE WEED","160,179.92125044708027,171.22733345669633,217.41569912858046,160,145.93311802953932,167.06831894652186,185.17510460186244","4,3,2,1,4,3,2,1","CORN CROP,CORN CROP,CORN CROP,CORN CROP,WHEAT CROP,WHEAT CROP,WHEAT CROP,WHEAT CROP","0,0,0,0,0,0,0,0","20,20,20,20,20,20,20,20","10,10,10,10,10,10,10,10","20,20,20,20,20,20,20,20","20,20,20,20,20,20,20,20","20,20,20,20,20,20,20,20","0,0,0,0,0,0,0,0","20,20,20,20,20,20,20,20","10,10,10,10,10,10,10,10","20,20,20,20,20,20,20,20","20,20,20,20,20,20,20,20","20,20,20,20,20,20,20,20","0,0,1,1,0,0,0,0","6308,82,1168,1911,1664,71,382,2264","11.287624133128642,6.483561338409313,17.367258215320675,51.2261414978428,-5.8047174410528335,-11.10277368546072,0.9779317019150537,-8.627107043812668","19.921250447080258,-8.693916990383935,46.18836567188414,10.925683527025598,-14.066881970460683,21.135200916982534,18.106785655340584,-4.131355518201405","0","0"
"390","86","text","0","105","1028123","0-0","","","","","","","","","","","","","","","","","","","","","","","","","","","","","","","","","","","","",""
"","","plant-game","0","106","1039166","0-0","","200","160","2","CORN CROP","Right","200","160","2","THISTLE WEED","experimental","40","1,2","160,172.81201828115158","2,1","THISTLE WEED,THISTLE WEED","160,170.21057970220141","2,1","CORN CROP,CORN CROP","0,0","20,20","10,10","20,20","20,20","20,20","0,0","20,20","10,10","20,20","20,20","20,20","1,1","6899,804","12.812018281151591,26.91451344246233","10.210579702201429,10.93907022894377","0","0"
"467","86","text","0","107","1039758","0-0","","","","","","","","","","","","","","","","","","","","","","","","","","","","","","","","","","","","",""
"","","plant-game","0","108","1053719","0-0","","200","120","1","CORN CROP","Right","200","180","2","NETTLE WEED","experimental","41","1,2","180,161.86936568745116","2,1","NETTLE WEED,NETTLE WEED","120,190","1,1","CORN CROP,WHEAT CROP","0,0","20,20","10,10","20,20","20,20","20,20","0,0","20,20","10,10","20,20","20,20","20,20","0,1","4575,3233","-18.130634312548825,48.22376838669962","-7.941892992328946,-57.052647080520856","0","0"
"660","86","text","0","109","1054499","0-0","","","","","","","","","","","","","","","","","","","","","","","","","","","","","","","","","","","","",""
"","","plant-game","0","110","1061220","0-0","","200","120","1","WHEAT CROP","Left","200","160","1","NETTLE WEED","experimental","42","1","120","1","WHEAT CROP","160","1","NETTLE WEED","20","20","10","20","0","20","20","20","10","20","0","20","1","3876","-9.168275802749546","15.679261813832419","0","0"
"232","86","text","0","111","1061562","0-0","","","","","","","","","","","","","","","","","","","","","","","","","","","","","","","","","","","","",""
"","","plant-game","0","112","1067605","0-0","","200","180","1","WHEAT CROP","Left","200","180","1","THISTLE WEED","experimental","43","1","180","1","WHEAT CROP","180","1","THISTLE WEED","20","20","10","20","0","20","20","20","10","20","0","20","1","3486","-5.3512867043005965","35.79020496791972","0","0"
"394","86","text","0","113","1068079","0-0","","","","","","","","","","","","","","","","","","","","","","","","","","","","","","","","","","","","",""
"","","plant-game","0","114","1079448","0-0","","200","120","1","CORN CROP","Left","200","120","2","THISTLE WEED","experimental","44","1,2","120,190","1,1","CORN CROP,WHEAT CROP","120,150.15172989908672","2,1","THISTLE WEED,THISTLE WEED","20,20","20,20","10,10","20,20","0,0","20,20","20,20","20,20","10,10","20,20","0,0","20,20","0,0","2502,2850","23.021993323754742,16.432289854292993","30.15172989908673,36.16254209229002","0","0"
"416","86","text","0","115","1079984","0-0","","","","","","","","","","","","","","","","","","","","","","","","","","","","","","","","","","","","",""
"","","plant-game","0","116","1095511","0-0","","200","120","2","WHEAT CROP","Right","200","190","8","THISTLE WEED","experimental","45","1,2,3,4,5,6,7,8","190,193.50052113309553,177.11062965048166,186.07910042014612,207.01512706955577,154.04197957353313,159.48971133018998,137.82350091773296","8,7,6,5,4,3,2,1","THISTLE WEED,THISTLE WEED,THISTLE WEED,THISTLE WEED,THISTLE WEED,THISTLE WEED,THISTLE WEED,THISTLE WEED","120,124.97938871461973,140,167.1456716502127,200.66045597073992,213.38397441696318,248.3795327063503,219.14169200995514","2,1,6,5,4,3,2,1","WHEAT CROP,WHEAT CROP,CORN CROP,CORN CROP,CORN CROP,CORN CROP,CORN CROP,CORN CROP","0,0,0,0,0,0,0,0","20,20,20,20,20,20,20,20","10,10,10,10,10,10,10,10","20,20,20,20,20,20,20,20","20,20,20,20,20,20,20,20","20,20,20,20,20,20,20,20","0,0,0,0,0,0,0,0","20,20,20,20,20,20,20,20","10,10,10,10,10,10,10,10","20,20,20,20,20,20,20,20","20,20,20,20,20,20,20,20","20,20,20,20,20,20,20,20","0,0,0,0,0,0,0,1","4974,494,444,503,749,384,650,1762","3.5005211330955275,-16.389891482613866,8.968470769664476,20.936026649409666,-52.97314749602265,5.447731756656856,-21.66621041245703,28.119478243115047","4.979388714619724,-5.290375480995286,27.14567165021269,33.51478432052721,12.72351844622327,34.995558289387105,-29.23784069639516,8.347431592689896","0","0"
"154","86","text","0","117","1095765","0-0","","","","","","","","","","","","","","","","","","","","","","","","","","","","","","","","","","","","",""
"","","plant-game","0","118","1107932","0-0","","200","180","4","CORN CROP","Left","200","120","2","THISTLE WEED","experimental","46","1,2,3,4","180,197.25327009120394,222.2583099604592,165.03940452776078","4,3,2,1","CORN CROP,CORN CROP,CORN CROP,CORN CROP","120,131.7201948930943,180,200.85069120578927","2,1,2,1","THISTLE WEED,THISTLE WEED,NETTLE WEED,NETTLE WEED","20,20,20,20","20,20,20,20","10,10,10,10","20,20,20,20","0,0,0,0","20,20,20,20","20,20,20,20","20,20,20,20","10,10,10,10","20,20,20,20","0,0,0,0","20,20,20,20","0,0,1,0","3319,429,1516,2331","17.25327009120396,25.00503986925526,-57.218905432698406,38.90037822378599","11.720194893094284,8.354199757251184,20.850691205789282,57.98525377964011","0","0"
"182","86","text","0","119","1108234","0-0","","","","","","","","","","","","","","","","","","","","","","","","","","","","","","","","","","","","",""
"","","plant-game","0","120","1123504","0-0","","200","120","8","CORN CROP","Left","200","190","8","THISTLE WEED","experimental","47","1,2,3,4,5,6,7,8","120,117.29299679585236,75.64342025498203,49.92419532363162,15.784661055529014,63.932914389847355,62.93319454408005,76.36443146995722","8,7,6,5,4,3,2,1","CORN CROP,CORN CROP,CORN CROP,CORN CROP,CORN CROP,CORN CROP,CORN CROP,CORN CROP","190,218.36478954702383,212.48066950884945,211.95674569083246,155.34594575761076,208.04146478495548,215.51276156137592,212.05347245965027","8,7,6,5,4,3,2,1","THISTLE WEED,THISTLE WEED,THISTLE WEED,THISTLE WEED,THISTLE WEED,THISTLE WEED,THISTLE WEED,THISTLE WEED","20,20,20,20,20,20,20,20","20,20,20,20,20,20,20,20","10,10,10,10,10,10,10,10","20,20,20,20,20,20,20,20","0,0,0,0,0,0,0,0","20,20,20,20,20,20,20,20","20,20,20,20,20,20,20,20","20,20,20,20,20,20,20,20","10,10,10,10,10,10,10,10","20,20,20,20,20,20,20,20","0,0,0,0,0,0,0,0","20,20,20,20,20,20,20,20","1,1,1,1,0,1,1,1","6563,124,246,578,1330,1062,390,350","-2.707003204147643,-41.64957654087032,-25.719224931350414,-34.13953426810261,48.14825333431834,-0.9997198457673053,13.431236925877169,5.74354675911168","28.364789547023822,-5.8841200381743795,-0.5239238180169727,-56.61079993322169,52.69551902734471,7.471296776420444,-3.459289101725647,39.327379399469876","0","0"
"490","86","text","0","121","1124144","0-0","","","","","","","","","","","","","","","","","","","","","","","","","","","","","","","","","","","","",""
"","","plant-game","0","122","1133675","0-0","","200","160","4","WHEAT CROP","Right","200","120","4","THISTLE WEED","experimental","48","1,2,3,4","120,128.02247599929726,151.08723978608404,178.54089288705816","4,3,2,1","THISTLE WEED,THISTLE WEED,THISTLE WEED,THISTLE WEED","160,168.1528423521876,203.02043534433892,211.0352367398378","4,3,2,1","WHEAT CROP,WHEAT CROP,WHEAT CROP,WHEAT CROP","0,0,0,0","20,20,20,20","10,10,10,10","20,20,20,20","20,20,20,20","20,20,20,20","0,0,0,0","20,20,20,20","10,10,10,10","20,20,20,20","20,20,20,20","20,20,20,20","1,1,1,0","4372,303,513,1254","8.022475999297267,23.064763786786788,27.453653100974122,8.339514316687783","8.152842352187609,34.867592992151316,8.014801395498885,-17.50091155957454","0","0"
"1342","86","text","0","123","1135188","0-0","","","","","","","","","","","","","","","","","","","","","","","","","","","","","","","","","","","","",""
"","","plant-game","0","124","1150550","0-0","","200","120","4","CORN CROP","Left","200","120","2","NETTLE WEED","experimental","49","1,2,3,4","120,137.72084261147108,148.67156376808978,184.023127437053","4,3,2,1","CORN CROP,CORN CROP,CORN CROP,CORN CROP","120,156.72624507517418,180,196.41049172541426","2,1,2,1","NETTLE WEED,NETTLE WEED,THISTLE WEED,THISTLE WEED","20,20,20,20","20,20,20,20","10,10,10,10","20,20,20,20","0,0,0,0","20,20,20,20","20,20,20,20","20,20,20,20","10,10,10,10","20,20,20,20","0,0,0,0","20,20,20,20","0,0,0,1","6478,1399,1102,990","17.72084261147107,10.950721156618709,35.351563668963216,-12.838406056257012","36.72624507517416,6.78526914384129,16.410491725414253,-0.939773098637028","0","0"
"76","86","text","0","125","1150720","0-0","","","","","","","","","","","","","","","","","","","","","","","","","","","","","","","","","","","","",""
"","","plant-game","0","126","1158883","0-0","","200","160","2","WHEAT CROP","Right","200","190","1","NETTLE WEED","experimental","50","1,2","190,190","1,1","NETTLE WEED,THISTLE WEED","160,177.14951109901858","2,1","WHEAT CROP,WHEAT CROP","0,0","20,20","10,10","20,20","20,20","20,20","0,0","20,20","10,10","20,20","20,20","20,20","0,1","2610,1021","-7.519699664741083,-9.484420129601897","17.14951109901857,18.450081244670287","0","0"
"404","86","text","0","127","1159412","0-0","","","","","","","","","","","","","","","","","","","","","","","","","","","","","","","","","","","","",""
"","","plant-game","0","128","1177235","0-0","","200","190","8","WHEAT CROP","Left","200","160","2","THISTLE WEED","experimental","51","1,2,3,4,5,6,7,8","190,207.32806956494275,192.72450260912953,196.79350708599918,221.6994505533625,234.85613517311947,234.0712294696959,241.6986873867709","8,7,6,5,4,3,2,1","WHEAT CROP,WHEAT CROP,WHEAT CROP,WHEAT CROP,WHEAT CROP,WHEAT CROP,WHEAT CROP,WHEAT CROP","160,166.8245560401626,140,149.56292028992112,145.91247825262215,136.51650985734696,138.6388223914962,156.40206752939653","2,1,6,5,4,3,2,1","THISTLE WEED,THISTLE WEED,NETTLE WEED,NETTLE WEED,NETTLE WEED,NETTLE WEED,NETTLE WEED,NETTLE WEED","20,20,20,20,20,20,20,20","20,20,20,20,20,20,20,20","10,10,10,10,10,10,10,10","20,20,20,20,20,20,20,20","0,0,0,0,0,0,0,0","20,20,20,20,20,20,20,20","20,20,20,20,20,20,20,20","20,20,20,20,20,20,20,20","10,10,10,10,10,10,10,10","20,20,20,20,20,20,20,20","0,0,0,0,0,0,0,0","20,20,20,20,20,20,20,20","0,1,1,1,1,1,1,1","7225,1364,2191,382,408,212,177,201","17.328069564942744,-14.60356695581323,4.069004476869649,24.90594346736333,13.156684619756954,-0.7849057034235568,7.627457917074986,0.7542362671736907","6.824556040162605,10.629762983058784,9.562920289921138,-3.650442037298967,-9.395968395275183,2.122312534149245,17.763245137900338,-0.9780938290942386","0","0"
"425","86","text","0","129","1177808","0-0","","","","","","","","","","","","","","","","","","","","","","","","","","","","","","","","","","","","",""
"","","plant-game","0","130","1193536","0-0","","200","120","2","CORN CROP","Left","200","160","4","THISTLE WEED","experimental","52","1,2,3,4","120,122.03189847380004,180,172.96458663411704","2,1,2,1","CORN CROP,CORN CROP,WHEAT CROP,WHEAT CROP","160,148.0033603516989,156.59330392632933,159.56425854478942","4,3,2,1","THISTLE WEED,THISTLE WEED,THISTLE WEED,THISTLE WEED","20,20,20,20","20,20,20,20","10,10,10,10","20,20,20,20","0,0,0,0","20,20,20,20","20,20,20,20","20,20,20,20","10,10,10,10","20,20,20,20","0,0,0,0","20,20,20,20","1,1,0,0","5160,356,2349,625","2.0318984738000414,-29.75413290629897,-7.035413365882967,27.842085500878326","-11.996639648301118,8.58994357463045,2.9709546184600875,24.785742588974554","0","0"
"639","86","text","0","131","1194328","0-0","","","","","","","","","","","","","","","","","","","","","","","","","","","","","","","","","","","","",""
"","","plant-game","0","132","1204664","0-0","","200","180","4","CORN CROP","Right","200","190","2","NETTLE WEED","experimental","53","1,2,3,4","190,250.76204748066615,180,155.60923165007233","2,1,2,1","NETTLE WEED,NETTLE WEED,THISTLE WEED,THISTLE WEED","180,193.78957606151968,217.46116574029767,217.87899181363525","4,3,2,1","CORN CROP,CORN CROP,CORN CROP,CORN CROP","0,0,0,0","20,20,20,20","10,10,10,10","20,20,20,20","20,20,20,20","20,20,20,20","0,0,0,0","20,20,20,20","10,10,10,10","20,20,20,20","20,20,20,20","20,20,20,20","1,1,0,0","2167,585,2065,409","60.762047480666155,23.29872917698662,-24.39076834992766,-19.59532636764787","13.789576061519693,23.671589678777995,0.4178260733375886,-5.84310723243362","0","0"
"384","86","text","0","133","1205198","0-0","","","","","","","","","","","","","","","","","","","","","","","","","","","","","","","","","","","","",""
"","","plant-game","0","134","1219704","0-0","","200","180","8","CORN CROP","Left","200","160","1","THISTLE WEED","experimental","54","1,2,3,4,5,6,7,8","180,208.0786806934464,224.71974315538054,238.89743191241064,249.6705667920154,244.55255971958724,257.9327429538875,294.56628266060187","8,7,6,5,4,3,2,1","CORN CROP,CORN CROP,CORN CROP,CORN CROP,CORN CROP,CORN CROP,CORN CROP,CORN CROP","160,130,119.45723884832083,110.50266047449807,104.52455288784637,73.01838375566487,79.6522757448424,69.471851913644","1,7,6,5,4,3,2,1","THISTLE WEED,NETTLE WEED,NETTLE WEED,NETTLE WEED,NETTLE WEED,NETTLE WEED,NETTLE WEED,NETTLE WEED","20,20,20,20,20,20,20,20","20,20,20,20,20,20,20,20","10,10,10,10,10,10,10,10","20,20,20,20,20,20,20,20","0,0,0,0,0,0,0,0","20,20,20,20,20,20,20,20","20,20,20,20,20,20,20,20","20,20,20,20,20,20,20,20","10,10,10,10,10,10,10,10","20,20,20,20,20,20,20,20","0,0,0,0,0,0,0,0","20,20,20,20,20,20,20,20","0,1,1,1,1,1,1,1","4676,2649,122,263,358,174,151,169","28.078680693446397,16.64106246193416,14.17768875703011,10.77313487960476,-5.118007072428158,13.380183234300237,36.63353970671438,20.633823016657825","5.0486293135860745,-10.542761151679173,-8.954578373822757,-5.978107586651708,-31.50616913218149,6.633891989177528,-10.18042383119839,-28.10367628345363","0","0"
"94","86","text","0","135","1219888","0-0","","","","","","","","","","","","","","","","","","","","","","","","","","","","","","","","","","","","",""
"","","plant-game","0","136","1236046","0-0","","200","180","1","WHEAT CROP","Right","200","120","8","NETTLE WEED","experimental","55","1,2,3,4,5,6,7,8","120,119.14828601503697,146.28513084259566,132.4921103585345,136.8828857107828,125.29323235810095,163.79746217079241,126.49163571240422","8,7,6,5,4,3,2,1","NETTLE WEED,NETTLE WEED,NETTLE WEED,NETTLE WEED,NETTLE WEED,NETTLE WEED,NETTLE WEED,NETTLE WEED","180,130,147.41994861495715,177.72268207574467,181.78848712941826,152.98574179360924,136.65845056881136,118.52297480821599","1,7,6,5,4,3,2,1","WHEAT CROP,CORN CROP,CORN CROP,CORN CROP,CORN CROP,CORN CROP,CORN CROP,CORN CROP","0,0,0,0,0,0,0,0","20,20,20,20,20,20,20,20","10,10,10,10,10,10,10,10","20,20,20,20,20,20,20,20","20,20,20,20,20,20,20,20","20,20,20,20,20,20,20,20","0,0,0,0,0,0,0,0","20,20,20,20,20,20,20,20","10,10,10,10,10,10,10,10","20,20,20,20,20,20,20,20","20,20,20,20,20,20,20,20","20,20,20,20,20,20,20,20","0,0,0,0,0,1,1,1","3437,3805,57,386,362,923,50,618","-0.8517139849630289,27.1368448275587,-13.793020484061177,4.390775352248318,-11.589653352681852,38.50422981269146,-37.305826458388196,35.843225496785195","14.148814925125784,17.41994861495715,30.302733460787525,4.065805053673582,-28.80274533580903,-16.327291224797882,-18.13547576059537,39.511871803337996","0","0"
"76","86","text","0","137","1236232","0-0","","","","","","","","","","","","","","","","","","","","","","","","","","","","","","","","","","","","",""
"","","plant-game","0","138","1250170","0-0","","200","120","8","CORN CROP","Left","200","190","4","NETTLE WEED","experimental","56","1,2,3,4,5,6,7,8","120,99.81991375267359,74.05851955686899,73.2058461286233,100.02883770584302,97.41608277118644,102.26368576131777,114.35586398569262","8,7,6,5,4,3,2,1","CORN CROP,CORN CROP,CORN CROP,CORN CROP,CORN CROP,CORN CROP,CORN CROP,CORN CROP","190,196.2759880969232,213.1263938246085,236.48344689863555,160,197.5785719403558,199.10558238983782,209.0833284093025","4,3,2,1,4,3,2,1","NETTLE WEED,NETTLE WEED,NETTLE WEED,NETTLE WEED,THISTLE WEED,THISTLE WEED,THISTLE WEED,THISTLE WEED","20,20,20,20,20,20,20,20","20,20,20,20,20,20,20,20","10,10,10,10,10,10,10,10","20,20,20,20,20,20,20,20","0,0,0,0,0,0,0,0","20,20,20,20,20,20,20,20","20,20,20,20,20,20,20,20","20,20,20,20,20,20,20,20","10,10,10,10,10,10,10,10","20,20,20,20,20,20,20,20","0,0,0,0,0,0,0,0","20,20,20,20,20,20,20,20","1,1,1,1,0,0,0,0","4482,64,69,678,2135,81,201,261","-20.18008624732641,-25.7613941958046,-0.8526734282456865,26.822991577219714,-2.6127549346565857,4.847602990131337,12.092178224374841,28.894854166779812","6.2759880969231805,16.850405727685324,23.357053074027046,2.285941583530789,37.578571940355815,1.5270104494820345,9.977746019464702,33.26476766296047","0","0"
"453","86","text","0","139","1250763","0-0","","","","","","","","","","","","","","","","","","","","","","","","","","","","","","","","","","","","",""
"","","plant-game","0","140","1266483","0-0","","200","190","4","CORN CROP","Left","200","190","8","NETTLE WEED","experimental","57","1,2,3,4,5,6,7,8","190,222.6506409954451,231.0912146881635,249.42943579369657,160,146.81287626120988,129.75519128323063,163.18486009307497","4,3,2,1,4,3,2,1","CORN CROP,CORN CROP,CORN CROP,CORN CROP,WHEAT CROP,WHEAT CROP,WHEAT CROP,WHEAT CROP","190,224.37388381352048,248.83472052342378,237.77550997444243,222.2376298638693,204.98190183436628,226.93543577746104,245.7048327040452","8,7,6,5,4,3,2,1","NETTLE WEED,NETTLE WEED,NETTLE WEED,NETTLE WEED,NETTLE WEED,NETTLE WEED,NETTLE WEED,NETTLE WEED","20,20,20,20,20,20,20,20","20,20,20,20,20,20,20,20","10,10,10,10,10,10,10,10","20,20,20,20,20,20,20,20","0,0,0,0,0,0,0,0","20,20,20,20,20,20,20,20","20,20,20,20,20,20,20,20","20,20,20,20,20,20,20,20","10,10,10,10,10,10,10,10","20,20,20,20,20,20,20,20","0,0,0,0,0,0,0,0","20,20,20,20,20,20,20,20","0,0,1,1,1,1,1,0","3377,97,1532,75,2456,148,369,2259","32.6506409954451,8.440573692718395,18.338221105533087,-12.039419643241626,-13.187123738790108,-17.05768497797924,33.42966880984435,77.60054886486455","34.37388381352048,24.46083670990331,-11.059210548981353,-15.537880110573132,-17.255728029503004,21.953533943094747,18.76939692658415,16.84491871102743","0","0"
"489","86","text","0","141","1267102","0-0","","","","","","","","","","","","","","","","","","","","","","","","","","","","","","","","","","","","",""
"","","plant-game","0","142","1284876","0-0","","200","160","8","WHEAT CROP","Right","200","180","4","NETTLE WEED","experimental","58","1,2,3,4,5,6,7,8","180,179.30822105752458,221.97865972948404,233.11610758099718,160,199.84725365075792,227.96365276574798,285.93213343473445","4,3,2,1,4,3,2,1","NETTLE WEED,NETTLE WEED,NETTLE WEED,NETTLE WEED,THISTLE WEED,THISTLE WEED,THISTLE WEED,THISTLE WEED","160,177.47225819220046,174.41513669677812,170.31180379923083,173.10189082887197,194.6539417504282,173.55348562599778,190.55621617197576","8,7,6,5,4,3,2,1","WHEAT CROP,WHEAT CROP,WHEAT CROP,WHEAT CROP,WHEAT CROP,WHEAT CROP,WHEAT CROP,WHEAT CROP","0,0,0,0,0,0,0,0","20,20,20,20,20,20,20,20","10,10,10,10,10,10,10,10","20,20,20,20,20,20,20,20","20,20,20,20,20,20,20,20","20,20,20,20,20,20,20,20","0,0,0,0,0,0,0,0","20,20,20,20,20,20,20,20","10,10,10,10,10,10,10,10","20,20,20,20,20,20,20,20","20,20,20,20,20,20,20,20","20,20,20,20,20,20,20,20","0,0,0,1,1,1,1,1","3172,156,2661,1742,2334,791,1373,374","-0.6917789424754105,42.670438671959474,11.13744785151315,27.79254907300937,39.84725365075791,28.116399114990067,57.968480668986466,-6.073363753301692","17.47225819220045,-3.057121495422333,-4.103332897547292,2.7900870296411355,21.55205092155623,-21.10045612443041,17.002730545977975,1.722817885913809","0","0"
"416","86","text","0","143","1285399","0-0","","","","","","","","","","","","","","","","","","","","","","","","","","","","","","","","","","","","",""
"","","plant-game","0","144","1300127","0-0","","200","120","8","WHEAT CROP","Left","200","120","8","NETTLE WEED","experimental","59","1,2,3,4,5,6,7,8","120,140.8914143986611,134.38635552097415,180.1800663440048,150.16749037421224,151.18460937221934,134.40125291471315,120.81075258497194","8,7,6,5,4,3,2,1","WHEAT CROP,WHEAT CROP,WHEAT CROP,WHEAT CROP,WHEAT CROP,WHEAT CROP,WHEAT CROP,WHEAT CROP","120,131.7463377221325,166.95420893918515,205.33131793680718,213.6072578709644,187.65671883216783,189.23912810443738,196.7139958301901","8,7,6,5,4,3,2,1","NETTLE WEED,NETTLE WEED,NETTLE WEED,NETTLE WEED,NETTLE WEED,NETTLE WEED,NETTLE WEED,NETTLE WEED","20,20,20,20,20,20,20,20","20,20,20,20,20,20,20,20","10,10,10,10,10,10,10,10","20,20,20,20,20,20,20,20","0,0,0,0,0,0,0,0","20,20,20,20,20,20,20,20","20,20,20,20,20,20,20,20","20,20,20,20,20,20,20,20","10,10,10,10,10,10,10,10","20,20,20,20,20,20,20,20","0,0,0,0,0,0,0,0","20,20,20,20,20,20,20,20","0,0,0,1,1,1,1,1","3908,306,333,1179,2062,946,907,1447","20.89141439866112,-6.5050588776869525,45.79371082303066,-30.01257596979257,1.0171189980070932,-16.783356457506184,-13.590500329741225,-26.268584291556678","11.74633772213249,35.20787121705267,38.377108997622024,8.275939934157202,-25.950539038796563,1.582409272269566,7.4748677257527065,-22.156533064185627","0","0"
"91","86","text","0","145","1300318","0-0","","","","","","","","","","","","","","","","","","","","","","","","","","","","","","","","","","","","",""
"","","plant-game","0","146","1307941","0-0","","200","190","2","WHEAT CROP","Right","200","160","2","NETTLE WEED","experimental","60","1,2","160,180.9528511848309","2,1","NETTLE WEED,NETTLE WEED","190,184.74413494855446","2,1","WHEAT CROP,WHEAT CROP","0,0","20,20","10,10","20,20","20,20","20,20","0,0","20,20","10,10","20,20","20,20","20,20","1,1","3873,1033","20.9528511848309,24.241618351011443","-5.2558650514455465,4.81360845792646","0","0"
"393","86","text","0","147","1308424","0-0","","","","","","","","","","","","","","","","","","","","","","","","","","","","","","","","","","","","",""
"","","plant-game","0","148","1319278","0-0","","200","190","8","CORN CROP","Left","200","160","8","NETTLE WEED","experimental","61","1,2,3,4,5,6,7,8","190,194.36198930006756,218.87455080754833,235.85091799211662,213.64313409911338,214.54417232163857,194.14792637392833,190.09428031799465","8,7,6,5,4,3,2,1","CORN CROP,CORN CROP,CORN CROP,CORN CROP,CORN CROP,CORN CROP,CORN CROP,CORN CROP","160,210.7375065764793,232.16837313348285,231.7379354098488,199.94677856443343,246.54881443594704,227.32677979029512,208.44444036485908","8,7,6,5,4,3,2,1","NETTLE WEED,NETTLE WEED,NETTLE WEED,NETTLE WEED,NETTLE WEED,NETTLE WEED,NETTLE WEED,NETTLE WEED","20,20,20,20,20,20,20,20","20,20,20,20,20,20,20,20","10,10,10,10,10,10,10,10","20,20,20,20,20,20,20,20","0,0,0,0,0,0,0,0","20,20,20,20,20,20,20,20","20,20,20,20,20,20,20,20","20,20,20,20,20,20,20,20","10,10,10,10,10,10,10,10","20,20,20,20,20,20,20,20","0,0,0,0,0,0,0,0","20,20,20,20,20,20,20,20","0,1,1,1,1,1,1,1","4283,2056,82,95,123,146,271,410","4.36198930006756,24.51256150748077,16.976367184568296,-22.207783893003242,0.9010382225251914,-20.396245947710238,-4.05364605593368,-25.052767226561063","50.7375065764793,21.430866557003547,-0.430437723634051,-31.79115684541538,46.602035871513614,-19.222034645651902,-18.882339425436058,37.587431109190284","0","0"
"193","86","text","0","149","1319581","0-0","","","","","","","","","","","","","","","","","","","","","","","","","","","","","","","","","","","","",""
"","","plant-game","0","150","1329300","0-0","","200","180","4","WHEAT CROP","Right","200","120","4","NETTLE WEED","experimental","62","1,2,3,4","120,128.13001110697215,172.1349536187465,183.6311099013343","4,3,2,1","NETTLE WEED,NETTLE WEED,NETTLE WEED,NETTLE WEED","180,194.29302831521449,211.51042773849764,241.80430507207564","4,3,2,1","WHEAT CROP,WHEAT CROP,WHEAT CROP,WHEAT CROP","0,0,0,0","20,20,20,20","10,10,10,10","20,20,20,20","20,20,20,20","20,20,20,20","0,0,0,0","20,20,20,20","10,10,10,10","20,20,20,20","20,20,20,20","20,20,20,20","0,1,0,0","4183,998,1023,459","8.130011106972145,44.004942511774345,11.496156282587815,6.996469856724833","14.29302831521449,17.217399423283144,30.29387733357799,-9.97357467221965","0","0"
"335","86","text","0","151","1329740","0-0","","","","","","","","","","","","","","","","","","","","","","","","","","","","","","","","","","","","",""
"","","plant-game","0","152","1345291","0-0","","200","120","1","WHEAT CROP","Left","200","180","4","THISTLE WEED","experimental","63","1,2,3,4","120,170,193.88733619928516,205.3222642550084","1,3,2,1","WHEAT CROP,CORN CROP,CORN CROP,CORN CROP","180,179.7261926032799,204.1831992983416,190.02473330263922","4,3,2,1","THISTLE WEED,THISTLE WEED,THISTLE WEED,THISTLE WEED","20,20,20,20","20,20,20,20","10,10,10,10","20,20,20,20","0,0,0,0","20,20,20,20","20,20,20,20","20,20,20,20","10,10,10,10","20,20,20,20","0,0,0,0","20,20,20,20","1,0,1,1","6367,1564,1478,670","-15.374973080684715,23.887336199285166,11.434928055723246,-3.0110280378054357","-0.2738073967200788,24.4570066950617,-14.158465995702393,4.206282149828667","0","0"
"102","86","text","0","153","1345493","0-0","","","","","","","","","","","","","","","","","","","","","","","","","","","","","","","","","","","","",""
"","","plant-game","0","154","1361265","0-0","","200","180","2","WHEAT CROP","Right","200","120","8","THISTLE WEED","experimental","64","1,2,3,4,5,6,7,8","120,118.27723601141832,119.87638668332372,139.28689061343727,180.9125097314925,187.61320811052974,207.49306271867684,200.2037000697469","8,7,6,5,4,3,2,1","THISTLE WEED,THISTLE WEED,THISTLE WEED,THISTLE WEED,THISTLE WEED,THISTLE WEED,THISTLE WEED,THISTLE WEED","180,195.2671545407509,140,158.07245515629126,169.7485845108414,178.5395481406524,208.42114881081054,225.50474663642441","2,1,6,5,4,3,2,1","WHEAT CROP,WHEAT CROP,CORN CROP,CORN CROP,CORN CROP,CORN CROP,CORN CROP,CORN CROP","0,0,0,0,0,0,0,0","20,20,20,20,20,20,20,20","10,10,10,10,10,10,10,10","20,20,20,20,20,20,20,20","20,20,20,20,20,20,20,20","20,20,20,20,20,20,20,20","0,0,0,0,0,0,0,0","20,20,20,20,20,20,20,20","10,10,10,10,10,10,10,10","20,20,20,20,20,20,20,20","20,20,20,20,20,20,20,20","20,20,20,20,20,20,20,20","1,1,1,1,1,0,0,0","3013,439,1968,334,358,766,2076,1355","-1.7227639885816686,1.5991506719053952,19.410503930113546,41.625619118055226,6.700698379037256,19.879854608147088,-7.289362648929934,-29.778794654523388","15.267154540750917,61.81160985072394,18.07245515629125,11.676129354550143,8.790963629811014,29.88160067015812,17.083597825613882,-8.546767238299953","0","0"
"75","86","text","0","155","1361440","0-0","","","","","","","","","","","","","","","","","","","","","","","","","","","","","","","","","","","","",""
"","","plant-game","0","156","1377925","0-0","","200","180","8","CORN CROP","Right","200","160","4","THISTLE WEED","experimental","65","1,2,3,4,5,6,7,8","160,150.03882620157222,133.80278980477377,145.99056924778824,160,175.75670682342496,186.31588507962,178.084609572604","4,3,2,1,4,3,2,1","THISTLE WEED,THISTLE WEED,THISTLE WEED,THISTLE WEED,NETTLE WEED,NETTLE WEED,NETTLE WEED,NETTLE WEED","180,183.43296014688295,195.37757702109707,203.90411252477526,182.24466721494468,194.6042381299249,198.99588895435522,240.03342283466003","8,7,6,5,4,3,2,1","CORN CROP,CORN CROP,CORN CROP,CORN CROP,CORN CROP,CORN CROP,CORN CROP,CORN CROP","0,0,0,0,0,0,0,0","20,20,20,20,20,20,20,20","10,10,10,10,10,10,10,10","20,20,20,20,20,20,20,20","20,20,20,20,20,20,20,20","20,20,20,20,20,20,20,20","0,0,0,0,0,0,0,0","20,20,20,20,20,20,20,20","10,10,10,10,10,10,10,10","20,20,20,20,20,20,20,20","20,20,20,20,20,20,20,20","20,20,20,20,20,20,20,20","0,0,0,0,1,1,1,1","7312,249,363,451,1131,426,354,561","-9.961173798427787,-16.236036396798465,12.187779443014469,-11.058254230001223,15.756706823424963,10.55917825619503,-8.231275507015987,13.06593849240991","3.432960146882949,11.94461687421412,8.526535503678186,-21.659445309830573,12.359570914980228,4.391650824430307,41.03753388030479,18.36756422021296","0","0"
"480","86","text","0","157","1378562","0-0","","","","","","","","","","","","","","","","","","","","","","","","","","","","","","","","","","","","",""
"","","plant-game","0","158","1390959","0-0","","200","190","2","CORN CROP","Right","200","160","4","NETTLE WEED","experimental","66","1,2,3,4","160,198.85021713426295,230.80043310956668,244.67783446815025","4,3,2,1","NETTLE WEED,NETTLE WEED,NETTLE WEED,NETTLE WEED","190,226.7350153610309,180,183.79567214946348","2,1,2,1","CORN CROP,CORN CROP,WHEAT CROP,WHEAT CROP","0,0,0,0","20,20,20,20","10,10,10,10","20,20,20,20","20,20,20,20","20,20,20,20","0,0,0,0","20,20,20,20","10,10,10,10","20,20,20,20","20,20,20,20","20,20,20,20","1,0,0,0","4183,1292,1244,521","38.850217134262934,31.950215975303735,13.87740135858358,9.879834538687632","36.735015361030904,-26.18418762559002,3.7956721494634915,33.289892215450834","0","0"
"625","86","text","0","159","1391734","0-0","","","","","","","","","","","","","","","","","","","","","","","","","","","","","","","","","","","","",""
"","","plant-game","0","160","1400943","0-0","","200","120","2","WHEAT CROP","Left","200","190","2","THISTLE WEED","experimental","67","1,2","120,112.45868186999438","2,1","WHEAT CROP,WHEAT CROP","190,201.28141462890014","2,1","THISTLE WEED,THISTLE WEED","20,20","20,20","10,10","20,20","0,0","20,20","20,20","20,20","10,10","20,20","0,0","20,20","1,1","3547,2566","-7.541318130005616,-15.733078419017776","11.281414628900148,-19.39767302251927","0","0"
"144","86","text","0","161","1401207","0-0","","","","","","","","","","","","","","","","","","","","","","","","","","","","","","","","","","","","",""
"","","plant-game","0","162","1410877","0-0","","200","160","2","WHEAT CROP","Left","200","120","1","THISTLE WEED","experimental","68","1,2","160,198.0599040926901","2,1","WHEAT CROP,WHEAT CROP","120,190","1,1","THISTLE WEED,NETTLE WEED","20,20","20,20","10,10","20,20","0,0","20,20","20,20","20,20","10,10","20,20","0,0","20,20","0,0","2249,2606","38.05990409269009,31.768753079482103","-19.888488308292224,53.707899919830865","0","0"
"73","86","text","0","163","1411040","0-0","","","","","","","","","","","","","","","","","","","","","","","","","","","","","","","","","","","","",""
"","","plant-game","0","164","1418543","0-0","","200","120","1","WHEAT CROP","Right","200","190","1","THISTLE WEED","experimental","69","1","190","1","THISTLE WEED","120","1","WHEAT CROP","0","20","10","20","20","20","0","20","10","20","20","20","0","4653","-39.39154217622225","-14.535679516869147","0","0"
"447","86","text","0","165","1419140","0-0","","","","","","","","","","","","","","","","","","","","","","","","","","","","","","","","","","","","",""
"","","plant-game","0","166","1426567","0-0","","200","190","4","WHEAT CROP","Left","200","120","4","NETTLE WEED","experimental","70","1,2,3,4","190,220.46487583169974,232.25211388758692,258.7049497237501","4,3,2,1","WHEAT CROP,WHEAT CROP,WHEAT CROP,WHEAT CROP","120,134.693627948933,162.6699239777745,174.6138130965733","4,3,2,1","NETTLE WEED,NETTLE WEED,NETTLE WEED,NETTLE WEED","20,20,20,20","20,20,20,20","10,10,10,10","20,20,20,20","0,0,0,0","20,20,20,20","20,20,20,20","20,20,20,20","10,10,10,10","20,20,20,20","0,0,0,0","20,20,20,20","0,0,0,0","3145,715,344,376","30.464875831699736,11.787238055887178,26.45283583616318,13.00974323247306","14.693627948932985,27.976296028841503,11.943889118798808,7.037622085953341","0","0"
"448","86","text","0","167","1427145","0-0","","","","","","","","","","","","","","","","","","","","","","","","","","","","","","","","","","","","",""
"","","plant-game","0","168","1441082","0-0","","200","180","1","CORN CROP","Left","200","160","2","THISTLE WEED","experimental","71","1,2","180,190","1,1","CORN CROP,WHEAT CROP","160,195.65932838489033","2,1","THISTLE WEED,THISTLE WEED","20,20","20,20","10,10","20,20","0,0","20,20","20,20","20,20","10,10","20,20","0,0","20,20","0,1","4742,4819","40.19911434612625,-37.55251836592037","35.65932838489033,-16.04362112712283","0","0"
"553","86","text","0","169","1441795","0-0","","","","","","","","","","","","","","","","","","","","","","","","","","","","","","","","","","","","",""
"","","plant-game","0","170","1450241","0-0","","200","180","1","CORN CROP","Left","200","190","2","THISTLE WEED","experimental","72","1,2","180,190","1,1","CORN CROP,WHEAT CROP","190,183.59777191928535","2,1","THISTLE WEED,THISTLE WEED","20,20","20,20","10,10","20,20","0,0","20,20","20,20","20,20","10,10","20,20","0,0","20,20","0,0","1914,2136","32.83846707011325,20.382927053120216","-6.40222808071465,53.02266992496692","0","0"
"377","86","text","0","171","1450738","0-0","","","","","","","","","","","","","","","","","","","","","","","","","","","","","","","","","","","","",""
"","","plant-game","0","172","1459178","0-0","","200","160","2","CORN CROP","Right","200","190","2","NETTLE WEED","experimental","73","1,2","190,211.3344313156086","2,1","NETTLE WEED,NETTLE WEED","160,188.25565852958405","2,1","CORN CROP,CORN CROP","0,0","20,20","10,10","20,20","20,20","20,20","0,0","20,20","10,10","20,20","20,20","20,20","1,1","5378,69","21.334431315608608,44.549761432716764","28.255658529584046,12.029497756226563","0","0"
"426","86","text","0","173","1459724","0-0","","","","","","","","","","","","","","","","","","","","","","","","","","","","","","","","","","","","",""
"","","plant-game","0","174","1474634","0-0","","200","190","4","WHEAT CROP","Right","200","180","8","THISTLE WEED","experimental","74","1,2,3,4,5,6,7,8","180,167.42761948688963,150.57928233033508,153.171862251803,169.79299414064073,176.3643426301893,194.4872920133854,207.35560611141426","8,7,6,5,4,3,2,1","THISTLE WEED,THISTLE WEED,THISTLE WEED,THISTLE WEED,THISTLE WEED,THISTLE WEED,THISTLE WEED,THISTLE WEED","190,185.55716622003817,188.58412578465197,195.19870834252356,160,138.02788695042858,157.51092692565814,148.47032728686645","4,3,2,1,4,3,2,1","WHEAT CROP,WHEAT CROP,WHEAT CROP,WHEAT CROP,CORN CROP,CORN CROP,CORN CROP,CORN CROP","0,0,0,0,0,0,0,0","20,20,20,20,20,20,20,20","10,10,10,10,10,10,10,10","20,20,20,20,20,20,20,20","20,20,20,20,20,20,20,20","20,20,20,20,20,20,20,20","0,0,0,0,0,0,0,0","20,20,20,20,20,20,20,20","10,10,10,10,10,10,10,10","20,20,20,20,20,20,20,20","20,20,20,20,20,20,20,20","20,20,20,20,20,20,20,20","0,0,1,1,0,1,0,0","3799,364,781,70,2368,711,915,105","-12.572380513110371,-16.848337156554557,2.592579921467909,16.621131888837745,6.571348489548563,18.122949383196087,12.86831409802885,-16.293673025326793","-4.442833779961834,3.0269595646138,6.614582557871575,27.450775804605776,-21.972113049571412,19.483039975229563,-9.04059963879168,15.503935290593787","0","0"
"600","86","text","0","175","1475424","0-0","","","","","","","","","","","","","","","","","","","","","","","","","","","","","","","","","","","","",""
"","","plant-game","0","176","1488521","0-0","","200","180","2","WHEAT CROP","Left","200","160","8","NETTLE WEED","experimental","75","1,2,3,4,5,6,7,8","180,179.8843429567611,140,151.88795121601262,164.47626995629025,177.59852419881707,208.49212431932304,233.13935962817544","2,1,6,5,4,3,2,1","WHEAT CROP,WHEAT CROP,CORN CROP,CORN CROP,CORN CROP,CORN CROP,CORN CROP,CORN CROP","160,182.12075397592298,194.1000738904036,212.23307815452327,228.39264681664866,249.2318452312335,265.2816808358175,295.4408197676856","8,7,6,5,4,3,2,1","NETTLE WEED,NETTLE WEED,NETTLE WEED,NETTLE WEED,NETTLE WEED,NETTLE WEED,NETTLE WEED,NETTLE WEED","20,20,20,20,20,20,20,20","20,20,20,20,20,20,20,20","10,10,10,10,10,10,10,10","20,20,20,20,20,20,20,20","0,0,0,0,0,0,0,0","20,20,20,20,20,20,20,20","20,20,20,20,20,20,20,20","20,20,20,20,20,20,20,20","10,10,10,10,10,10,10,10","20,20,20,20,20,20,20,20","0,0,0,0,0,0,0,0","20,20,20,20,20,20,20,20","1,1,0,0,0,0,0,1","2649,147,4287,82,278,73,69,889","-0.11565704323890838,-34.83695109887658,11.887951216012615,12.588318740277636,13.122254242526832,30.893600120505976,24.647235308852416,-9.650577144995172","22.120753975922973,11.9793199144806,18.133004264119666,16.159568662125395,20.839198414584853,16.049835604584008,30.15913893186806,-5.660754385848227","0","0"
"386","86","text","0","177","1489004","0-0","","","","","","","","","","","","","","","","","","","","","","","","","","","","","","","","","","","","",""
"","","plant-game","0","178","1497168","0-0","","200","190","4","CORN CROP","Right","200","180","4","THISTLE WEED","experimental","76","1,2,3,4","180,153.73082592319398,174.92262993989647,147.87956485456957","4,3,2,1","THISTLE WEED,THISTLE WEED,THISTLE WEED,THISTLE WEED","190,212.33038880797164,233.1956676942851,210.4765140685577","4,3,2,1","CORN CROP,CORN CROP,CORN CROP,CORN CROP","0,0,0,0","20,20,20,20","10,10,10,10","20,20,20,20","20,20,20,20","20,20,20,20","0,0,0,0","20,20,20,20","10,10,10,10","20,20,20,20","20,20,20,20","20,20,20,20","0,0,0,0","4063,492,297,233","-26.26917407680603,21.191804016702477,-27.043065085326894,-9.138030519478647","22.33038880797164,20.865278886313465,-22.71915362572741,36.091413160657964","0","0"
"163","86","text","0","179","1497403","0-0","","","","","","","","","","","","","","","","","","","","","","","","","","","","","","","","","","","","",""
"","","plant-game","0","180","1512755","0-0","","200","180","4","WHEAT CROP","Right","200","120","8","THISTLE WEED","experimental","77","1,2,3,4,5,6,7,8","120,150.17841205716354,195.38537527054166,189.18101605633342,217.80086633763662,226.94445725827185,224.53614064833772,199.27395478546657","8,7,6,5,4,3,2,1","THISTLE WEED,THISTLE WEED,THISTLE WEED,THISTLE WEED,THISTLE WEED,THISTLE WEED,THISTLE WEED,THISTLE WEED","180,216.869228676648,242.78791296916637,225.94518156865917,160,156.2990112088262,125.68704888774243,121.10296705941272","4,3,2,1,4,3,2,1","WHEAT CROP,WHEAT CROP,WHEAT CROP,WHEAT CROP,CORN CROP,CORN CROP,CORN CROP,CORN CROP","0,0,0,0,0,0,0,0","20,20,20,20,20,20,20,20","10,10,10,10,10,10,10,10","20,20,20,20,20,20,20,20","20,20,20,20,20,20,20,20","20,20,20,20,20,20,20,20","0,0,0,0,0,0,0,0","20,20,20,20,20,20,20,20","10,10,10,10,10,10,10,10","20,20,20,20,20,20,20,20","20,20,20,20,20,20,20,20","20,20,20,20,20,20,20,20","1,1,0,0,0,0,0,0","4573,77,901,990,2790,62,411,509","30.17841205716354,45.20696321337812,-6.204359214208239,28.619850281303208,9.143590920635223,-2.4083166099341398,-25.26218586287115,6.587475228282517","36.869228676648,25.91868429251839,-16.8427314005072,-30.920938161442034,-3.7009887911738097,-30.61196232108375,-4.5840818283297144,-8.311748161867666","0","0"
"363","86","text","0","181","1513248","0-0","","","","","","","","","","","","","","","","","","","","","","","","","","","","","","","","","","","","",""
"","","plant-game","0","182","1528291","0-0","","200","190","8","CORN CROP","Right","200","160","1","NETTLE WEED","experimental","78","1,2,3,4,5,6,7,8","160,130,157.1128546950514,174.2828898848025,221.73150049720454,206.37519754759472,190.7701130868877,199.9714436231601","1,7,6,5,4,3,2,1","NETTLE WEED,THISTLE WEED,THISTLE WEED,THISTLE WEED,THISTLE WEED,THISTLE WEED,THISTLE WEED,THISTLE WEED","190,181.50090207887916,224.55395155841381,248.18658954641768,283.1717557513795,304.12412391868367,303.1348708693876,331.9160193614164","8,7,6,5,4,3,2,1","CORN CROP,CORN CROP,CORN CROP,CORN CROP,CORN CROP,CORN CROP,CORN CROP,CORN CROP","0,0,0,0,0,0,0,0","20,20,20,20,20,20,20,20","10,10,10,10,10,10,10,10","20,20,20,20,20,20,20,20","20,20,20,20,20,20,20,20","20,20,20,20,20,20,20,20","0,0,0,0,0,0,0,0","20,20,20,20,20,20,20,20","10,10,10,10,10,10,10,10","20,20,20,20,20,20,20,20","20,20,20,20,20,20,20,20","20,20,20,20,20,20,20,20","0,1,1,1,0,0,0,0","4080,2095,459,435,715,814,451,402","-21.174516198885147,27.11285469505141,17.17003518975109,47.44861061240204,-15.356302949609798,-15.605084460707005,9.201330536272392,2.884227126767978","-8.499097921120844,43.05304947953464,23.63263798800386,34.985166204961864,20.95236816730417,-0.9892530492960769,28.781148492028784,6.489767420713727","0","0"
"441","86","text","0","183","1528892","0-0","","","","","","","","","","","","","","","","","","","","","","","","","","","","","","","","","","","","",""
"","","plant-game","0","184","1537671","0-0","","200","180","2","WHEAT CROP","Left","200","190","2","NETTLE WEED","experimental","79","1,2","180,206.546925533898","2,1","WHEAT CROP,WHEAT CROP","190,213.63877958669462","2,1","NETTLE WEED,NETTLE WEED","20,20","20,20","10,10","20,20","0,0","20,20","20,20","20,20","10,10","20,20","0,0","20,20","0,0","2960,2187","26.546925533897998,56.70978806270041","23.63877958669463,-5.553591845201677","0","0"
"84","86","text","0","185","1537845","0-0","","","","","","","","","","","","","","","","","","","","","","","","","","","","","","","","","","","","",""
"","","plant-game","0","186","1545171","0-0","","200","160","1","WHEAT CROP","Right","200","180","1","THISTLE WEED","experimental","80","1","180","1","THISTLE WEED","160","1","WHEAT CROP","0","20","10","20","20","20","0","20","10","20","20","20","0","4845","-21.814403541192682","28.0462289153493","0","0"
"3583","86","text","0","187","1548914","0-0","","","","","","","","","","","","","","","","","","","","","","","","","","","","","","","","","","","","",""
"","","plant-game","0","188","1561489","0-0","","200","120","4","CORN CROP","Left","200","160","1","NETTLE WEED","experimental","81","1,2,3,4","120,132.9589708505069,134.30756851281166,154.75014344099907","4,3,2,1","CORN CROP,CORN CROP,CORN CROP,CORN CROP","160,170,134.8840987374539,138.2400275786791","1,3,2,1","NETTLE WEED,THISTLE WEED,THISTLE WEED,THISTLE WEED","20,20,20,20","20,20,20,20","10,10,10,10","20,20,20,20","0,0,0,0","20,20,20,20","20,20,20,20","20,20,20,20","10,10,10,10","20,20,20,20","0,0,0,0","20,20,20,20","0,0,0,0","4598,2923,119,418","12.958970850506885,1.3485976623047797,20.44257492818742,9.354659362599842","29.98851959060235,-35.11590126254609,3.3559288412252037,28.704722965290614","0","0"
"642","86","text","0","189","1562303","0-0","","","","","","","","","","","","","","","","","","","","","","","","","","","","","","","","","","","","",""
"","","plant-game","0","190","1575076","0-0","","200","160","8","WHEAT CROP","Right","200","160","1","NETTLE WEED","experimental","82","1,2,3,4,5,6,7,8","160,130,142.33951891699954,152.9787515938138,167.40920540618293,198.08221676988416,165.46961762300205,196.5736299908019","1,7,6,5,4,3,2,1","NETTLE WEED,THISTLE WEED,THISTLE WEED,THISTLE WEED,THISTLE WEED,THISTLE WEED,THISTLE WEED,THISTLE WEED","160,180.8734453348863,204.91989927643704,237.15225330556362,310.40570681272453,319.90693509683115,293.3033539076962,268.55580022048343","8,7,6,5,4,3,2,1","WHEAT CROP,WHEAT CROP,WHEAT CROP,WHEAT CROP,WHEAT CROP,WHEAT CROP,WHEAT CROP,WHEAT CROP","0,0,0,0,0,0,0,0","20,20,20,20,20,20,20,20","10,10,10,10,10,10,10,10","20,20,20,20,20,20,20,20","20,20,20,20,20,20,20,20","20,20,20,20,20,20,20,20","0,0,0,0,0,0,0,0","20,20,20,20,20,20,20,20","10,10,10,10,10,10,10,10","20,20,20,20,20,20,20,20","20,20,20,20,20,20,20,20","20,20,20,20,20,20,20,20","0,1,1,1,1,0,0,0","4016,1135,482,240,323,356,336,1092","-18.863355629924584,12.339518916999543,10.639232676814245,14.430453812369125,30.67301136370123,-32.6125991468821,31.10401236779984,10.056666000987793","20.8734453348863,24.04645394155073,32.23235402912659,73.25345350716091,9.50122828410662,-26.603581189134985,-24.747553687212786,2.7910417608125693","0","0"
"99","86","text","0","191","1575265","0-0","","","","","","","","","","","","","","","","","","","","","","","","","","","","","","","","","","","","",""
"","","plant-game","0","192","1582419","0-0","","200","120","4","WHEAT CROP","Right","200","180","4","NETTLE WEED","experimental","83","1,2,3,4","180,184.59035815031902,207.2769568747667,240.73738326907173","4,3,2,1","NETTLE WEED,NETTLE WEED,NETTLE WEED,NETTLE WEED","120,115.85879871660119,130.7785237217392,134.08776831100246","4,3,2,1","WHEAT CROP,WHEAT CROP,WHEAT CROP,WHEAT CROP","0,0,0,0","20,20,20,20","10,10,10,10","20,20,20,20","20,20,20,20","20,20,20,20","0,0,0,0","20,20,20,20","10,10,10,10","20,20,20,20","20,20,20,20","20,20,20,20","0,1,0,0","3390,470,433,87","4.59035815031902,22.686598724447705,33.46042639430502,-21.485377967618167","-4.141201283398811,14.919725005138014,3.3092445892632587,-20.593863152327007","0","0"
