"rt","key_press","trial_type","trial_index","trial_index_global","time_elapsed","internal_chunk_id","responses","experimental_goal_height","experimental_start_height","experimental_weeks_total","experimental_crop_type","experimental_crop_side","fixed_goal_height","fixed_start_height","fixed_weeks_total","fixed_crop_type","trial_kind","trial_number","stage","left_current_height","left_weeks_remaining","left_crop_type","right_current_height","right_weeks_remaining","right_crop_type","mean_left_growth_given_left","sd_left_growth_given_left","mean_left_growth_given_middle","sd_left_growth_given_middle","mean_left_growth_given_right","sd_left_growth_given_right","mean_right_growth_given_left","sd_right_growth_given_left","mean_right_growth_given_middle","sd_right_growth_given_middle","mean_right_growth_given_right","sd_right_growth_given_right","response","response_time","left_growth","right_growth","other_key_pressed","mouse_clicked"
"4000448","77","text","0","0","4000589","0-0","","","","","","","","","","","","","","","","","","","","","","","","","","","","","","","","","","","","",""
"5198","","survey-text","0","1","4006813","0-0","{""Q0"":""24""}","","","","","","","","","","","","","","","","","","","","","","","","","","","","","","","","","","","",""
"10661","86","text","0","2","10817","0-0","","","","","","","","","","","","","","","","","","","","","","","","","","","","","","","","","","","","",""
"","","plant-game","0","3","121193","0-0","","200","120","8","WHEAT CROP","Left","200","120","8","NETTLE WEED","practice","1","1,2,3,4,5,6,7,8","120,112.49981995629848,94.6159415518269,96.67704523180815,102.79891361259632,126.88482218897889,141.76242083410034,115.90545558525187","8,7,6,5,4,3,2,1","WHEAT CROP,WHEAT CROP,WHEAT CROP,WHEAT CROP,WHEAT CROP,WHEAT CROP,WHEAT CROP,WHEAT CROP","120,134.7230069637937,117.90108510232864,133.6363064835001,118.25486881524387,124.6008569618596,122.7748337390771,116.15692944687716","8,7,6,5,4,3,2,1","NETTLE WEED,NETTLE WEED,NETTLE WEED,NETTLE WEED,NETTLE WEED,NETTLE WEED,NETTLE WEED,NETTLE WEED","20,20,20,20,20,20,20,20","20,20,20,20,20,20,20,20","10,10,10,10,10,10,10,10","20,20,20,20,20,20,20,20","0,0,0,0,0,0,0,0","20,20,20,20,20,20,20,20","20,20,20,20,20,20,20,20","20,20,20,20,20,20,20,20","10,10,10,10,10,10,10,10","20,20,20,20,20,20,20,20","0,0,0,0,0,0,0,0","20,20,20,20,20,20,20,20","1,1,1,1,1,1,1,1","21122,6449,7312,7790,6151,4905,3657,2674","-7.500180043701522,-17.88387840447159,2.0611036799812514,6.12186838078817,24.08590857638257,14.877598645121457,-25.85696524884846,-17.65576220444782","14.72300696379368,-16.82192186146506,15.735221381171456,-15.381437668256234,6.345988146615734,-1.8260232227825082,-6.617904292199938,14.518627021371085","0","0"
"1172","86","text","0","4","122536","0-0","","","","","","","","","","","","","","","","","","","","","","","","","","","","","","","","","","","","",""
"","","plant-game","0","5","180640","0-0","","200","160","4","CORN CROP","Left","200","160","4","THISTLE WEED","practice","2","1,2,3,4","160,152.41402240515947,156.20217562479328,213.68903467937136","4,3,2,1","CORN CROP,CORN CROP,CORN CROP,CORN CROP","160,150.67601769595325,130.35867244238972,163.8218838540837","4,3,2,1","THISTLE WEED,THISTLE WEED,THISTLE WEED,THISTLE WEED","20,20,20,20","20,20,20,20","10,10,10,10","20,20,20,20","0,0,0,0","20,20,20,20","20,20,20,20","20,20,20,20","10,10,10,10","20,20,20,20","0,0,0,0","20,20,20,20","1,1,0,1","10142,6980,3077,16784","-7.585977594840521,3.788153219633812,57.486859054578076,1.5286812738381486","-9.323982304046762,-20.317345253563538,33.46321141169399,60.537963840159854","0","0"
"885","86","text","0","6","181717","0-0","","","","","","","","","","","","","","","","","","","","","","","","","","","","","","","","","","","","",""
"","","plant-game","0","7","206612","0-0","","200","180","2","CORN CROP","Right","200","180","2","THISTLE WEED","practice","3","1,2","180,149.2414559190484","2,1","THISTLE WEED,THISTLE WEED","180,146.2486267464249","2,1","CORN CROP,CORN CROP","0,0","20,20","10,10","20,20","20,20","20,20","0,0","20,20","10,10","20,20","20,20","20,20","0,1","5499,2918","-30.75854408095159,33.55522653334668","-33.75137325357511,15.747161991947982","0","0"
"776","86","text","0","8","207513","0-0","","","","","","","","","","","","","","","","","","","","","","","","","","","","","","","","","","","","",""
"","","plant-game","0","9","224004","0-0","","200","190","1","CORN CROP","Left","200","190","1","THISTLE WEED","practice","4","1","190","1","CORN CROP","190","1","THISTLE WEED","20","20","10","20","0","20","20","20","10","20","0","20","1","3157","-7.775215352925086","-10.326007098151578","0","0"
"646","86","text","0","10","224837","0-0","","","","","","","","","","","","","","","","","","","","","","","","","","","","","","","","","","","","",""
"","","plant-game","0","11","258911","0-0","","200","120","8","WHEAT CROP","Right","200","160","8","THISTLE WEED","practice","5","1,2,3,4,5,6,7,8","160,196.9678780417345,171.9739984176026,158.0186167847687,153.0031654245406,144.76441207180935,165.267841803857,149.41349249670768","8,7,6,5,4,3,2,1","THISTLE WEED,THISTLE WEED,THISTLE WEED,THISTLE WEED,THISTLE WEED,THISTLE WEED,THISTLE WEED,THISTLE WEED","120,138.14625187769553,140.28288707456443,184.3177160230117,165.26435488124562,169.0617707294854,176.52745316889482,190.16874661939733","8,7,6,5,4,3,2,1","WHEAT CROP,WHEAT CROP,WHEAT CROP,WHEAT CROP,WHEAT CROP,WHEAT CROP,WHEAT CROP,WHEAT CROP","0,0,0,0,0,0,0,0","20,20,20,20,20,20,20,20","10,10,10,10,10,10,10,10","20,20,20,20,20,20,20,20","20,20,20,20,20,20,20,20","20,20,20,20,20,20,20,20","0,0,0,0,0,0,0,0","20,20,20,20,20,20,20,20","10,10,10,10,10,10,10,10","20,20,20,20,20,20,20,20","20,20,20,20,20,20,20,20","20,20,20,20,20,20,20,20","0,0,0,0,0,1,1,1","8243,1964,3426,2184,4072,1098,1565,975","36.9678780417345,-24.993879624131914,-13.955381632833879,-5.01545136022809,-8.238753352731274,20.503429732047667,-15.854349307149327,50.89137659359898","18.146251877695544,2.136635196868903,44.03482894844728,-19.0533611417661,3.7974158482397726,7.465682439409417,13.641293450502504,5.110976926431373","0","0"
"786","86","text","0","12","259847","0-0","","","","","","","","","","","","","","","","","","","","","","","","","","","","","","","","","","","","",""
"","","plant-game","0","13","280329","0-0","","200","180","4","CORN CROP","Left","200","160","4","NETTLE WEED","practice","6","1,2,3,4","180,215.38809216113003,227.0721872988925,225.3434058653105","4,3,2,1","CORN CROP,CORN CROP,CORN CROP,CORN CROP","160,142.31757850189422,164.8793518202684,168.81963851607068","4,3,2,1","NETTLE WEED,NETTLE WEED,NETTLE WEED,NETTLE WEED","20,20,20,20","20,20,20,20","10,10,10,10","20,20,20,20","0,0,0,0","20,20,20,20","20,20,20,20","20,20,20,20","10,10,10,10","20,20,20,20","0,0,0,0","20,20,20,20","0,0,1,1","6523,2012,1498,1057","35.38809216113003,11.684095137762453,-1.7287814335819944,-6.8836931026718595","-17.682421498105782,22.561773318374183,3.940286695802284,22.1251693857092","0","0"
"725","86","text","0","14","281214","0-0","","","","","","","","","","","","","","","","","","","","","","","","","","","","","","","","","","","","",""
"","","plant-game","0","15","300645","0-0","","200","180","2","WHEAT CROP","Left","200","190","2","THISTLE WEED","practice","7","1,2","180,158.02905579135322","2,1","WHEAT CROP,WHEAT CROP","190,207.98576375835603","2,1","THISTLE WEED,THISTLE WEED","20,20","20,20","10,10","20,20","0,0","20,20","20,20","20,20","10,10","20,20","0,0","20,20","1,0","5833,3100","-21.970944208646777,17.234381415575545","17.985763758356033,11.253394027878475","1","0"
"536","86","text","0","16","301331","0-0","","","","","","","","","","","","","","","","","","","","","","","","","","","","","","","","","","","","",""
"","","plant-game","0","17","331397","0-0","","200","120","4","CORN CROP","Right","200","120","8","NETTLE WEED","practice","8","1,2,3,4,5,6,7,8","120,145.1673676779772,119.70223446228593,108.28278338769127,163.4395809484386,157.9231513146263,192.03724715887685,182.6890867993048","8,7,6,5,4,3,2,1","NETTLE WEED,NETTLE WEED,NETTLE WEED,NETTLE WEED,NETTLE WEED,NETTLE WEED,NETTLE WEED,NETTLE WEED","120,149.695440821805,151.85558016559398,197.81709659507854,160,163.31761397941344,179.87732328958728,216.82409106193745","4,3,2,1,4,3,2,1","CORN CROP,CORN CROP,CORN CROP,CORN CROP,WHEAT CROP,WHEAT CROP,WHEAT CROP,WHEAT CROP","0,0,0,0,0,0,0,0","20,20,20,20,20,20,20,20","10,10,10,10,10,10,10,10","20,20,20,20,20,20,20,20","20,20,20,20,20,20,20,20","20,20,20,20,20,20,20,20","0,0,0,0,0,0,0,0","20,20,20,20,20,20,20,20","10,10,10,10,10,10,10,10","20,20,20,20,20,20,20,20","20,20,20,20,20,20,20,20","20,20,20,20,20,20,20,20","1,1,1,1,1,1,1,1","3118,812,927,785,8361,665,1945,1092","25.167367677977218,-25.46513321569129,-11.419451074594662,55.15679756074733,-5.51642963381228,34.11409584425055,-9.348160359572056,33.32660330962895","29.695440821805004,2.1601393437889946,45.961516429484554,3.8719189513145906,3.3176139794134336,16.559709310173854,36.94676777235016,9.376170275718941","0","0"
"482","86","text","0","18","332023","0-0","","","","","","","","","","","","","","","","","","","","","","","","","","","","","","","","","","","","",""
"","","plant-game","0","19","375297","0-0","","200","160","4","CORN CROP","Left","200","160","2","NETTLE WEED","practice","9","1,2,3,4","160,176.2563043736007,163.1006009443192,159.70153816687892","4,3,2,1","CORN CROP,CORN CROP,CORN CROP,CORN CROP","160,167.7857793528483,180,166.7573517370176","2,1,2,1","NETTLE WEED,NETTLE WEED,THISTLE WEED,THISTLE WEED","20,20,20,20","20,20,20,20","10,10,10,10","20,20,20,20","0,0,0,0","20,20,20,20","20,20,20,20","20,20,20,20","10,10,10,10","20,20,20,20","0,0,0,0","20,20,20,20","1,1,1,0","8052,1750,7451,791","16.256304373600702,-13.1557034292815,-3.3990627774402924,16.598852914632687","7.7857793528482935,7.539370505150861,-13.242648262982401,31.895802315957916","0","0"
"512","86","text","0","20","375980","0-0","","","","","","","","","","","","","","","","","","","","","","","","","","","","","","","","","","","","",""
"","","plant-game","0","21","392843","0-0","","200","180","2","CORN CROP","Right","200","180","1","THISTLE WEED","practice","10","1,2","180,190","1,1","THISTLE WEED,NETTLE WEED","180,181.36166662853014","2,1","CORN CROP,CORN CROP","0,0","20,20","10,10","20,20","20,20","20,20","0,0","20,20","10,10","20,20","20,20","20,20","1,0","2300,3733","28.45379857594496,-39.42363143517505","1.3616666285301307,-33.56304726283939","0","0"
"113","86","text","0","22","393086","0-0","","","","","","","","","","","","","","","","","","","","","","","","","","","","","","","","","","","","",""
"","","plant-game","0","23","430603","0-0","","200","120","8","WHEAT CROP","Right","200","160","4","NETTLE WEED","practice","11","1,2,3,4,5,6,7,8","160,190.63385858277357,153.80626706575634,146.21653062091747,160,208.0434549574938,200.44712454756754,217.66322776257158","4,3,2,1,4,3,2,1","NETTLE WEED,NETTLE WEED,NETTLE WEED,NETTLE WEED,THISTLE WEED,THISTLE WEED,THISTLE WEED,THISTLE WEED","120,97.74746550722841,109.72747196801753,121.31054932397507,108.25705058265785,109.38448226001898,125.93690755923937,172.3385050297016","8,7,6,5,4,3,2,1","WHEAT CROP,WHEAT CROP,WHEAT CROP,WHEAT CROP,WHEAT CROP,WHEAT CROP,WHEAT CROP,WHEAT CROP","0,0,0,0,0,0,0,0","20,20,20,20,20,20,20,20","10,10,10,10,10,10,10,10","20,20,20,20,20,20,20,20","20,20,20,20,20,20,20,20","20,20,20,20,20,20,20,20","0,0,0,0,0,0,0,0","20,20,20,20,20,20,20,20","10,10,10,10,10,10,10,10","20,20,20,20,20,20,20,20","20,20,20,20,20,20,20,20","20,20,20,20,20,20,20,20","0,0,0,0,1,1,1,1","4995,1852,2143,3350,3475,1653,870,782","30.633858582773563,-36.82759151701721,-7.589736444838864,2.4805815268427733,48.04345495749381,-7.596330409926253,17.21610321500405,17.790874249683206","-22.252534492771584,11.98000646078911,11.583077355957547,-13.053498741317217,1.1274316773611375,16.552425299220392,46.40159747046223,-9.759412199550603","0","0"
"114","86","text","0","24","430827","0-0","","","","","","","","","","","","","","","","","","","","","","","","","","","","","","","","","","","","",""
"","","plant-game","0","25","457263","0-0","","200","180","2","CORN CROP","Right","200","160","4","THISTLE WEED","practice","12","1,2,3,4","160,187.68223067342595,192.82406531155627,166.92622227694295","4,3,2,1","THISTLE WEED,THISTLE WEED,THISTLE WEED,THISTLE WEED","180,194.34028962740985,180,190.36049017766305","2,1,2,1","CORN CROP,CORN CROP,WHEAT CROP,WHEAT CROP","0,0,0,0","20,20,20,20","10,10,10,10","20,20,20,20","20,20,20,20","20,20,20,20","0,0,0,0","20,20,20,20","10,10,10,10","20,20,20,20","20,20,20,20","20,20,20,20","1,1,0,0","5036,614,3955,3114","27.68223067342594,5.1418346381303195,-25.89784303461333,6.638989432199817","14.34028962740984,-11.494851872963963,10.36049017766306,15.914629698762115","0","0"
"471","86","text","0","26","457863","0-0","","","","","","","","","","","","","","","","","","","","","","","","","","","","","","","","","","","","",""
"19746","86","text","0","27","478825","0-0","","","","","","","","","","","","","","","","","","","","","","","","","","","","","","","","","","","","",""
"","","plant-game","0","28","496273","0-0","","200","190","4","WHEAT CROP","Right","200","190","4","NETTLE WEED","experimental","1","1,2,3,4","190,201.09532144904065,203.1624968737101,200.43541097147772","4,3,2,1","NETTLE WEED,NETTLE WEED,NETTLE WEED,NETTLE WEED","190,185.61818899768042,194.72210690625357,217.56724882978804","4,3,2,1","WHEAT CROP,WHEAT CROP,WHEAT CROP,WHEAT CROP","0,0,0,0","20,20,20,20","10,10,10,10","20,20,20,20","20,20,20,20","20,20,20,20","0,0,0,0","20,20,20,20","10,10,10,10","20,20,20,20","20,20,20,20","20,20,20,20","0,0,0,0","5896,1641,2241,1523","11.095321449040664,2.067175424669446,-2.727085902232374,-27.81687505778947","-4.3818110023195835,9.103917908573141,22.84514192353447,6.5566584096281755","0","0"
"1015","86","text","0","29","497428","0-0","","","","","","","","","","","","","","","","","","","","","","","","","","","","","","","","","","","","",""
"","","plant-game","0","30","521705","0-0","","200","190","8","CORN CROP","Right","200","180","4","THISTLE WEED","experimental","2","1,2,3,4,5,6,7,8","180,180.37684806102308,171.41006331441667,185.35179267088344,160,199.0841756604715,183.30777311759056,165.5465633978783","4,3,2,1,4,3,2,1","THISTLE WEED,THISTLE WEED,THISTLE WEED,THISTLE WEED,NETTLE WEED,NETTLE WEED,NETTLE WEED,NETTLE WEED","190,198.7956883045491,161.85495051581586,153.16815712299706,142.68072723665327,159.37997124710196,174.46208947546404,172.4311025804488","8,7,6,5,4,3,2,1","CORN CROP,CORN CROP,CORN CROP,CORN CROP,CORN CROP,CORN CROP,CORN CROP,CORN CROP","0,0,0,0,0,0,0,0","20,20,20,20,20,20,20,20","10,10,10,10,10,10,10,10","20,20,20,20,20,20,20,20","20,20,20,20,20,20,20,20","20,20,20,20,20,20,20,20","0,0,0,0,0,0,0,0","20,20,20,20,20,20,20,20","10,10,10,10,10,10,10,10","20,20,20,20,20,20,20,20","20,20,20,20,20,20,20,20","20,20,20,20,20,20,20,20","0,0,0,0,0,0,0,1","4348,1233,1643,1092,4477,903,1347,782","0.376848061023092,-8.966784746606404,13.941729356466762,3.0137200557563624,39.08417566047148,-15.776402542880938,-17.76120971971228,17.182200388756787","8.795688304549099,-36.94073778873324,-8.686793392818814,-10.487429886343794,16.699244010448698,15.082118228362091,-2.030986895015241,-2.3902452761062776","0","0"
"462","86","text","0","31","522292","0-0","","","","","","","","","","","","","","","","","","","","","","","","","","","","","","","","","","","","",""
"","","plant-game","0","32","530561","0-0","","200","180","1","WHEAT CROP","Right","200","180","1","NETTLE WEED","experimental","3","1","180","1","NETTLE WEED","180","1","WHEAT CROP","0","20","10","20","20","20","0","20","10","20","20","20","1","3558","44.7761484382702","58.95963415736005","0","0"
"540","86","text","0","33","531280","0-0","","","","","","","","","","","","","","","","","","","","","","","","","","","","","","","","","","","","",""
"","","plant-game","0","34","560278","0-0","","200","120","1","CORN CROP","Left","200","190","8","NETTLE WEED","experimental","4","1,2,3,4,5,6,7,8","120,130,167.21211320956607,182.61354759940463,229.0159150140709,234.36313649340852,213.03185133574323,208.32502320025947","1,7,6,5,4,3,2,1","CORN CROP,WHEAT CROP,WHEAT CROP,WHEAT CROP,WHEAT CROP,WHEAT CROP,WHEAT CROP,WHEAT CROP","190,229.06642865421662,234.44516400612883,218.47671428952836,210.2319562464515,217.99965903256,210.37190450367936,176.59559599118657","8,7,6,5,4,3,2,1","NETTLE WEED,NETTLE WEED,NETTLE WEED,NETTLE WEED,NETTLE WEED,NETTLE WEED,NETTLE WEED,NETTLE WEED","20,20,20,20,20,20,20,20","20,20,20,20,20,20,20,20","10,10,10,10,10,10,10,10","20,20,20,20,20,20,20,20","0,0,0,0,0,0,0,0","20,20,20,20,20,20,20,20","20,20,20,20,20,20,20,20","20,20,20,20,20,20,20,20","10,10,10,10,10,10,10,10","20,20,20,20,20,20,20,20","0,0,0,0,0,0,0,0","20,20,20,20,20,20,20,20","0,1,1,1,1,1,1,1","10778,3322,1436,446,770,651,1264,1298","65.70730139030078,37.21211320956608,15.401434389838558,46.40236741466627,5.347221479337595,-21.331285157665278,-4.706828135483759,-15.717783696138294","39.06642865421664,5.378735351912212,-15.968449716600478,-8.244758043076876,7.767702786108519,-7.627754528880652,-33.77630851249279,-22.314449759593728","0","0"
"499","86","text","0","35","560947","0-0","","","","","","","","","","","","","","","","","","","","","","","","","","","","","","","","","","","","",""
"","","plant-game","0","36","582708","0-0","","200","190","4","CORN CROP","Right","200","180","4","THISTLE WEED","experimental","5","1,2,3,4","180,173.78463995871468,195.20757588778721,210.5803262378694","4,3,2,1","THISTLE WEED,THISTLE WEED,THISTLE WEED,THISTLE WEED","190,211.6555221060709,190.45503604789008,191.7475490831537","4,3,2,1","CORN CROP,CORN CROP,CORN CROP,CORN CROP","0,0,0,0","20,20,20,20","10,10,10,10","20,20,20,20","20,20,20,20","20,20,20,20","0,0,0,0","20,20,20,20","10,10,10,10","20,20,20,20","20,20,20,20","20,20,20,20","0,0,0,0","13022,1532,1178,728","-6.2153600412853285,21.422935929072544,15.372750350082185,-1.6246193175216204","21.655522106070887,-21.200486058180807,1.2925130352636147,12.743451201570128","0","0"
"115","86","text","0","37","582950","0-0","","","","","","","","","","","","","","","","","","","","","","","","","","","","","","","","","","","","",""
"","","plant-game","0","38","606983","0-0","","200","190","8","CORN CROP","Right","200","120","1","THISTLE WEED","experimental","6","1,2,3,4,5,6,7,8","120,130,158.31652849590088,145.1265677732999,144.13808738321228,153.7479597828576,155.17674905266063,149.10362786052198","1,7,6,5,4,3,2,1","THISTLE WEED,NETTLE WEED,NETTLE WEED,NETTLE WEED,NETTLE WEED,NETTLE WEED,NETTLE WEED,NETTLE WEED","190,178.9125741101173,217.3094071601463,206.92593314740805,205.03576064018665,273.66832618075864,237.20939275760114,235.37418913309466","8,7,6,5,4,3,2,1","CORN CROP,CORN CROP,CORN CROP,CORN CROP,CORN CROP,CORN CROP,CORN CROP,CORN CROP","0,0,0,0,0,0,0,0","20,20,20,20,20,20,20,20","10,10,10,10,10,10,10,10","20,20,20,20,20,20,20,20","20,20,20,20,20,20,20,20","20,20,20,20,20,20,20,20","0,0,0,0,0,0,0,0","20,20,20,20,20,20,20,20","10,10,10,10,10,10,10,10","20,20,20,20,20,20,20,20","20,20,20,20,20,20,20,20","20,20,20,20,20,20,20,20","0,1,0,0,1,0,0,0","7408,2419,1912,518,529,846,510,792","39.06825708116797,28.31652849590089,-13.189960722600976,-0.9884803900876171,9.609872399645312,1.428789269803021,-6.073121192138652,-8.97871202448832","-11.0874258898827,38.39683305002898,-10.383474012738255,-1.8901725072213829,68.63256554057196,-36.45893342315751,-1.8352036245064653,-3.9376040235024083","0","0"
"517","86","text","0","39","607660","0-0","","","","","","","","","","","","","","","","","","","","","","","","","","","","","","","","","","","","",""
"","","plant-game","0","40","630749","0-0","","200","190","8","WHEAT CROP","Left","200","120","4","THISTLE WEED","experimental","7","1,2,3,4,5,6,7,8","190,192.95932425352788,192.76232439036139,172.48127108016132,177.30540806278145,169.13587702620666,119.4696415347973,151.73835844215756","8,7,6,5,4,3,2,1","WHEAT CROP,WHEAT CROP,WHEAT CROP,WHEAT CROP,WHEAT CROP,WHEAT CROP,WHEAT CROP,WHEAT CROP","120,145.31210299955333,130.65741203851616,118.49059860898251,160,170.24904198323065,164.2017354289839,207.60780811470926","4,3,2,1,4,3,2,1","THISTLE WEED,THISTLE WEED,THISTLE WEED,THISTLE WEED,NETTLE WEED,NETTLE WEED,NETTLE WEED,NETTLE WEED","20,20,20,20,20,20,20,20","20,20,20,20,20,20,20,20","10,10,10,10,10,10,10,10","20,20,20,20,20,20,20,20","0,0,0,0,0,0,0,0","20,20,20,20,20,20,20,20","20,20,20,20,20,20,20,20","20,20,20,20,20,20,20,20","10,10,10,10,10,10,10,10","20,20,20,20,20,20,20,20","0,0,0,0,0,0,0,0","20,20,20,20,20,20,20,20","0,1,1,0,0,1,0,0","3343,1493,793,943,1489,718,1003,3671","2.959324253527896,-0.1969998631665054,-20.281053310200075,4.824136982620145,-8.169531036574785,-49.66623549140935,32.26871690736026,28.141169975294154","25.312102999553332,-14.654690961037172,-12.166813429533654,24.323884909793588,10.24904198323065,-6.047306554246753,43.40607268572536,5.889643873548852","0","0"
"462","86","text","0","41","631401","0-0","","","","","","","","","","","","","","","","","","","","","","","","","","","","","","","","","","","","",""
"","","plant-game","0","42","645921","0-0","","200","120","4","WHEAT CROP","Left","200","120","8","NETTLE WEED","experimental","8","1,2,3,4,5,6,7,8","120,142.3458351379979,189.29652614247934,208.36028427330032,160,198.02415296550674,197.69354954317134,219.16061354630523","4,3,2,1,4,3,2,1","WHEAT CROP,WHEAT CROP,WHEAT CROP,WHEAT CROP,CORN CROP,CORN CROP,CORN CROP,CORN CROP","120,135.49591081761423,140.80986412460967,110.37083148655378,105.38434124061838,133.10247515970946,148.39505497519184,164.52972503359763","8,7,6,5,4,3,2,1","NETTLE WEED,NETTLE WEED,NETTLE WEED,NETTLE WEED,NETTLE WEED,NETTLE WEED,NETTLE WEED,NETTLE WEED","20,20,20,20,20,20,20,20","20,20,20,20,20,20,20,20","10,10,10,10,10,10,10,10","20,20,20,20,20,20,20,20","0,0,0,0,0,0,0,0","20,20,20,20,20,20,20,20","20,20,20,20,20,20,20,20","20,20,20,20,20,20,20,20","10,10,10,10,10,10,10,10","20,20,20,20,20,20,20,20","0,0,0,0,0,0,0,0","20,20,20,20,20,20,20,20","0,0,0,0,0,0,0,0","1539,570,544,876,1317,533,1243,818","22.34583513799791,46.95069100448143,19.063758130820982,18.349295415819988,38.02415296550676,-0.3306034223354075,21.4670640031339,35.941411097138534","15.49591081761424,5.313953306995456,-30.43903263805589,-4.9864902459354035,27.71813391909108,15.292579815482373,16.134670058405792,-7.399479901648771","0","0"
"460","86","text","0","43","646538","0-0","","","","","","","","","","","","","","","","","","","","","","","","","","","","","","","","","","","","",""
"","","plant-game","0","44","667939","0-0","","200","160","1","WHEAT CROP","Left","200","190","8","THISTLE WEED","experimental","9","1,2,3,4,5,6,7,8","160,130,142.1531796374509,177.99104412569875,192.6327433200842,191.748146959658,192.34989490094844,166.6603439308678","1,7,6,5,4,3,2,1","WHEAT CROP,CORN CROP,CORN CROP,CORN CROP,CORN CROP,CORN CROP,CORN CROP,CORN CROP","190,202.85967005790812,218.72923668956741,239.4865850173807,249.94733058545694,254.27059199322917,254.4684753261854,301.71364290684414","8,7,6,5,4,3,2,1","THISTLE WEED,THISTLE WEED,THISTLE WEED,THISTLE WEED,THISTLE WEED,THISTLE WEED,THISTLE WEED,THISTLE WEED","20,20,20,20,20,20,20,20","20,20,20,20,20,20,20,20","10,10,10,10,10,10,10,10","20,20,20,20,20,20,20,20","0,0,0,0,0,0,0,0","20,20,20,20,20,20,20,20","20,20,20,20,20,20,20,20","20,20,20,20,20,20,20,20","10,10,10,10,10,10,10,10","20,20,20,20,20,20,20,20","0,0,0,0,0,0,0,0","20,20,20,20,20,20,20,20","0,1,0,1,1,0,0,0","4153,2033,610,629,835,319,826,628","17.379714723452793,12.153179637450897,35.83786448824784,14.641699194385447,-0.8845963604261997,0.601747941290455,-25.68955097008064,-3.711232462171097","12.859670057908126,15.869566631659286,20.75734832781327,10.460745568076257,4.32326140777225,0.19788333295623062,47.245167580658745,-17.342669832169783","0","0"
"244","86","text","0","45","668273","0-0","","","","","","","","","","","","","","","","","","","","","","","","","","","","","","","","","","","","",""
"","","plant-game","0","46","684323","0-0","","200","190","2","CORN CROP","Right","200","190","8","NETTLE WEED","experimental","10","1,2,3,4,5,6,7,8","190,224.31182209232782,215.68354482691444,234.91389028136686,247.83464831461458,258.8744115356271,288.98140812255286,340.0320854874239","8,7,6,5,4,3,2,1","NETTLE WEED,NETTLE WEED,NETTLE WEED,NETTLE WEED,NETTLE WEED,NETTLE WEED,NETTLE WEED,NETTLE WEED","190,207.45785332402568,140,120.18060941369359,130.0485984809347,155.51028278685322,229.29827076789675,273.2309283402001","2,1,6,5,4,3,2,1","CORN CROP,CORN CROP,WHEAT CROP,WHEAT CROP,WHEAT CROP,WHEAT CROP,WHEAT CROP,WHEAT CROP","0,0,0,0,0,0,0,0","20,20,20,20,20,20,20,20","10,10,10,10,10,10,10,10","20,20,20,20,20,20,20,20","20,20,20,20,20,20,20,20","20,20,20,20,20,20,20,20","0,0,0,0,0,0,0,0","20,20,20,20,20,20,20,20","10,10,10,10,10,10,10,10","20,20,20,20,20,20,20,20","20,20,20,20,20,20,20,20","20,20,20,20,20,20,20,20","1,0,0,1,1,1,1,1","2670,838,1712,577,328,180,136,465","34.31182209232782,-8.628277265413374,19.230345454452426,12.920758033247722,11.039763221012468,30.10699658692578,51.050677364871014,34.9620854039927","17.45785332402568,11.514786672973681,-19.819390586306408,9.86798906724109,25.461684305918553,73.78798798104353,43.93265757230331,14.192919122979841","0","0"
"530","86","text","0","47","685053","0-0","","","","","","","","","","","","","","","","","","","","","","","","","","","","","","","","","","","","",""
"","","plant-game","0","48","700302","0-0","","200","120","2","CORN CROP","Right","200","120","4","NETTLE WEED","experimental","11","1,2,3,4","120,162.08877860114728,171.91426543698577,218.81294681963874","4,3,2,1","NETTLE WEED,NETTLE WEED,NETTLE WEED,NETTLE WEED","120,122.78086816103945,180,186.4665013782715","2,1,2,1","CORN CROP,CORN CROP,WHEAT CROP,WHEAT CROP","0,0,0,0","20,20,20,20","10,10,10,10","20,20,20,20","20,20,20,20","20,20,20,20","0,0,0,0","20,20,20,20","10,10,10,10","20,20,20,20","20,20,20,20","20,20,20,20","1,1,1,1","2938,756,1782,985","42.08877860114729,9.825486835838495,46.89868138265295,1.8929606596914894","2.780868161039443,49.04992019166258,6.466501378271484,23.174060483844826","0","0"
"257","86","text","0","49","700630","0-0","","","","","","","","","","","","","","","","","","","","","","","","","","","","","","","","","","","","",""
"","","plant-game","0","50","715699","0-0","","200","160","1","WHEAT CROP","Left","200","190","4","THISTLE WEED","experimental","12","1,2,3,4","160,170,176.91229828188366,198.40289566793143","1,3,2,1","WHEAT CROP,CORN CROP,CORN CROP,CORN CROP","190,191.76811372957826,152.68255936992773,167.31696704560423","4,3,2,1","THISTLE WEED,THISTLE WEED,THISTLE WEED,THISTLE WEED","20,20,20,20","20,20,20,20","10,10,10,10","20,20,20,20","0,0,0,0","20,20,20,20","20,20,20,20","20,20,20,20","10,10,10,10","20,20,20,20","0,0,0,0","20,20,20,20","1,0,0,0","2528,3717,611,524","-13.786968998408408,6.912298281883658,21.490597386047774,26.50070310071274","1.7681137295782676,-39.08555435965052,14.634407675676497,17.557575597684536","0","0"
"455","86","text","0","51","716358","0-0","","","","","","","","","","","","","","","","","","","","","","","","","","","","","","","","","","","","",""
"","","plant-game","0","52","735705","0-0","","200","180","8","CORN CROP","Left","200","190","8","THISTLE WEED","experimental","13","1,2,3,4,5,6,7,8","180,181.64601065155148,121.53708829414661,139.765009080771,126.39690298287802,149.99717023846307,132.35388649616698,117.67078085039469","8,7,6,5,4,3,2,1","CORN CROP,CORN CROP,CORN CROP,CORN CROP,CORN CROP,CORN CROP,CORN CROP,CORN CROP","190,168.22366730546332,170.05308078919867,171.11449599034256,179.850039289445,197.02195712274647,182.37874216438132,166.51850242820328","8,7,6,5,4,3,2,1","THISTLE WEED,THISTLE WEED,THISTLE WEED,THISTLE WEED,THISTLE WEED,THISTLE WEED,THISTLE WEED,THISTLE WEED","20,20,20,20,20,20,20,20","20,20,20,20,20,20,20,20","10,10,10,10,10,10,10,10","20,20,20,20,20,20,20,20","0,0,0,0,0,0,0,0","20,20,20,20,20,20,20,20","20,20,20,20,20,20,20,20","20,20,20,20,20,20,20,20","10,10,10,10,10,10,10,10","20,20,20,20,20,20,20,20","0,0,0,0,0,0,0,0","20,20,20,20,20,20,20,20","1,1,0,1,0,1,1,0","7586,736,1234,675,712,744,305,581","1.6460106515514852,-60.108922357404865,18.227920786624384,-13.368106097892976,23.600267255585038,-17.64328374229609,-14.683105645772281,-27.188610161002167","-21.77633269453668,1.8294134837353526,1.0614152011438769,8.735543299102432,17.17191783330148,-14.643214958365142,-15.860239736178032,13.968242008151824","0","0"
"767","86","text","0","53","736784","0-0","","","","","","","","","","","","","","","","","","","","","","","","","","","","","","","","","","","","",""
"","","plant-game","0","54","748328","0-0","","200","190","1","WHEAT CROP","Left","200","190","4","NETTLE WEED","experimental","14","1,2,3,4","190,170,182.51865630321586,145.71846196789903","1,3,2,1","WHEAT CROP,CORN CROP,CORN CROP,CORN CROP","190,179.13855470846156,205.46130731613252,238.171434099036","4,3,2,1","NETTLE WEED,NETTLE WEED,NETTLE WEED,NETTLE WEED","20,20,20,20","20,20,20,20","10,10,10,10","20,20,20,20","0,0,0,0","20,20,20,20","20,20,20,20","20,20,20,20","10,10,10,10","20,20,20,20","0,0,0,0","20,20,20,20","1,0,1,1","1053,1380,637,908","-12.873795318058212,12.518656303215854,-36.800194335316846,-14.328981326347765","-10.86144529153845,26.322752607670964,32.710126782903465,-7.472164890910781","0","0"
"630","86","text","0","55","749198","0-0","","","","","","","","","","","","","","","","","","","","","","","","","","","","","","","","","","","","",""
"","","plant-game","0","56","763338","0-0","","200","120","2","CORN CROP","Left","200","160","8","THISTLE WEED","experimental","15","1,2,3,4,5,6,7,8","120,115.00728725850769,140,160.16141590425568,199.95203852066527,225.98777821380574,266.9888173619467,289.00219834021266","2,1,6,5,4,3,2,1","CORN CROP,CORN CROP,WHEAT CROP,WHEAT CROP,WHEAT CROP,WHEAT CROP,WHEAT CROP,WHEAT CROP","160,145.39842622208727,151.28358425983484,192.2115439782094,219.23480524838382,235.69401968309273,269.79759856106705,304.95161321338685","8,7,6,5,4,3,2,1","THISTLE WEED,THISTLE WEED,THISTLE WEED,THISTLE WEED,THISTLE WEED,THISTLE WEED,THISTLE WEED,THISTLE WEED","20,20,20,20,20,20,20,20","20,20,20,20,20,20,20,20","10,10,10,10,10,10,10,10","20,20,20,20,20,20,20,20","0,0,0,0,0,0,0,0","20,20,20,20,20,20,20,20","20,20,20,20,20,20,20,20","20,20,20,20,20,20,20,20","10,10,10,10,10,10,10,10","20,20,20,20,20,20,20,20","0,0,0,0,0,0,0,0","20,20,20,20,20,20,20,20","1,1,0,0,0,0,0,1","1168,672,1289,376,441,492,585,1316","-4.992712741492314,-3.9997235128570847,20.16141590425568,39.7906226164096,26.035739693140478,41.00103914814097,22.01338097826594,-14.176111315610173","-14.601573777912728,5.88515803774758,40.92795971837455,27.023261270174437,16.459214434708908,34.103578877974286,35.154014652319816,5.830128320400822","0","0"
"1759","86","text","0","57","765257","0-0","","","","","","","","","","","","","","","","","","","","","","","","","","","","","","","","","","","","",""
"","","plant-game","0","58","775864","0-0","","200","120","8","CORN CROP","Left","200","160","8","THISTLE WEED","experimental","16","1,2,3,4,5,6,7,8","120,108.81782647205421,114.28081705978695,115.8548396818887,136.9926156893182,154.8874674193152,157.2378540566177,188.96668220908316","8,7,6,5,4,3,2,1","CORN CROP,CORN CROP,CORN CROP,CORN CROP,CORN CROP,CORN CROP,CORN CROP,CORN CROP","160,157.1061450192896,203.31095798199706,229.92070512430556,297.818374663589,316.20801014895767,357.5001056207854,371.05734877692106","8,7,6,5,4,3,2,1","THISTLE WEED,THISTLE WEED,THISTLE WEED,THISTLE WEED,THISTLE WEED,THISTLE WEED,THISTLE WEED,THISTLE WEED","20,20,20,20,20,20,20,20","20,20,20,20,20,20,20,20","10,10,10,10,10,10,10,10","20,20,20,20,20,20,20,20","0,0,0,0,0,0,0,0","20,20,20,20,20,20,20,20","20,20,20,20,20,20,20,20","20,20,20,20,20,20,20,20","10,10,10,10,10,10,10,10","20,20,20,20,20,20,20,20","0,0,0,0,0,0,0,0","20,20,20,20,20,20,20,20","1,0,1,0,0,0,0,0","1181,751,1036,960,606,604,367,176","-11.1821735279458,5.462990587732751,1.5740226221017486,21.137776007429487,17.894851729996994,2.3503866373025026,31.72882815246546,-0.08551469825696856","-2.893854980710378,46.20481296270746,26.6097471423085,67.89766953928344,18.389635485368665,41.29209547182772,13.55724315613564,2.6472356991112598","0","0"
"421","86","text","0","59","776385","0-0","","","","","","","","","","","","","","","","","","","","","","","","","","","","","","","","","","","","",""
"","","plant-game","0","60","794748","0-0","","200","180","2","CORN CROP","Left","200","120","8","NETTLE WEED","experimental","17","1,2,3,4,5,6,7,8","180,210.14616079288342,140,115.04758851807257,169.3488600627937,160.03754083098607,141.98129598798303,166.00360862224218","2,1,6,5,4,3,2,1","CORN CROP,CORN CROP,WHEAT CROP,WHEAT CROP,WHEAT CROP,WHEAT CROP,WHEAT CROP,WHEAT CROP","120,134.4211184539747,164.49851401106906,179.15352845826052,201.53410697338578,197.50214456299946,222.5297105647714,207.43716078537224","8,7,6,5,4,3,2,1","NETTLE WEED,NETTLE WEED,NETTLE WEED,NETTLE WEED,NETTLE WEED,NETTLE WEED,NETTLE WEED,NETTLE WEED","20,20,20,20,20,20,20,20","20,20,20,20,20,20,20,20","10,10,10,10,10,10,10,10","20,20,20,20,20,20,20,20","0,0,0,0,0,0,0,0","20,20,20,20,20,20,20,20","20,20,20,20,20,20,20,20","20,20,20,20,20,20,20,20","10,10,10,10,10,10,10,10","20,20,20,20,20,20,20,20","0,0,0,0,0,0,0,0","20,20,20,20,20,20,20,20","0,0,1,1,1,1,1,1","2032,804,1747,1613,853,490,544,592","30.146160792883418,33.19001261046223,-24.95241148192743,54.30127154472113,-9.31131923180762,-18.056244843003032,24.022312634259144,-7.821995886240786","14.421118453974703,30.077395557094363,14.655014447191459,22.380578515125244,-4.031962410386315,25.027566001771916,-15.09254977939914,-8.696644030396401","0","0"
"90","86","text","0","61","795038","0-0","","","","","","","","","","","","","","","","","","","","","","","","","","","","","","","","","","","","",""
"","","plant-game","0","62","809443","0-0","","200","190","4","CORN CROP","Right","200","120","8","THISTLE WEED","experimental","18","1,2,3,4,5,6,7,8","120,122.41968529405194,141.30536478922048,178.10631495847872,154.55619256765064,156.75833355531213,158.93509597288968,166.87598641934545","8,7,6,5,4,3,2,1","THISTLE WEED,THISTLE WEED,THISTLE WEED,THISTLE WEED,THISTLE WEED,THISTLE WEED,THISTLE WEED,THISTLE WEED","190,245.8925670281796,282.02458084219217,284.8769256095795,160,199.62116066984393,242.2553620694515,264.83314650098856","4,3,2,1,4,3,2,1","CORN CROP,CORN CROP,CORN CROP,CORN CROP,WHEAT CROP,WHEAT CROP,WHEAT CROP,WHEAT CROP","0,0,0,0,0,0,0,0","20,20,20,20,20,20,20,20","10,10,10,10,10,10,10,10","20,20,20,20,20,20,20,20","20,20,20,20,20,20,20,20","20,20,20,20,20,20,20,20","0,0,0,0,0,0,0,0","20,20,20,20,20,20,20,20","10,10,10,10,10,10,10,10","20,20,20,20,20,20,20,20","20,20,20,20,20,20,20,20","20,20,20,20,20,20,20,20","1,1,1,1,1,1,1,1","1638,698,548,1290,1135,477,489,491","2.4196852940519484,18.885679495168535,36.80095016925823,-23.550122390828072,2.2021409876614904,2.176762417577539,7.940890446455777,-1.014935945979687","55.89256702817959,36.132013814012566,2.8523447673873292,15.03480347953462,39.621160669843924,42.63420139960758,22.577784431537044,62.68367100735681","0","0"
"635","86","text","0","63","810278","0-0","","","","","","","","","","","","","","","","","","","","","","","","","","","","","","","","","","","","",""
"","","plant-game","0","64","817651","0-0","","200","160","1","CORN CROP","Right","200","190","1","THISTLE WEED","experimental","19","1","190","1","THISTLE WEED","160","1","CORN CROP","0","20","10","20","20","20","0","20","10","20","20","20","0","3160","-8.695601907559228","0.8054961379373142","0","0"
"486","86","text","0","65","818317","0-0","","","","","","","","","","","","","","","","","","","","","","","","","","","","","","","","","","","","",""
"","","plant-game","0","66","827874","0-0","","200","120","4","WHEAT CROP","Left","200","190","4","NETTLE WEED","experimental","20","1,2,3,4","120,102.57397654813303,109.5162909368894,136.71840384364225","4,3,2,1","WHEAT CROP,WHEAT CROP,WHEAT CROP,WHEAT CROP","190,190.70490984785553,224.53938365106688,232.89528434529217","4,3,2,1","NETTLE WEED,NETTLE WEED,NETTLE WEED,NETTLE WEED","20,20,20,20","20,20,20,20","10,10,10,10","20,20,20,20","0,0,0,0","20,20,20,20","20,20,20,20","20,20,20,20","10,10,10,10","20,20,20,20","0,0,0,0","20,20,20,20","1,1,0,0","3756,461,972,353","-17.426023451866975,6.942314388756369,27.20211290675286,60.0777167739804","0.7049098478555276,33.83447380321137,8.355900694225278,-1.4270493648178153","0","0"
"1721","86","text","0","67","829695","0-0","","","","","","","","","","","","","","","","","","","","","","","","","","","","","","","","","","","","",""
"","","plant-game","0","68","847768","0-0","","200","120","8","CORN CROP","Left","200","180","4","NETTLE WEED","experimental","21","1,2,3,4,5,6,7,8","120,127.09723382642773,156.45288577148608,166.77718085262845,143.21547898891268,157.82490149080698,202.42146879193953,214.89144148673915","8,7,6,5,4,3,2,1","CORN CROP,CORN CROP,CORN CROP,CORN CROP,CORN CROP,CORN CROP,CORN CROP,CORN CROP","180,172.24709329925912,240.90274601448672,273.2130610777059,160,166.07138548516934,174.04985154504416,197.549785374609","4,3,2,1,4,3,2,1","NETTLE WEED,NETTLE WEED,NETTLE WEED,NETTLE WEED,THISTLE WEED,THISTLE WEED,THISTLE WEED,THISTLE WEED","20,20,20,20,20,20,20,20","20,20,20,20,20,20,20,20","10,10,10,10,10,10,10,10","20,20,20,20,20,20,20,20","0,0,0,0,0,0,0,0","20,20,20,20,20,20,20,20","20,20,20,20,20,20,20,20","20,20,20,20,20,20,20,20","10,10,10,10,10,10,10,10","20,20,20,20,20,20,20,20","0,0,0,0,0,0,0,0","20,20,20,20,20,20,20,20","1,1,1,1,1,1,1,1","2822,872,2198,635,862,468,1176,1691","7.097233826427721,29.35565194505836,10.324295081142377,-23.561701863715776,14.609422501894297,44.59656730113255,12.46997269479962,-18.367211619941394","-7.75290670074088,68.6556527152276,32.310315063219164,-25.075404915835833,6.0713854851693325,7.9784660598748225,23.49993382956484,18.63233747334714","0","0"
"104","86","text","0","69","848082","0-0","","","","","","","","","","","","","","","","","","","","","","","","","","","","","","","","","","","","",""
"","","plant-game","0","70","860540","0-0","","200","120","2","CORN CROP","Left","200","190","8","THISTLE WEED","experimental","22","1,2,3,4,5,6,7,8","120,118.07321594044038,140,150.95980796556574,216.99842636772382,272.19085192121634,294.51754073258144,281.59844085037713","2,1,6,5,4,3,2,1","CORN CROP,CORN CROP,WHEAT CROP,WHEAT CROP,WHEAT CROP,WHEAT CROP,WHEAT CROP,WHEAT CROP","190,193.4787809621018,232.00776945823995,209.7844258807892,236.4034566904209,246.281650728228,262.48903348682325,280.2534485692732","8,7,6,5,4,3,2,1","THISTLE WEED,THISTLE WEED,THISTLE WEED,THISTLE WEED,THISTLE WEED,THISTLE WEED,THISTLE WEED,THISTLE WEED","20,20,20,20,20,20,20,20","20,20,20,20,20,20,20,20","10,10,10,10,10,10,10,10","20,20,20,20,20,20,20,20","0,0,0,0,0,0,0,0","20,20,20,20,20,20,20,20","20,20,20,20,20,20,20,20","20,20,20,20,20,20,20,20","10,10,10,10,10,10,10,10","20,20,20,20,20,20,20,20","0,0,0,0,0,0,0,0","20,20,20,20,20,20,20,20","1,0,0,0,0,0,1,1","1571,1844,1798,145,120,354,466,347","-1.9267840595596297,23.98013279637066,10.95980796556575,66.03861840215806,55.1924255534925,22.32668881136511,-12.919099882204282,0.4303017945407934","3.4787809621018133,38.52898849613815,-22.22334357745075,26.619030809631717,9.87819403780708,16.207382758595244,17.764415082449933,-13.925201639699097","0","0"
"2428","86","text","0","71","863178","0-0","","","","","","","","","","","","","","","","","","","","","","","","","","","","","","","","","","","","",""
"","","plant-game","0","72","867696","0-0","","200","160","1","CORN CROP","Right","200","180","1","THISTLE WEED","experimental","23","1","180","1","THISTLE WEED","160","1","CORN CROP","0","20","10","20","20","20","0","20","10","20","20","20","1","941","57.995718145329015","60.81105263745614","0","0"
"162","86","text","0","73","868008","0-0","","","","","","","","","","","","","","","","","","","","","","","","","","","","","","","","","","","","",""
"","","plant-game","0","74","879128","0-0","","200","120","8","CORN CROP","Left","200","160","4","THISTLE WEED","experimental","24","1,2,3,4,5,6,7,8","120,149.80132547906598,183.34232342154172,206.9846688627117,267.7717777092813,268.5622346085917,263.2071503383427,283.8590355148006","8,7,6,5,4,3,2,1","CORN CROP,CORN CROP,CORN CROP,CORN CROP,CORN CROP,CORN CROP,CORN CROP,CORN CROP","160,136.8764933436389,133.32458750681303,147.52684288572613,160,163.26562739770225,118.69135503231149,118.28435084307245","4,3,2,1,4,3,2,1","THISTLE WEED,THISTLE WEED,THISTLE WEED,THISTLE WEED,NETTLE WEED,NETTLE WEED,NETTLE WEED,NETTLE WEED","20,20,20,20,20,20,20,20","20,20,20,20,20,20,20,20","10,10,10,10,10,10,10,10","20,20,20,20,20,20,20,20","0,0,0,0,0,0,0,0","20,20,20,20,20,20,20,20","20,20,20,20,20,20,20,20","20,20,20,20,20,20,20,20","10,10,10,10,10,10,10,10","20,20,20,20,20,20,20,20","0,0,0,0,0,0,0,0","20,20,20,20,20,20,20,20","0,0,0,0,1,1,1,1","1208,385,282,425,1720,481,412,320","29.801325479065987,33.54099794247574,23.642345441169955,60.78710884656962,0.7904568993103991,-5.355084270249031,20.651885176457945,13.487212618125792","-23.1235066563611,-3.551905836825874,14.202255378913105,20.31594962380901,3.2656273977022385,-44.57427236539075,-0.4070041892390509,13.864098597927763","0","0"
"88","86","text","0","75","879396","0-0","","","","","","","","","","","","","","","","","","","","","","","","","","","","","","","","","","","","",""
"","","plant-game","0","76","891133","0-0","","200","120","1","WHEAT CROP","Left","200","160","4","THISTLE WEED","experimental","25","1,2,3,4","120,170,160.73754012357057,174.17258285124845","1,3,2,1","WHEAT CROP,CORN CROP,CORN CROP,CORN CROP","160,193.2671277232673,221.49054327568888,243.45365509002085","4,3,2,1","THISTLE WEED,THISTLE WEED,THISTLE WEED,THISTLE WEED","20,20,20,20","20,20,20,20","10,10,10,10","20,20,20,20","0,0,0,0","20,20,20,20","20,20,20,20","20,20,20,20","10,10,10,10","20,20,20,20","0,0,0,0","20,20,20,20","0,1,0,0","1259,2657,1736,423","5.644625312546708,-9.262459876429444,13.435042727677883,18.04379571403474","33.267127723267286,28.2234155524216,21.963111814331953,25.650029170429587","0","0"
"197","86","text","0","77","891510","0-0","","","","","","","","","","","","","","","","","","","","","","","","","","","","","","","","","","","","",""
"","","plant-game","0","78","901645","0-0","","200","120","2","WHEAT CROP","Left","200","180","8","NETTLE WEED","experimental","26","1,2,3,4,5,6,7,8","120,146.09509683666002,140,132.50731505568737,158.82463672923384,133.87886562511417,169.21416093686108,165.38822871857687","2,1,6,5,4,3,2,1","WHEAT CROP,WHEAT CROP,CORN CROP,CORN CROP,CORN CROP,CORN CROP,CORN CROP,CORN CROP","180,206.40612594860264,225.21990804643397,223.31818968441223,237.26196835472678,228.82341058076116,224.19393974362063,251.30379312969575","8,7,6,5,4,3,2,1","NETTLE WEED,NETTLE WEED,NETTLE WEED,NETTLE WEED,NETTLE WEED,NETTLE WEED,NETTLE WEED,NETTLE WEED","20,20,20,20,20,20,20,20","20,20,20,20,20,20,20,20","10,10,10,10,10,10,10,10","20,20,20,20,20,20,20,20","0,0,0,0,0,0,0,0","20,20,20,20,20,20,20,20","20,20,20,20,20,20,20,20","20,20,20,20,20,20,20,20","10,10,10,10,10,10,10,10","20,20,20,20,20,20,20,20","0,0,0,0,0,0,0,0","20,20,20,20,20,20,20,20","0,0,1,1,1,0,0,0","1416,439,1072,196,130,874,136,82","26.095096836660026,-8.1495470361601,-7.49268494431262,26.317321673546466,-24.945771104119665,35.335295311746904,-3.825932218284205,-2.791222826700718","26.406125948602625,18.813782097831325,-1.9017183620217362,13.943778670314558,-8.438557773965599,-4.62947083714052,27.10985338607511,-5.038606723222241","0","0"
"87","86","text","0","79","901883","0-0","","","","","","","","","","","","","","","","","","","","","","","","","","","","","","","","","","","","",""
"","","plant-game","0","80","909343","0-0","","200","160","2","WHEAT CROP","Left","200","190","4","NETTLE WEED","experimental","27","1,2,3,4","160,192.26067405874687,180,188.98083124986016","2,1,2,1","WHEAT CROP,WHEAT CROP,CORN CROP,CORN CROP","190,234.85271794324436,248.3467343202276,290.75499259496485","4,3,2,1","NETTLE WEED,NETTLE WEED,NETTLE WEED,NETTLE WEED","20,20,20,20","20,20,20,20","10,10,10,10","20,20,20,20","0,0,0,0","20,20,20,20","20,20,20,20","20,20,20,20","10,10,10,10","20,20,20,20","0,0,0,0","20,20,20,20","0,0,0,0","939,133,1916,107","32.260674058746886,-33.548413527694805,8.980831249860174,11.804966130390472","44.85271794324436,13.494016376983247,42.40825827473728,12.762898791134907","0","0"
"86","86","text","0","81","909589","0-0","","","","","","","","","","","","","","","","","","","","","","","","","","","","","","","","","","","","",""
"","","plant-game","0","82","919786","0-0","","200","160","8","CORN CROP","Left","200","180","8","THISTLE WEED","experimental","28","1,2,3,4,5,6,7,8","160,179.016513510893,202.80710041383972,197.82025801769962,220.05311237699834,225.6591176903767,219.48134966445056,195.1548041512088","8,7,6,5,4,3,2,1","CORN CROP,CORN CROP,CORN CROP,CORN CROP,CORN CROP,CORN CROP,CORN CROP,CORN CROP","180,194.28008085900422,219.59886053259893,261.1879819832186,265.09031133618726,310.77133152011066,343.43776853633904,346.7285593633733","8,7,6,5,4,3,2,1","THISTLE WEED,THISTLE WEED,THISTLE WEED,THISTLE WEED,THISTLE WEED,THISTLE WEED,THISTLE WEED,THISTLE WEED","20,20,20,20,20,20,20,20","20,20,20,20,20,20,20,20","10,10,10,10,10,10,10,10","20,20,20,20,20,20,20,20","0,0,0,0,0,0,0,0","20,20,20,20,20,20,20,20","20,20,20,20,20,20,20,20","20,20,20,20,20,20,20,20","10,10,10,10,10,10,10,10","20,20,20,20,20,20,20,20","0,0,0,0,0,0,0,0","20,20,20,20,20,20,20,20","0,0,0,0,0,0,1,1","2091,1377,387,483,272,111,652,115","19.016513510892977,23.79058690294673,-4.986842396140112,22.232854359298727,5.606005313378349,-6.177768025926124,-24.326545513241765,12.903047064709378","14.280080859004208,25.318779673594722,41.58912145061966,3.902329352968657,45.68102018392342,32.6664370162284,3.290790827034243,19.59473276119026","0","0"
"116","86","text","0","83","920082","0-0","","","","","","","","","","","","","","","","","","","","","","","","","","","","","","","","","","","","",""
"","","plant-game","0","84","928213","0-0","","200","120","1","WHEAT CROP","Right","200","160","2","THISTLE WEED","experimental","29","1,2","160,132.00400323555755","2,1","THISTLE WEED,THISTLE WEED","120,190","1,1","WHEAT CROP,CORN CROP","0,0","20,20","10,10","20,20","20,20","20,20","0,0","20,20","10,10","20,20","20,20","20,20","1,1","1495,1418","-27.995996764442445,-17.259207855912628","-14.157586165056102,21.318825183684947","0","0"
"92","86","text","0","85","928465","0-0","","","","","","","","","","","","","","","","","","","","","","","","","","","","","","","","","","","","",""
"","","plant-game","0","86","940192","0-0","","200","190","2","WHEAT CROP","Left","200","160","4","THISTLE WEED","experimental","30","1,2,3,4","190,240.91120820442308,180,172.9242736102547","2,1,2,1","WHEAT CROP,WHEAT CROP,CORN CROP,CORN CROP","160,178.88730477670046,203.57407671584082,230.0658761257626","4,3,2,1","THISTLE WEED,THISTLE WEED,THISTLE WEED,THISTLE WEED","20,20,20,20","20,20,20,20","10,10,10,10","20,20,20,20","0,0,0,0","20,20,20,20","20,20,20,20","20,20,20,20","10,10,10,10","20,20,20,20","0,0,0,0","20,20,20,20","0,0,1,0","1603,1273,1563,817","50.911208204423076,44.041907173028264,-7.075726389745313,2.178911642748652","18.887304776700454,24.686771939140346,26.491799409921786,55.988711488409486","0","0"
"123","86","text","0","87","940495","0-0","","","","","","","","","","","","","","","","","","","","","","","","","","","","","","","","","","","","",""
"","","plant-game","0","88","946139","0-0","","200","180","2","CORN CROP","Left","200","190","2","NETTLE WEED","experimental","31","1,2","180,191.95347828510072","2,1","CORN CROP,CORN CROP","190,193.27787578824248","2,1","NETTLE WEED,NETTLE WEED","20,20","20,20","10,10","20,20","0,0","20,20","20,20","20,20","10,10","20,20","0,0","20,20","1,1","2266,473","11.953478285100719,2.9294044323715616","3.2778757882424765,-8.122883432390369","0","0"
"51","86","text","0","89","946390","0-0","","","","","","","","","","","","","","","","","","","","","","","","","","","","","","","","","","","","",""
"","","plant-game","0","90","950824","0-0","","200","120","1","CORN CROP","Right","200","190","1","THISTLE WEED","experimental","32","1","190","1","THISTLE WEED","120","1","CORN CROP","0","20","10","20","20","20","0","20","10","20","20","20","1","1530","31.779879511598555","41.98604372043844","0","0"
"81","86","text","0","91","951065","0-0","","","","","","","","","","","","","","","","","","","","","","","","","","","","","","","","","","","","",""
"","","plant-game","0","92","960372","0-0","","200","180","8","WHEAT CROP","Left","200","160","1","NETTLE WEED","experimental","33","1,2,3,4,5,6,7,8","180,169.25338499727553,191.5634854076496,169.5734196153227,218.94679042976,227.6783754267127,262.35735601557417,288.41599426079085","8,7,6,5,4,3,2,1","WHEAT CROP,WHEAT CROP,WHEAT CROP,WHEAT CROP,WHEAT CROP,WHEAT CROP,WHEAT CROP,WHEAT CROP","160,130,135.40438896437936,155.84793066797016,184.14936577765738,197.01297578964068,228.49288510199298,221.88956433793032","1,7,6,5,4,3,2,1","NETTLE WEED,THISTLE WEED,THISTLE WEED,THISTLE WEED,THISTLE WEED,THISTLE WEED,THISTLE WEED,THISTLE WEED","20,20,20,20,20,20,20,20","20,20,20,20,20,20,20,20","10,10,10,10,10,10,10,10","20,20,20,20,20,20,20,20","0,0,0,0,0,0,0,0","20,20,20,20,20,20,20,20","20,20,20,20,20,20,20,20","20,20,20,20,20,20,20,20","10,10,10,10,10,10,10,10","20,20,20,20,20,20,20,20","0,0,0,0,0,0,0,0","20,20,20,20,20,20,20,20","0,0,0,0,0,0,1,1","1102,1410,136,90,203,201,728,280","-10.746615002724482,22.31010041037408,-21.990065792326902,49.37337081443729,8.731584996952694,34.678980588861435,26.058638245216695,23.921693688179225","35.8651582306212,5.404388964379374,20.443541703590792,28.301435109687212,12.863610011983305,31.479909312352316,-6.603320764062671,15.160481384904074","0","0"
"116","86","text","0","93","960648","0-0","","","","","","","","","","","","","","","","","","","","","","","","","","","","","","","","","","","","",""
"","","plant-game","0","94","972740","0-0","","200","180","8","WHEAT CROP","Left","200","190","2","THISTLE WEED","experimental","34","1,2,3,4,5,6,7,8","180,222.09467286405544,215.9405450820839,248.218949697219,235.58652344353442,278.1518663360907,262.28804384728625,276.99469754905664","8,7,6,5,4,3,2,1","WHEAT CROP,WHEAT CROP,WHEAT CROP,WHEAT CROP,WHEAT CROP,WHEAT CROP,WHEAT CROP,WHEAT CROP","190,234.67861044679609,140,147.41269363137647,180.70663892259694,190.17757451197699,148.35380282767858,149.40847957662797","2,1,6,5,4,3,2,1","THISTLE WEED,THISTLE WEED,NETTLE WEED,NETTLE WEED,NETTLE WEED,NETTLE WEED,NETTLE WEED,NETTLE WEED","20,20,20,20,20,20,20,20","20,20,20,20,20,20,20,20","10,10,10,10,10,10,10,10","20,20,20,20,20,20,20,20","0,0,0,0,0,0,0,0","20,20,20,20,20,20,20,20","20,20,20,20,20,20,20,20","20,20,20,20,20,20,20,20","10,10,10,10,10,10,10,10","20,20,20,20,20,20,20,20","0,0,0,0,0,0,0,0","20,20,20,20,20,20,20,20","0,0,0,0,1,1,1,1","812,178,1091,320,1261,1519,648,584","42.09467286405544,-6.154127781971539,32.278404615135074,-12.632426253684585,42.565342892556245,-15.863822488804457,14.706653701770389,-29.707453020579027","44.678610446796085,36.97984206555315,7.412693631376467,33.29394529122047,9.470935589380055,-41.823771684298414,1.05467674894938,7.498801296298323","0","0"
"91","86","text","0","95","972991","0-0","","","","","","","","","","","","","","","","","","","","","","","","","","","","","","","","","","","","",""
"","","plant-game","0","96","978131","0-0","","200","160","4","CORN CROP","Left","200","120","4","THISTLE WEED","experimental","35","1,2,3,4","160,132.51473683738166,135.32567160915139,103.69313380883271","4,3,2,1","CORN CROP,CORN CROP,CORN CROP,CORN CROP","120,115.6213681130417,151.27506460219666,137.94168914979699","4,3,2,1","THISTLE WEED,THISTLE WEED,THISTLE WEED,THISTLE WEED","20,20,20,20","20,20,20,20","10,10,10,10","20,20,20,20","0,0,0,0","20,20,20,20","20,20,20,20","20,20,20,20","10,10,10,10","20,20,20,20","0,0,0,0","20,20,20,20","1,1,1,1","1333,109,138,84","-27.485263162618345,2.8109347717697135,-31.632537800318673,-7.524641790034675","-4.378631886958298,35.65369648915496,-13.333375452399672,18.65027371717752","0","0"
"107","86","text","0","97","978368","0-0","","","","","","","","","","","","","","","","","","","","","","","","","","","","","","","","","","","","",""
"","","plant-game","0","98","982000","0-0","","200","120","1","CORN CROP","Right","200","180","1","THISTLE WEED","experimental","36","1","180","1","THISTLE WEED","120","1","CORN CROP","0","20","10","20","20","20","0","20","10","20","20","20","1","939","9.951431586343414","26.795361949755936","0","0"
"144","86","text","0","99","982300","0-0","","","","","","","","","","","","","","","","","","","","","","","","","","","","","","","","","","","","",""
"","","plant-game","0","100","997458","0-0","","200","180","1","WHEAT CROP","Right","200","120","4","NETTLE WEED","experimental","37","1,2,3,4","120,148.0639700200918,149.14377523572637,134.0064720698673","4,3,2,1","NETTLE WEED,NETTLE WEED,NETTLE WEED,NETTLE WEED","180,170,214.0267656795707,236.77144187560688","1,3,2,1","WHEAT CROP,CORN CROP,CORN CROP,CORN CROP","0,0,0,0","20,20,20,20","10,10,10,10","20,20,20,20","20,20,20,20","20,20,20,20","0,0,0,0","20,20,20,20","10,10,10,10","20,20,20,20","20,20,20,20","20,20,20,20","1,1,1,1","2192,1962,5603,618","28.06397002009181,1.0798052156345506,-15.137303165859052,-0.14611976331010368","32.38601140738331,44.0267656795707,22.744676196036174,32.07187600303337","0","0"
"200","86","text","0","101","997838","0-0","","","","","","","","","","","","","","","","","","","","","","","","","","","","","","","","","","","","",""
"","","plant-game","0","102","1006557","0-0","","200","180","1","WHEAT CROP","Right","200","120","2","NETTLE WEED","experimental","38","1,2","120,105.69751733873576","2,1","NETTLE WEED,NETTLE WEED","180,190","1,1","WHEAT CROP,CORN CROP","0,0","20,20","10,10","20,20","20,20","20,20","0,0","20,20","10,10","20,20","20,20","20,20","1,1","1200,1261","-14.302482661264236,-4.643587234363164","-11.028143425586432,39.68851196345471","0","0"
"130","86","text","0","103","1006877","0-0","","","","","","","","","","","","","","","","","","","","","","","","","","","","","","","","","","","","",""
"","","plant-game","0","104","1017622","0-0","","200","180","1","CORN CROP","Left","200","120","8","THISTLE WEED","experimental","39","1,2,3,4,5,6,7,8","180,130,131.60518005618,152.14984778543752,197.67914776688156,190.20448678110944,193.95219906382707,187.46161299408948","1,7,6,5,4,3,2,1","CORN CROP,WHEAT CROP,WHEAT CROP,WHEAT CROP,WHEAT CROP,WHEAT CROP,WHEAT CROP,WHEAT CROP","120,100.88242291000918,73.47942848706094,113.08145607501754,117.06996923971893,136.41946012454486,162.33083774907138,183.08496024568169","8,7,6,5,4,3,2,1","THISTLE WEED,THISTLE WEED,THISTLE WEED,THISTLE WEED,THISTLE WEED,THISTLE WEED,THISTLE WEED,THISTLE WEED","20,20,20,20,20,20,20,20","20,20,20,20,20,20,20,20","10,10,10,10,10,10,10,10","20,20,20,20,20,20,20,20","0,0,0,0,0,0,0,0","20,20,20,20,20,20,20,20","20,20,20,20,20,20,20,20","20,20,20,20,20,20,20,20","10,10,10,10,10,10,10,10","20,20,20,20,20,20,20,20","0,0,0,0,0,0,0,0","20,20,20,20,20,20,20,20","0,0,0,0,0,0,0,0","1738,1433,173,137,121,309,589,825","4.20413919074473,1.6051800561799894,20.544667729257515,45.529299981444055,-7.474660985772104,3.7477122827176323,-6.490586069737599,11.410088906864921","-19.117577089990817,-27.40299442294824,39.6020275879566,3.988513164701388,19.349490884825915,25.911377624526523,20.7541224966103,52.40427414112763","0","0"
"103","86","text","0","105","1017875","0-0","","","","","","","","","","","","","","","","","","","","","","","","","","","","","","","","","","","","",""
"","","plant-game","0","106","1024014","0-0","","200","190","2","WHEAT CROP","Right","200","190","2","NETTLE WEED","experimental","40","1,2","190,203.27461237220618","2,1","NETTLE WEED,NETTLE WEED","190,223.73360537678832","2,1","WHEAT CROP,WHEAT CROP","0,0","20,20","10,10","20,20","20,20","20,20","0,0","20,20","10,10","20,20","20,20","20,20","1,1","1576,1603","13.274612372206171,31.30068644098582","33.73360537678833,25.848960686585414","0","0"
"112","86","text","0","107","1024286","0-0","","","","","","","","","","","","","","","","","","","","","","","","","","","","","","","","","","","","",""
"","","plant-game","0","108","1033667","0-0","","200","160","1","WHEAT CROP","Right","200","120","4","THISTLE WEED","experimental","41","1,2,3,4","120,115.8544752764711,136.92917734604652,177.14337531307484","4,3,2,1","THISTLE WEED,THISTLE WEED,THISTLE WEED,THISTLE WEED","160,170,201.75408262325035,209.43927536686195","1,3,2,1","WHEAT CROP,CORN CROP,CORN CROP,CORN CROP","0,0,0,0","20,20,20,20","10,10,10,10","20,20,20,20","20,20,20,20","20,20,20,20","0,0,0,0","20,20,20,20","10,10,10,10","20,20,20,20","20,20,20,20","20,20,20,20","1,1,1,1","1170,1923,133,237","-4.145524723528894,21.074702069575395,40.21419796702831,-3.5162815454561844","22.799011873855612,31.754082623250362,7.685192743611594,13.31061272618906","0","0"
"6137","86","text","0","109","1040014","0-0","","","","","","","","","","","","","","","","","","","","","","","","","","","","","","","","","","","","",""
"","","plant-game","0","110","1058676","0-0","","200","180","8","CORN CROP","Left","200","180","2","NETTLE WEED","experimental","42","1,2,3,4,5,6,7,8","180,220.76766625651555,225.98098737147996,270.7053697818966,296.54643991489843,294.02357005918395,270.411686259121,277.73742792591474","8,7,6,5,4,3,2,1","CORN CROP,CORN CROP,CORN CROP,CORN CROP,CORN CROP,CORN CROP,CORN CROP,CORN CROP","180,188.44747992086081,140,158.8043384146693,193.39605595895893,233.61440319123906,212.60510300033917,243.34249667023298","2,1,6,5,4,3,2,1","NETTLE WEED,NETTLE WEED,THISTLE WEED,THISTLE WEED,THISTLE WEED,THISTLE WEED,THISTLE WEED,THISTLE WEED","20,20,20,20,20,20,20,20","20,20,20,20,20,20,20,20","10,10,10,10,10,10,10,10","20,20,20,20,20,20,20,20","0,0,0,0,0,0,0,0","20,20,20,20,20,20,20,20","20,20,20,20,20,20,20,20","20,20,20,20,20,20,20,20","10,10,10,10,10,10,10,10","20,20,20,20,20,20,20,20","0,0,0,0,0,0,0,0","20,20,20,20,20,20,20,20","0,1,0,0,1,1,1,1","2989,1068,1682,2745,762,665,766,594","40.76766625651557,5.213321114964399,44.724382410416624,25.841070133001864,-2.5228698557144993,-23.611883800062973,7.325741666793784,-18.872378170859893","8.447479920860829,10.286273828158063,18.804338414669317,34.59171754428964,40.218347232280145,-21.009300190899882,30.73739366989381,-5.0984143747015","0","0"
"501","86","text","0","111","1059367","0-0","","","","","","","","","","","","","","","","","","","","","","","","","","","","","","","","","","","","",""
"","","plant-game","0","112","1064258","0-0","","200","190","2","CORN CROP","Right","200","180","2","NETTLE WEED","experimental","43","1,2","180,172.77348512487694","2,1","NETTLE WEED,NETTLE WEED","190,211.2392155649969","2,1","CORN CROP,CORN CROP","0,0","20,20","10,10","20,20","20,20","20,20","0,0","20,20","10,10","20,20","20,20","20,20","1,1","1224,485","-7.226514875123051,54.815570144024306","21.239215564996886,13.99627615385832","0","0"
"84","86","text","0","113","1064542","0-0","","","","","","","","","","","","","","","","","","","","","","","","","","","","","","","","","","","","",""
"","","plant-game","0","114","1071260","0-0","","200","190","1","CORN CROP","Right","200","160","1","NETTLE WEED","experimental","44","1","160","1","NETTLE WEED","190","1","CORN CROP","0","20","10","20","20","20","0","20","10","20","20","20","1","2878","13.708682424570846","-1.33574081391588","0","0"
"105","86","text","0","115","1071545","0-0","","","","","","","","","","","","","","","","","","","","","","","","","","","","","","","","","","","","",""
"","","plant-game","0","116","1078604","0-0","","200","190","1","CORN CROP","Left","200","190","1","THISTLE WEED","experimental","45","1","190","1","CORN CROP","190","1","THISTLE WEED","20","20","10","20","0","20","20","20","10","20","0","20","0","3868","49.633866284841886","4.549412641551305","0","0"
"45","86","text","0","117","1078869","0-0","","","","","","","","","","","","","","","","","","","","","","","","","","","","","","","","","","","","",""
"","","plant-game","0","118","1094286","0-0","","200","160","8","WHEAT CROP","Right","200","120","1","THISTLE WEED","experimental","46","1,2,3,4,5,6,7,8","120,130,163.66971122159754,154.70276309714333,169.75178051792952,192.5735685359634,172.05831767140754,178.53440895609808","1,7,6,5,4,3,2,1","THISTLE WEED,NETTLE WEED,NETTLE WEED,NETTLE WEED,NETTLE WEED,NETTLE WEED,NETTLE WEED,NETTLE WEED","160,188.7517958149134,216.56271803835347,215.71077478437692,196.8584028948258,200.4039098258537,227.3112486555443,228.6378486532421","8,7,6,5,4,3,2,1","WHEAT CROP,WHEAT CROP,WHEAT CROP,WHEAT CROP,WHEAT CROP,WHEAT CROP,WHEAT CROP,WHEAT CROP","0,0,0,0,0,0,0,0","20,20,20,20,20,20,20,20","10,10,10,10,10,10,10,10","20,20,20,20,20,20,20,20","20,20,20,20,20,20,20,20","20,20,20,20,20,20,20,20","0,0,0,0,0,0,0,0","20,20,20,20,20,20,20,20","10,10,10,10,10,10,10,10","20,20,20,20,20,20,20,20","20,20,20,20,20,20,20,20","20,20,20,20,20,20,20,20","1,1,0,0,1,0,0,0","1323,1849,2215,480,707,1581,346,480","40.40406540269567,33.669711221597524,-8.966948124454193,15.04901742078619,22.821788018033892,-20.51525086455586,6.476091284690528,21.697633642422712","28.751795814913393,27.810922223440073,-0.8519432539765542,-18.852371889551137,3.54550693102793,26.90733882969058,1.326599997697805,-9.641250419285168","0","0"
"103","86","text","0","119","1094569","0-0","","","","","","","","","","","","","","","","","","","","","","","","","","","","","","","","","","","","",""
"","","plant-game","0","120","1100738","0-0","","200","180","2","WHEAT CROP","Left","200","180","2","NETTLE WEED","experimental","47","1,2","180,191.85485453481812","2,1","WHEAT CROP,WHEAT CROP","180,184.91203494941533","2,1","NETTLE WEED,NETTLE WEED","20,20","20,20","10,10","20,20","0,0","20,20","20,20","20,20","10,10","20,20","0,0","20,20","0,0","2373,556","11.854854534818124,17.39796726125401","4.912034949415338,50.25605012624666","0","0"
"146","86","text","0","121","1101034","0-0","","","","","","","","","","","","","","","","","","","","","","","","","","","","","","","","","","","","",""
"","","plant-game","0","122","1109304","0-0","","200","160","4","CORN CROP","Right","200","190","1","THISTLE WEED","experimental","48","1,2,3,4","190,170,192.43315504843235,217.69680095111949","1,3,2,1","THISTLE WEED,NETTLE WEED,NETTLE WEED,NETTLE WEED","160,224.11531661544723,268.14140544420957,287.37611851036326","4,3,2,1","CORN CROP,CORN CROP,CORN CROP,CORN CROP","0,0,0,0","20,20,20,20","10,10,10,10","20,20,20,20","20,20,20,20","20,20,20,20","0,0,0,0","20,20,20,20","10,10,10,10","20,20,20,20","20,20,20,20","20,20,20,20","1,1,1,1","954,859,446,1433","23.824527498015414,22.43315504843236,25.263645902687145,37.03609284354897","64.11531661544723,44.02608882876236,19.234713066153706,55.83505460061805","0","0"
"75","86","text","0","123","1109593","0-0","","","","","","","","","","","","","","","","","","","","","","","","","","","","","","","","","","","","",""
"","","plant-game","0","124","1114215","0-0","","200","180","1","CORN CROP","Left","200","190","1","THISTLE WEED","experimental","49","1","180","1","CORN CROP","190","1","THISTLE WEED","20","20","10","20","0","20","20","20","10","20","0","20","1","1523","8.822816711341492","-14.017079479929507","0","0"
"149","86","text","0","125","1114534","0-0","","","","","","","","","","","","","","","","","","","","","","","","","","","","","","","","","","","","",""
"","","plant-game","0","126","1119964","0-0","","200","190","4","WHEAT CROP","Left","200","120","4","THISTLE WEED","experimental","50","1,2,3,4","190,220.8970690487111,246.59518560205814,245.35076030976202","4,3,2,1","WHEAT CROP,WHEAT CROP,WHEAT CROP,WHEAT CROP","120,130.54026344794585,158.02929765236155,178.87426865732465","4,3,2,1","THISTLE WEED,THISTLE WEED,THISTLE WEED,THISTLE WEED","20,20,20,20","20,20,20,20","10,10,10,10","20,20,20,20","0,0,0,0","20,20,20,20","20,20,20,20","20,20,20,20","10,10,10,10","20,20,20,20","0,0,0,0","20,20,20,20","0,0,0,0","810,606,319,301","30.897069048711096,25.698116553347027,-1.2444252922961105,33.27016238832133","10.540263447945842,27.489034204415695,20.84497100496311,12.787693426021132","0","0"
"68","86","text","0","127","1120186","0-0","","","","","","","","","","","","","","","","","","","","","","","","","","","","","","","","","","","","",""
"","","plant-game","0","128","1131195","0-0","","200","120","2","CORN CROP","Left","200","190","4","NETTLE WEED","experimental","51","1,2,3,4","120,161.4808355036899,180,217.60940923873216","2,1,2,1","CORN CROP,CORN CROP,WHEAT CROP,WHEAT CROP","190,181.87395733072472,154.8541739881082,210.71252433921757","4,3,2,1","NETTLE WEED,NETTLE WEED,NETTLE WEED,NETTLE WEED","20,20,20,20","20,20,20,20","10,10,10,10","20,20,20,20","0,0,0,0","20,20,20,20","20,20,20,20","20,20,20,20","10,10,10,10","20,20,20,20","0,0,0,0","20,20,20,20","0,0,0,0","3223,380,1103,1544","41.480835503689875,12.515735346786983,37.60940923873217,55.99866155146171","-8.126042669275275,-27.019783342616527,55.858350351109394,12.620034426566452","0","0"
"157","86","text","0","129","1131538","0-0","","","","","","","","","","","","","","","","","","","","","","","","","","","","","","","","","","","","",""
"","","plant-game","0","130","1147111","0-0","","200","190","8","CORN CROP","Right","200","190","1","NETTLE WEED","experimental","52","1,2,3,4,5,6,7,8","190,130,111.18005816377273,98.14870745197246,113.82126079702181,142.29407017879328,121.66223204798074,132.94804996904898","1,7,6,5,4,3,2,1","NETTLE WEED,THISTLE WEED,THISTLE WEED,THISTLE WEED,THISTLE WEED,THISTLE WEED,THISTLE WEED,THISTLE WEED","190,225.43473457673983,284.63557748181654,290.4924818063472,330.94206247445817,332.55069675831106,333.6912679756529,319.6018064267286","8,7,6,5,4,3,2,1","CORN CROP,CORN CROP,CORN CROP,CORN CROP,CORN CROP,CORN CROP,CORN CROP,CORN CROP","0,0,0,0,0,0,0,0","20,20,20,20,20,20,20,20","10,10,10,10,10,10,10,10","20,20,20,20,20,20,20,20","20,20,20,20,20,20,20,20","20,20,20,20,20,20,20,20","0,0,0,0,0,0,0,0","20,20,20,20,20,20,20,20","10,10,10,10,10,10,10,10","20,20,20,20,20,20,20,20","20,20,20,20,20,20,20,20","20,20,20,20,20,20,20,20","0,0,0,0,0,0,0,0","3543,2923,545,524,520,472,485,497","-4.678898988574699,-18.81994183622727,-13.031350711800279,15.672553345049344,28.47280938177147,-20.63183813081254,11.285817921068231,-6.294492981773692","35.43473457673982,59.20084290507674,5.856904324530671,40.449580668110954,1.6086342838529126,1.140571217341841,-14.089461548924287,-16.25986657036315","0","0"
"126","86","text","0","131","1147417","0-0","","","","","","","","","","","","","","","","","","","","","","","","","","","","","","","","","","","","",""
"","","plant-game","0","132","1158909","0-0","","200","180","8","CORN CROP","Left","200","120","8","NETTLE WEED","experimental","53","1,2,3,4,5,6,7,8","180,182.4790848947908,160.56937155869997,144.94044673515896,189.0730141532602,197.0495081512223,163.14052297526175,163.45369104113428","8,7,6,5,4,3,2,1","CORN CROP,CORN CROP,CORN CROP,CORN CROP,CORN CROP,CORN CROP,CORN CROP,CORN CROP","120,159.64141498455834,140.6857160932336,129.06335522990744,137.7960438036783,130.35421596649428,147.9648138707863,151.58156933282677","8,7,6,5,4,3,2,1","NETTLE WEED,NETTLE WEED,NETTLE WEED,NETTLE WEED,NETTLE WEED,NETTLE WEED,NETTLE WEED,NETTLE WEED","20,20,20,20,20,20,20,20","20,20,20,20,20,20,20,20","10,10,10,10,10,10,10,10","20,20,20,20,20,20,20,20","0,0,0,0,0,0,0,0","20,20,20,20,20,20,20,20","20,20,20,20,20,20,20,20","20,20,20,20,20,20,20,20","10,10,10,10,10,10,10,10","20,20,20,20,20,20,20,20","0,0,0,0,0,0,0,0","20,20,20,20,20,20,20,20","0,1,1,1,1,1,1,1","2811,2182,383,355,530,396,459,318","2.479084894790784,-21.90971333609081,-15.628924823541006,44.13256741810123,7.9764939979621055,-33.90898517596056,0.3131680658725323,-3.12960074464026","39.64141498455833,-18.955698891324733,-11.622360863326156,8.732688573770858,-7.441827837183994,17.610597904292014,3.6167554620404814,-2.49502249140945","0","0"
"113","86","text","0","133","1159209","0-0","","","","","","","","","","","","","","","","","","","","","","","","","","","","","","","","","","","","",""
"","","plant-game","0","134","1174870","0-0","","200","190","8","WHEAT CROP","Left","200","190","4","NETTLE WEED","experimental","54","1,2,3,4,5,6,7,8","190,174.3059475298009,159.36408369442043,146.7592803504416,138.88055316764894,163.44500839496692,208.61862298390446,274.6757492508612","8,7,6,5,4,3,2,1","WHEAT CROP,WHEAT CROP,WHEAT CROP,WHEAT CROP,WHEAT CROP,WHEAT CROP,WHEAT CROP,WHEAT CROP","190,204.0809326927905,193.74342163346705,213.28804806435988,160,193.06366506808098,191.68017180883555,229.91829522806725","4,3,2,1,4,3,2,1","NETTLE WEED,NETTLE WEED,NETTLE WEED,NETTLE WEED,THISTLE WEED,THISTLE WEED,THISTLE WEED,THISTLE WEED","20,20,20,20,20,20,20,20","20,20,20,20,20,20,20,20","10,10,10,10,10,10,10,10","20,20,20,20,20,20,20,20","0,0,0,0,0,0,0,0","20,20,20,20,20,20,20,20","20,20,20,20,20,20,20,20","20,20,20,20,20,20,20,20","10,10,10,10,10,10,10,10","20,20,20,20,20,20,20,20","0,0,0,0,0,0,0,0","20,20,20,20,20,20,20,20","1,1,1,1,0,0,0,0","3724,1161,185,98,2909,396,496,613","-15.694052470199082,-14.94186383538047,-12.604803343978816,-7.878727182792669,24.564455227317968,45.17361458893755,66.05712626695674,-4.2218178103747945","14.08093269279049,-10.337511059323457,19.544626430892833,-21.128550918706726,33.06366506808097,-1.383493259245423,38.23812341923169,24.545045318947373","0","0"
"109","86","text","0","135","1175159","0-0","","","","","","","","","","","","","","","","","","","","","","","","","","","","","","","","","","","","",""
"","","plant-game","0","136","1185268","0-0","","200","160","1","CORN CROP","Right","200","180","2","THISTLE WEED","experimental","55","1,2","180,185.2423130416937","2,1","THISTLE WEED,THISTLE WEED","160,190","1,1","CORN CROP,WHEAT CROP","0,0","20,20","10,10","20,20","20,20","20,20","0,0","20,20","10,10","20,20","20,20","20,20","1,0","2698,1964","5.242313041693693,22.945981803241654","47.5575332814206,-7.192313028176547","0","0"
"76","86","text","0","137","1185534","0-0","","","","","","","","","","","","","","","","","","","","","","","","","","","","","","","","","","","","",""
"","","plant-game","0","138","1194207","0-0","","200","190","2","WHEAT CROP","Right","200","120","1","NETTLE WEED","experimental","56","1,2","120,190","1,1","NETTLE WEED,THISTLE WEED","190,224.45906096464614","2,1","WHEAT CROP,WHEAT CROP","0,0","20,20","10,10","20,20","20,20","20,20","0,0","20,20","10,10","20,20","20,20","20,20","1,0","1212,2441","19.21264881534563,0.16751384327495497","34.45906096464614,24.728139412870558","0","0"
"185","86","text","0","139","1194552","0-0","","","","","","","","","","","","","","","","","","","","","","","","","","","","","","","","","","","","",""
"","","plant-game","0","140","1204220","0-0","","200","120","1","CORN CROP","Right","200","120","4","THISTLE WEED","experimental","57","1,2,3,4","120,124.00157632375164,118.19265062466674,153.67687416519465","4,3,2,1","THISTLE WEED,THISTLE WEED,THISTLE WEED,THISTLE WEED","120,170,207.35678459662546,224.67039707480654","1,3,2,1","CORN CROP,WHEAT CROP,WHEAT CROP,WHEAT CROP","0,0,0,0","20,20,20,20","10,10,10,10","20,20,20,20","20,20,20,20","20,20,20,20","0,0,0,0","20,20,20,20","10,10,10,10","20,20,20,20","20,20,20,20","20,20,20,20","1,1,1,1","1300,809,1724,922","4.001576323751642,-5.808925699084895,35.48422354052791,9.36169607086913","50.2879816804096,37.35678459662546,17.3136124781811,14.268083441879767","0","0"
"80","86","text","0","141","1204460","0-0","","","","","","","","","","","","","","","","","","","","","","","","","","","","","","","","","","","","",""
"","","plant-game","0","142","1215745","0-0","","200","160","1","WHEAT CROP","Left","200","160","2","NETTLE WEED","experimental","58","1,2","160,190","1,1","WHEAT CROP,CORN CROP","160,198.9040669988624","2,1","NETTLE WEED,NETTLE WEED","20,20","20,20","10,10","20,20","0,0","20,20","20,20","20,20","10,10","20,20","0,0","20,20","0,1","2634,3468","40.15356770666841,22.47918067204443","38.904066998862376,-8.914999344605711","0","0"
"111","86","text","0","143","1215996","0-0","","","","","","","","","","","","","","","","","","","","","","","","","","","","","","","","","","","","",""
"","","plant-game","0","144","1231216","0-0","","200","180","8","CORN CROP","Right","200","160","2","NETTLE WEED","experimental","59","1,2,3,4,5,6,7,8","160,173.80981254720768,140,159.6121179384226,200.3326020695425,209.108985392471,179.279858573943,208.03925764411093","2,1,6,5,4,3,2,1","NETTLE WEED,NETTLE WEED,THISTLE WEED,THISTLE WEED,THISTLE WEED,THISTLE WEED,THISTLE WEED,THISTLE WEED","180,208.60805261150765,228.66866704848832,235.089315466977,235.7321163884399,219.38425534062583,219.18557068852016,225.7579186068777","8,7,6,5,4,3,2,1","CORN CROP,CORN CROP,CORN CROP,CORN CROP,CORN CROP,CORN CROP,CORN CROP,CORN CROP","0,0,0,0,0,0,0,0","20,20,20,20,20,20,20,20","10,10,10,10,10,10,10,10","20,20,20,20,20,20,20,20","20,20,20,20,20,20,20,20","20,20,20,20,20,20,20,20","0,0,0,0,0,0,0,0","20,20,20,20,20,20,20,20","10,10,10,10,10,10,10,10","20,20,20,20,20,20,20,20","20,20,20,20,20,20,20,20","20,20,20,20,20,20,20,20","1,0,0,0,0,0,0,0","1573,3524,1897,192,1041,357,521,493","13.809812547207686,-13.94977996704888,19.612117938422617,40.720484131119896,8.776383322928483,-29.82912681852802,28.75939907016795,1.6389774582401972","28.608052611507645,20.060614436980657,6.420648418488697,0.6428009214628795,-16.347861047814067,-0.19868465210566968,6.572347918357522,53.27580074553342","0","0"
"175","86","text","0","145","1231551","0-0","","","","","","","","","","","","","","","","","","","","","","","","","","","","","","","","","","","","",""
"","","plant-game","0","146","1243866","0-0","","200","160","4","CORN CROP","Right","200","120","8","THISTLE WEED","experimental","60","1,2,3,4,5,6,7,8","120,138.0473393466777,147.6486149969727,170.14080624843754,171.98117640478108,192.0079648924927,229.9908066264573,252.93169187623513","8,7,6,5,4,3,2,1","THISTLE WEED,THISTLE WEED,THISTLE WEED,THISTLE WEED,THISTLE WEED,THISTLE WEED,THISTLE WEED,THISTLE WEED","160,162.32733096104664,170.11273368140274,214.2022690228334,160,209.53150887088952,227.44832964719402,233.65103186440706","4,3,2,1,4,3,2,1","CORN CROP,CORN CROP,CORN CROP,CORN CROP,WHEAT CROP,WHEAT CROP,WHEAT CROP,WHEAT CROP","0,0,0,0,0,0,0,0","20,20,20,20,20,20,20,20","10,10,10,10,10,10,10,10","20,20,20,20,20,20,20,20","20,20,20,20,20,20,20,20","20,20,20,20,20,20,20,20","0,0,0,0,0,0,0,0","20,20,20,20,20,20,20,20","10,10,10,10,10,10,10,10","20,20,20,20,20,20,20,20","20,20,20,20,20,20,20,20","20,20,20,20,20,20,20,20","1,1,1,0,1,1,1,1","1606,341,391,1262,783,374,491,340","18.047339346677674,9.601275650294994,22.492191251464856,1.8403701563435482,20.02678848771162,37.982841733964605,22.940885249777846,-4.924381393449796","2.327330961046627,7.7854027203561,44.089535341430654,-50.97848286010286,49.53150887088951,17.916820776304487,6.202702217213034,11.328402853664224","0","0"
"88","86","text","0","147","1244104","0-0","","","","","","","","","","","","","","","","","","","","","","","","","","","","","","","","","","","","",""
"","","plant-game","0","148","1254517","0-0","","200","120","1","CORN CROP","Right","200","180","2","THISTLE WEED","experimental","61","1,2","180,187.04982561535232","2,1","THISTLE WEED,THISTLE WEED","120,190","1,1","CORN CROP,WHEAT CROP","0,0","20,20","10,10","20,20","20,20","20,20","0,0","20,20","10,10","20,20","20,20","20,20","0,1","3086,2622","7.04982561535231,37.79214710911383","-16.262660590312787,29.022425440311153","0","0"
"83","86","text","0","149","1254760","0-0","","","","","","","","","","","","","","","","","","","","","","","","","","","","","","","","","","","","",""
"","","plant-game","0","150","1260182","0-0","","200","180","4","WHEAT CROP","Right","200","180","4","THISTLE WEED","experimental","62","1,2,3,4","180,245.93603910596013,235.5880984589106,229.16681400368643","4,3,2,1","THISTLE WEED,THISTLE WEED,THISTLE WEED,THISTLE WEED","180,176.6452262044998,209.38164384100628,231.0139636894088","4,3,2,1","WHEAT CROP,WHEAT CROP,WHEAT CROP,WHEAT CROP","0,0,0,0","20,20,20,20","10,10,10,10","20,20,20,20","20,20,20,20","20,20,20,20","0,0,0,0","20,20,20,20","10,10,10,10","20,20,20,20","20,20,20,20","20,20,20,20","1,1,1,1","1184,879,284,71","65.93603910596013,-10.347940647049544,-6.421284455224168,13.727287508609315","-3.3547737955002077,32.73641763650649,21.63231984840252,-10.520326847244668","0","0"
"181","86","text","0","151","1260503","0-0","","","","","","","","","","","","","","","","","","","","","","","","","","","","","","","","","","","","",""
"","","plant-game","0","152","1264547","0-0","","200","120","2","WHEAT CROP","Left","200","180","2","THISTLE WEED","experimental","63","1,2","120,125.37636556415657","2,1","WHEAT CROP,WHEAT CROP","180,205.36020819904246","2,1","THISTLE WEED,THISTLE WEED","20,20","20,20","10,10","20,20","0,0","20,20","20,20","20,20","10,10","20,20","0,0","20,20","0,0","1092,164","5.376365564156572,23.177890663435463","25.360208199042475,29.749286709518763","0","0"
"74","86","text","0","153","1264761","0-0","","","","","","","","","","","","","","","","","","","","","","","","","","","","","","","","","","","","",""
"","","plant-game","0","154","1271049","0-0","","200","120","2","WHEAT CROP","Right","200","180","1","THISTLE WEED","experimental","64","1,2","180,190","1,1","THISTLE WEED,NETTLE WEED","120,171.23948213273263","2,1","WHEAT CROP,WHEAT CROP","0,0","20,20","10,10","20,20","20,20","20,20","0,0","20,20","10,10","20,20","20,20","20,20","1,1","1228,659","13.18872994355093,-5.392137441705877","51.23948213273264,11.173266832276264","0","0"
"90","86","text","0","155","1271319","0-0","","","","","","","","","","","","","","","","","","","","","","","","","","","","","","","","","","","","",""
"","","plant-game","0","156","1276461","0-0","","200","180","2","WHEAT CROP","Right","200","190","1","THISTLE WEED","experimental","65","1,2","190,190","1,1","THISTLE WEED,NETTLE WEED","180,183.8584741948028","2,1","WHEAT CROP,WHEAT CROP","0,0","20,20","10,10","20,20","20,20","20,20","0,0","20,20","10,10","20,20","20,20","20,20","1,1","656,734","26.293041692350947,10.618692635811687","3.8584741948027883,3.453323920300612","0","0"
"67","86","text","0","157","1276708","0-0","","","","","","","","","","","","","","","","","","","","","","","","","","","","","","","","","","","","",""
"","","plant-game","0","158","1283020","0-0","","200","190","1","CORN CROP","Left","200","160","2","THISTLE WEED","experimental","66","1,2","190,190","1,1","CORN CROP,WHEAT CROP","160,164.4529270831883","2,1","THISTLE WEED,THISTLE WEED","20,20","20,20","10,10","20,20","0,0","20,20","20,20","20,20","10,10","20,20","0,0","20,20","0,0","903,1316","9.249183836554398,4.234601612988806","4.452927083188317,-28.714335998236358","0","0"
"82","86","text","0","159","1283262","0-0","","","","","","","","","","","","","","","","","","","","","","","","","","","","","","","","","","","","",""
"","","plant-game","0","160","1292862","0-0","","200","180","1","WHEAT CROP","Left","200","190","4","THISTLE WEED","experimental","67","1,2,3,4","180,170,150.61145924141425,140.07515084561436","1,3,2,1","WHEAT CROP,CORN CROP,CORN CROP,CORN CROP","190,208.41767646532756,267.1997596852703,280.84913246268565","4,3,2,1","THISTLE WEED,THISTLE WEED,THISTLE WEED,THISTLE WEED","20,20,20,20","20,20,20,20","10,10,10,10","20,20,20,20","0,0,0,0","20,20,20,20","20,20,20,20","20,20,20,20","10,10,10,10","20,20,20,20","0,0,0,0","20,20,20,20","0,0,0,0","2631,1612,412,393","4.420630499626823,-19.388540758585762,-10.5363083957999,-18.539144635873072","18.417676465327563,58.78208321994272,13.649372777415348,-4.627543547841846","0","0"
"75","86","text","0","161","1293137","0-0","","","","","","","","","","","","","","","","","","","","","","","","","","","","","","","","","","","","",""
"","","plant-game","0","162","1304349","0-0","","200","180","1","WHEAT CROP","Right","200","190","8","THISTLE WEED","experimental","68","1,2,3,4,5,6,7,8","190,208.45261970616235,238.6649759428715,285.6198117795175,301.5704443976522,336.6174584351338,346.0354887541249,362.7126429935061","8,7,6,5,4,3,2,1","THISTLE WEED,THISTLE WEED,THISTLE WEED,THISTLE WEED,THISTLE WEED,THISTLE WEED,THISTLE WEED,THISTLE WEED","180,130,126.46366485399955,135.95366318230347,170.78696260348522,170.77311773577193,172.71650962614055,199.76647280953938","1,7,6,5,4,3,2,1","WHEAT CROP,CORN CROP,CORN CROP,CORN CROP,CORN CROP,CORN CROP,CORN CROP,CORN CROP","0,0,0,0,0,0,0,0","20,20,20,20,20,20,20,20","10,10,10,10,10,10,10,10","20,20,20,20,20,20,20,20","20,20,20,20,20,20,20,20","20,20,20,20,20,20,20,20","0,0,0,0,0,0,0,0","20,20,20,20,20,20,20,20","10,10,10,10,10,10,10,10","20,20,20,20,20,20,20,20","20,20,20,20,20,20,20,20","20,20,20,20,20,20,20,20","1,0,1,1,1,1,1,1","1862,1387,968,98,80,80,82,89","18.45261970616234,30.21235623670915,46.95483583664594,15.95063261813469,35.0470140374816,9.418030318991095,16.677154239381185,31.06463211327824","10.201403785676739,-3.5363351460004537,9.489998328303937,34.83329942118176,-0.013844867713281417,1.9433918903686234,27.049963183398823,9.363583558056796","0","0"
"167","86","text","0","163","1304706","0-0","","","","","","","","","","","","","","","","","","","","","","","","","","","","","","","","","","","","",""
"","","plant-game","0","164","1315910","0-0","","200","120","8","CORN CROP","Left","200","180","1","NETTLE WEED","experimental","69","1,2,3,4,5,6,7,8","120,156.17407625323418,154.58110676319913,156.92834745824723,171.89204570416751,141.64450995320553,153.57358226212915,151.57441171893015","8,7,6,5,4,3,2,1","CORN CROP,CORN CROP,CORN CROP,CORN CROP,CORN CROP,CORN CROP,CORN CROP,CORN CROP","180,130,151.4978042745954,147.95370829886213,166.61303459639578,193.38383495939848,183.77830986044825,140.87549334543678","1,7,6,5,4,3,2,1","NETTLE WEED,THISTLE WEED,THISTLE WEED,THISTLE WEED,THISTLE WEED,THISTLE WEED,THISTLE WEED,THISTLE WEED","20,20,20,20,20,20,20,20","20,20,20,20,20,20,20,20","10,10,10,10,10,10,10,10","20,20,20,20,20,20,20,20","0,0,0,0,0,0,0,0","20,20,20,20,20,20,20,20","20,20,20,20,20,20,20,20","20,20,20,20,20,20,20,20","10,10,10,10,10,10,10,10","20,20,20,20,20,20,20,20","0,0,0,0,0,0,0,0","20,20,20,20,20,20,20,20","0,0,1,1,1,1,1,1","1494,1124,1113,345,93,123,429,86","36.17407625323417,-1.5929694900350384,2.347240695048109,14.963698245920272,-30.247535750961987,11.929072308923631,-1.9991705431989992,-10.433342468121014","14.269264697357169,21.497804274595413,-3.5440959757332973,18.659326297533653,26.77080036300271,-9.60552509895024,-42.90281651501145,10.535491870823755","0","0"
"78","86","text","0","165","1316108","0-0","","","","","","","","","","","","","","","","","","","","","","","","","","","","","","","","","","","","",""
"","","plant-game","0","166","1322708","0-0","","200","120","4","WHEAT CROP","Left","200","180","4","THISTLE WEED","experimental","70","1,2,3,4","120,135.89172488156834,154.24181297297687,132.8683345823594","4,3,2,1","WHEAT CROP,WHEAT CROP,WHEAT CROP,WHEAT CROP","180,205.70269394917776,204.30141485561563,176.93105306979925","4,3,2,1","THISTLE WEED,THISTLE WEED,THISTLE WEED,THISTLE WEED","20,20,20,20","20,20,20,20","10,10,10,10","20,20,20,20","0,0,0,0","20,20,20,20","20,20,20,20","20,20,20,20","10,10,10,10","20,20,20,20","0,0,0,0","20,20,20,20","0,1,1,1","1056,850,165,78","15.891724881568333,18.35008809140854,-21.373478390617468,3.3598021920779986","25.702693949177768,-1.401279093562127,-27.37036178581638,21.94715153238228","0","0"
"64","86","text","0","167","1322916","0-0","","","","","","","","","","","","","","","","","","","","","","","","","","","","","","","","","","","","",""
"","","plant-game","0","168","1333443","0-0","","200","190","8","WHEAT CROP","Right","200","180","1","THISTLE WEED","experimental","71","1,2,3,4,5,6,7,8","180,130,162.95291543842993,154.08683329453189,178.58245041440847,175.1263158368638,217.85173759343581,238.1636960279114","1,7,6,5,4,3,2,1","THISTLE WEED,NETTLE WEED,NETTLE WEED,NETTLE WEED,NETTLE WEED,NETTLE WEED,NETTLE WEED,NETTLE WEED","190,217.81707219805173,242.913391871985,257.6146901869285,270.7678024303808,297.1413032360091,296.33381621457806,341.151336918929","8,7,6,5,4,3,2,1","WHEAT CROP,WHEAT CROP,WHEAT CROP,WHEAT CROP,WHEAT CROP,WHEAT CROP,WHEAT CROP,WHEAT CROP","0,0,0,0,0,0,0,0","20,20,20,20,20,20,20,20","10,10,10,10,10,10,10,10","20,20,20,20,20,20,20,20","20,20,20,20,20,20,20,20","20,20,20,20,20,20,20,20","0,0,0,0,0,0,0,0","20,20,20,20,20,20,20,20","10,10,10,10,10,10,10,10","20,20,20,20,20,20,20,20","20,20,20,20,20,20,20,20","20,20,20,20,20,20,20,20","1,1,1,1,1,1,0,1","945,1308,849,391,95,144,1109,759","0.9999258655463663,32.95291543842993,-8.866082143898048,24.495617119876584,-3.456134577544667,42.72542175657202,20.311958434475592,4.278377171682573","27.817072198051743,25.096319673933255,14.701298314943497,13.15311224345234,26.373500805628275,-0.8074870214310401,44.81752070435097,18.507724241620338","0","0"
"84","86","text","0","169","1333660","0-0","","","","","","","","","","","","","","","","","","","","","","","","","","","","","","","","","","","","",""
"","","plant-game","0","170","1337671","0-0","","200","160","2","CORN CROP","Left","200","190","2","NETTLE WEED","experimental","72","1,2","160,160.86577867309762","2,1","CORN CROP,CORN CROP","190,230.4802232577565","2,1","NETTLE WEED,NETTLE WEED","20,20","20,20","10,10","20,20","0,0","20,20","20,20","20,20","10,10","20,20","0,0","20,20","0,0","1287,110","0.8657786730976156,36.23134662611089","40.48022325775652,44.116984218049524","0","0"
"68","86","text","0","171","1337889","0-0","","","","","","","","","","","","","","","","","","","","","","","","","","","","","","","","","","","","",""
"","","plant-game","0","172","1344653","0-0","","200","120","2","CORN CROP","Left","200","180","4","THISTLE WEED","experimental","73","1,2,3,4","120,114.6991366492653,180,188.30143066312743","2,1,2,1","CORN CROP,CORN CROP,WHEAT CROP,WHEAT CROP","180,178.22443920292912,182.10974431649208,186.23330021081364","4,3,2,1","THISTLE WEED,THISTLE WEED,THISTLE WEED,THISTLE WEED","20,20,20,20","20,20,20,20","10,10,10,10","20,20,20,20","0,0,0,0","20,20,20,20","20,20,20,20","20,20,20,20","10,10,10,10","20,20,20,20","0,0,0,0","20,20,20,20","1,1,0,0","1203,109,1435,83","-5.300863350734705,16.20112481653603,8.301430663127432,42.491195032542095","-1.7755607970708855,3.8853051135629686,4.123555894321543,23.10576316106133","0","0"
"82","86","text","0","173","1344865","0-0","","","","","","","","","","","","","","","","","","","","","","","","","","","","","","","","","","","","",""
"","","plant-game","0","174","1351963","0-0","","200","190","2","CORN CROP","Right","200","190","4","NETTLE WEED","experimental","74","1,2,3,4","190,244.5993471306661,232.17654833194635,243.60957998447557","4,3,2,1","NETTLE WEED,NETTLE WEED,NETTLE WEED,NETTLE WEED","190,232.99139519099728,180,172.7244283582409","2,1,2,1","CORN CROP,CORN CROP,WHEAT CROP,WHEAT CROP","0,0,0,0","20,20,20,20","10,10,10,10","20,20,20,20","20,20,20,20","20,20,20,20","0,0,0,0","20,20,20,20","10,10,10,10","20,20,20,20","20,20,20,20","20,20,20,20","1,0,1,1","954,1001,57,69","54.59934713066609,-12.42279879871975,11.433031652529236,23.070815719278023","42.99139519099728,-26.90282699982724,-7.2755716417590754,46.976769357410475","0","0"
"97","86","text","0","175","1352230","0-0","","","","","","","","","","","","","","","","","","","","","","","","","","","","","","","","","","","","",""
"","","plant-game","0","176","1361560","0-0","","200","160","4","WHEAT CROP","Left","200","190","8","THISTLE WEED","experimental","75","1,2,3,4,5,6,7,8","160,155.53126334707216,134.1632417960338,168.3451067185244,160,177.23484369551676,174.6873503926523,158.91669395865478","4,3,2,1,4,3,2,1","WHEAT CROP,WHEAT CROP,WHEAT CROP,WHEAT CROP,CORN CROP,CORN CROP,CORN CROP,CORN CROP","190,196.41867755733176,220.29132976774014,236.41954349588408,258.7839219572135,265.0543376945368,284.9960166402142,336.25006029527583","8,7,6,5,4,3,2,1","THISTLE WEED,THISTLE WEED,THISTLE WEED,THISTLE WEED,THISTLE WEED,THISTLE WEED,THISTLE WEED,THISTLE WEED","20,20,20,20,20,20,20,20","20,20,20,20,20,20,20,20","10,10,10,10,10,10,10,10","20,20,20,20,20,20,20,20","0,0,0,0,0,0,0,0","20,20,20,20,20,20,20,20","20,20,20,20,20,20,20,20","20,20,20,20,20,20,20,20","10,10,10,10,10,10,10,10","20,20,20,20,20,20,20,20","0,0,0,0,0,0,0,0","20,20,20,20,20,20,20,20","0,0,1,1,0,0,0,0","836,142,623,79,1523,122,126,532","-4.468736652927845,-21.368021551038375,34.1818649224906,1.3039067870650036,17.234843695516748,-2.5474933028644777,-15.77065643399753,31.366560287518958","6.418677557331753,23.872652210408376,16.128213728143937,22.36437846132942,6.270415737323251,19.94167894567736,51.25404365506162,64.30306863386691","0","0"
"95","86","text","0","177","1361765","0-0","","","","","","","","","","","","","","","","","","","","","","","","","","","","","","","","","","","","",""
"","","plant-game","0","178","1373253","0-0","","200","180","1","WHEAT CROP","Left","200","180","8","THISTLE WEED","experimental","76","1,2,3,4,5,6,7,8","180,130,159.80024494775162,174.15185343971856,191.98839751813898,174.60400130548177,149.9432670062616,142.86775241942652","1,7,6,5,4,3,2,1","WHEAT CROP,CORN CROP,CORN CROP,CORN CROP,CORN CROP,CORN CROP,CORN CROP,CORN CROP","180,225.91473786583666,262.31658460192114,294.05581000563944,343.3402688113953,297.22322199381557,275.7993879292297,272.16512633817865","8,7,6,5,4,3,2,1","THISTLE WEED,THISTLE WEED,THISTLE WEED,THISTLE WEED,THISTLE WEED,THISTLE WEED,THISTLE WEED,THISTLE WEED","20,20,20,20,20,20,20,20","20,20,20,20,20,20,20,20","10,10,10,10,10,10,10,10","20,20,20,20,20,20,20,20","0,0,0,0,0,0,0,0","20,20,20,20,20,20,20,20","20,20,20,20,20,20,20,20","20,20,20,20,20,20,20,20","10,10,10,10,10,10,10,10","20,20,20,20,20,20,20,20","0,0,0,0,0,0,0,0","20,20,20,20,20,20,20,20","0,0,0,0,1,1,1,1","2722,1454,90,163,689,107,69,514","41.18086798449534,29.800244947751626,14.351608491966948,17.83654407842041,-17.3843962126572,-24.660734299220156,-7.075514586835076,20.736353643522495","45.91473786583666,36.401846736084494,31.739225403718283,49.28445880575585,-46.1170468175797,-21.423834064585876,-3.6342615910510165,-13.491199764629814","0","0"
"108","86","text","0","179","1373531","0-0","","","","","","","","","","","","","","","","","","","","","","","","","","","","","","","","","","","","",""
"","","plant-game","0","180","1380927","0-0","","200","190","4","CORN CROP","Right","200","160","4","THISTLE WEED","experimental","77","1,2,3,4","160,168.76296624797266,189.75155863912178,177.94786530711986","4,3,2,1","THISTLE WEED,THISTLE WEED,THISTLE WEED,THISTLE WEED","190,176.50813616527552,227.50054221914678,252.95006745341692","4,3,2,1","CORN CROP,CORN CROP,CORN CROP,CORN CROP","0,0,0,0","20,20,20,20","10,10,10,10","20,20,20,20","20,20,20,20","20,20,20,20","0,0,0,0","20,20,20,20","10,10,10,10","20,20,20,20","20,20,20,20","20,20,20,20","1,1,0,0","1340,853,1554,404","8.762966247972647,20.988592391149137,-11.803693332001917,-29.07240152866543","-13.49186383472447,50.99240605387127,25.449525234270133,-11.544623570116118","0","0"
"135","86","text","0","181","1381237","0-0","","","","","","","","","","","","","","","","","","","","","","","","","","","","","","","","","","","","",""
"","","plant-game","0","182","1396969","0-0","","200","180","8","WHEAT CROP","Right","200","120","1","THISTLE WEED","experimental","78","1,2,3,4,5,6,7,8","120,130,162.65011785349677,183.0795241124103,164.09041048226683,188.01617909211564,159.436303365879,150.43561612221225","1,7,6,5,4,3,2,1","THISTLE WEED,NETTLE WEED,NETTLE WEED,NETTLE WEED,NETTLE WEED,NETTLE WEED,NETTLE WEED,NETTLE WEED","180,165.92596864935064,161.65276449826496,202.35465401924907,196.02695725854147,214.0348248600017,237.35418781528824,218.32976620479096","8,7,6,5,4,3,2,1","WHEAT CROP,WHEAT CROP,WHEAT CROP,WHEAT CROP,WHEAT CROP,WHEAT CROP,WHEAT CROP,WHEAT CROP","0,0,0,0,0,0,0,0","20,20,20,20,20,20,20,20","10,10,10,10,10,10,10,10","20,20,20,20,20,20,20,20","20,20,20,20,20,20,20,20","20,20,20,20,20,20,20,20","0,0,0,0,0,0,0,0","20,20,20,20,20,20,20,20","10,10,10,10,10,10,10,10","20,20,20,20,20,20,20,20","20,20,20,20,20,20,20,20","20,20,20,20,20,20,20,20","1,1,0,0,0,0,0,0","1791,969,741,1948,1297,981,1051,634","15.797947464378714,32.65011785349677,20.42940625891354,-18.989113630143475,23.9257686098488,-28.579875726236622,-9.000687243666762,-44.76802929470026","-14.074031350649364,-4.273204151085686,40.70188952098411,-6.327696760707591,18.007867601460227,23.319362955286536,-19.024421610497278,5.704390077050815","0","0"
"61","86","text","0","183","1397191","0-0","","","","","","","","","","","","","","","","","","","","","","","","","","","","","","","","","","","","",""
"","","plant-game","0","184","1401434","0-0","","200","180","2","CORN CROP","Right","200","120","2","THISTLE WEED","experimental","79","1,2","120,138.57781977357553","2,1","THISTLE WEED,THISTLE WEED","180,195.95227876988028","2,1","CORN CROP,CORN CROP","0,0","20,20","10,10","20,20","20,20","20,20","0,0","20,20","10,10","20,20","20,20","20,20","1,1","1359,106","18.577819773575538,7.0650615655201925","15.95227876988029,24.89912021567734","0","0"
"65","86","text","0","185","1401629","0-0","","","","","","","","","","","","","","","","","","","","","","","","","","","","","","","","","","","","",""
"","","plant-game","0","186","1412316","0-0","","200","160","8","CORN CROP","Right","200","160","1","THISTLE WEED","experimental","80","1,2,3,4,5,6,7,8","160,130,152.20575374079252,147.36092673770912,163.17007900591742,196.59983677452016,196.42138891753586,213.09009688331824","1,7,6,5,4,3,2,1","THISTLE WEED,NETTLE WEED,NETTLE WEED,NETTLE WEED,NETTLE WEED,NETTLE WEED,NETTLE WEED,NETTLE WEED","160,157.79921670002327,204.25102099834965,192.0146594722529,234.8647620718426,232.36408620291488,247.36203295607663,251.1893260692923","8,7,6,5,4,3,2,1","CORN CROP,CORN CROP,CORN CROP,CORN CROP,CORN CROP,CORN CROP,CORN CROP,CORN CROP","0,0,0,0,0,0,0,0","20,20,20,20,20,20,20,20","10,10,10,10,10,10,10,10","20,20,20,20,20,20,20,20","20,20,20,20,20,20,20,20","20,20,20,20,20,20,20,20","0,0,0,0,0,0,0,0","20,20,20,20,20,20,20,20","10,10,10,10,10,10,10,10","20,20,20,20,20,20,20,20","20,20,20,20,20,20,20,20","20,20,20,20,20,20,20,20","1,1,0,1,1,1,1,0","885,928,1560,813,79,91,83,461","48.77227369547444,22.205753740792513,-4.844827003083406,15.809152268208292,33.42975776860273,-0.17844785698429178,16.66870796578238,-16.283070970969277","-2.200783299976724,46.45180429832638,-12.236361526096733,42.85010259958968,-2.5006758689277184,14.99794675316176,3.827293113215646,-26.805343303018425","0","0"
"130","86","text","0","187","1412596","0-0","","","","","","","","","","","","","","","","","","","","","","","","","","","","","","","","","","","","",""
"","","plant-game","0","188","1418885","0-0","","200","190","8","WHEAT CROP","Left","200","190","8","THISTLE WEED","experimental","81","1,2,3,4,5,6,7,8","190,153.69892228831162,192.34727594853632,149.51138523455595,125.96675190042495,107.86774302214367,152.62612126655623,182.27545276322095","8,7,6,5,4,3,2,1","WHEAT CROP,WHEAT CROP,WHEAT CROP,WHEAT CROP,WHEAT CROP,WHEAT CROP,WHEAT CROP,WHEAT CROP","190,236.48066370554355,289.5121793654334,302.69977187571294,328.2897266920956,352.14118991677594,396.29498008543914,401.28502099880996","8,7,6,5,4,3,2,1","THISTLE WEED,THISTLE WEED,THISTLE WEED,THISTLE WEED,THISTLE WEED,THISTLE WEED,THISTLE WEED,THISTLE WEED","20,20,20,20,20,20,20,20","20,20,20,20,20,20,20,20","10,10,10,10,10,10,10,10","20,20,20,20,20,20,20,20","0,0,0,0,0,0,0,0","20,20,20,20,20,20,20,20","20,20,20,20,20,20,20,20","20,20,20,20,20,20,20,20","10,10,10,10,10,10,10,10","20,20,20,20,20,20,20,20","0,0,0,0,0,0,0,0","20,20,20,20,20,20,20,20","0,0,1,1,1,0,0,0","1209,160,695,72,85,207,115,116","-36.301077711688365,38.648353660224714,-42.835890713980376,-23.544633334130992,-18.099008878281285,44.75837824441255,29.649331496664722,10.664837265877908","46.480663705543556,53.03151565988983,13.187592510279584,25.589954816382637,23.851463224680366,44.15379016866321,4.990040913370841,11.292303389119201","0","0"
"80","86","text","0","189","1419122","0-0","","","","","","","","","","","","","","","","","","","","","","","","","","","","","","","","","","","","",""
"","","plant-game","0","190","1427748","0-0","","200","160","8","WHEAT CROP","Left","200","180","2","NETTLE WEED","experimental","82","1,2,3,4,5,6,7,8","160,192.61348693082263,233.25618381039902,246.4235043594046,248.33533990140333,227.19261068336334,209.73772163926222,224.164067839517","8,7,6,5,4,3,2,1","WHEAT CROP,WHEAT CROP,WHEAT CROP,WHEAT CROP,WHEAT CROP,WHEAT CROP,WHEAT CROP,WHEAT CROP","180,200.93739852829628,140,195.407992916408,177.2650571412633,192.8845015744875,226.7964169724172,242.73964658833262","2,1,6,5,4,3,2,1","NETTLE WEED,NETTLE WEED,THISTLE WEED,THISTLE WEED,THISTLE WEED,THISTLE WEED,THISTLE WEED,THISTLE WEED","20,20,20,20,20,20,20,20","20,20,20,20,20,20,20,20","10,10,10,10,10,10,10,10","20,20,20,20,20,20,20,20","0,0,0,0,0,0,0,0","20,20,20,20,20,20,20,20","20,20,20,20,20,20,20,20","20,20,20,20,20,20,20,20","10,10,10,10,10,10,10,10","20,20,20,20,20,20,20,20","0,0,0,0,0,0,0,0","20,20,20,20,20,20,20,20","0,0,0,1,1,1,1,0","576,213,743,961,61,0,91,555","32.61348693082263,40.64269687957639,13.167320549005588,1.9118355419987323,-21.142729218039985,-17.45488904410112,14.426346200254795,39.16033311377528","20.937398528296292,14.646681986177093,55.407992916408006,-18.142935775144696,15.619444433224208,33.9119153979297,15.943229615915413,37.729595764171805","0","0"
"89","86","text","0","191","1427987","0-0","","","","","","","","","","","","","","","","","","","","","","","","","","","","","","","","","","","","",""
"","","plant-game","0","192","1431504","0-0","","200","120","2","CORN CROP","Left","200","120","2","NETTLE WEED","experimental","83","1,2","120,118.93247330179156","2,1","CORN CROP,CORN CROP","120,119.51732135491788","2,1","NETTLE WEED,NETTLE WEED","20,20","20,20","10,10","20,20","0,0","20,20","20,20","20,20","10,10","20,20","0,0","20,20","0,0","791,142","-1.0675266982084395,18.400119005910536","-0.48267864508211744,-16.416849705539626","0","0"
"267","86","text","0","193","1431911","0-0","","","","","","","","","","","","","","","","","","","","","","","","","","","","","","","","","","","","",""
"","","plant-game","0","194","1438714","0-0","","200","190","2","CORN CROP","Right","200","120","4","NETTLE WEED","experimental","84","1,2,3,4","120,123.28383162811903,100.8269004056497,116.70782937785678","4,3,2,1","NETTLE WEED,NETTLE WEED,NETTLE WEED,NETTLE WEED","190,221.88481105718125,180,153.99340548240446","2,1,2,1","CORN CROP,CORN CROP,WHEAT CROP,WHEAT CROP","0,0,0,0","20,20,20,20","10,10,10,10","20,20,20,20","20,20,20,20","20,20,20,20","0,0,0,0","20,20,20,20","10,10,10,10","20,20,20,20","20,20,20,20","20,20,20,20","1,1,0,0","473,133,588,93","3.283831628119035,-22.456931222469336,15.88092897220709,-29.237280159594775","31.884811057181267,12.746599872656175,-26.006594517595538,-19.246122289274577","0","0"
"91","86","text","0","195","1438945","0-0","","","","","","","","","","","","","","","","","","","","","","","","","","","","","","","","","","","","",""
