"rt","key_press","trial_type","trial_index","trial_index_global","time_elapsed","internal_chunk_id","responses","experimental_goal_height","experimental_start_height","experimental_weeks_total","experimental_crop_type","experimental_crop_side","fixed_goal_height","fixed_start_height","fixed_weeks_total","fixed_crop_type","trial_kind","trial_number","stage","left_current_height","left_weeks_remaining","left_crop_type","right_current_height","right_weeks_remaining","right_crop_type","mean_left_growth_given_left","sd_left_growth_given_left","mean_left_growth_given_middle","sd_left_growth_given_middle","mean_left_growth_given_right","sd_left_growth_given_right","mean_right_growth_given_left","sd_right_growth_given_left","mean_right_growth_given_middle","sd_right_growth_given_middle","mean_right_growth_given_right","sd_right_growth_given_right","response","response_time","left_growth","right_growth","other_key_pressed","mouse_clicked"
"1642884","77","text","0","0","1642980","0-0","","","","","","","","","","","","","","","","","","","","","","","","","","","","","","","","","","","","",""
"4126","","survey-text","0","1","1648128","0-0","{""Q0"":""18""}","","","","","","","","","","","","","","","","","","","","","","","","","","","","","","","","","","","",""
"3847","86","text","0","2","3956","0-0","","","","","","","","","","","","","","","","","","","","","","","","","","","","","","","","","","","","",""
"","","plant-game","0","3","79853","0-0","","200","120","8","CORN CROP","Right","200","120","8","NETTLE WEED","practice","1","1,2,3,4,5,6,7,8","120,121.21509086815631,158.74215615682544,197.08196132338682,190.03555067372375,217.2774172850961,198.84152265775066,223.87168796898112","8,7,6,5,4,3,2,1","NETTLE WEED,NETTLE WEED,NETTLE WEED,NETTLE WEED,NETTLE WEED,NETTLE WEED,NETTLE WEED,NETTLE WEED","120,93.28723796657854,89.6913831320273,102.46444336430402,97.32418772156436,105.23725950380071,133.42999427389543,145.1242135294189","8,7,6,5,4,3,2,1","CORN CROP,CORN CROP,CORN CROP,CORN CROP,CORN CROP,CORN CROP,CORN CROP,CORN CROP","0,0,0,0,0,0,0,0","20,20,20,20,20,20,20,20","10,10,10,10,10,10,10,10","20,20,20,20,20,20,20,20","20,20,20,20,20,20,20,20","20,20,20,20,20,20,20,20","0,0,0,0,0,0,0,0","20,20,20,20,20,20,20,20","10,10,10,10,10,10,10,10","20,20,20,20,20,20,20,20","20,20,20,20,20,20,20,20","20,20,20,20,20,20,20,20","0,0,1,0,1,1,1,1","25545,6464,6991,7456,4592,1603,1646,1171","1.2150908681563046,37.527065288669135,38.339805166561376,-7.046410649663086,27.241866611372362,-18.435894627345455,25.030165311230462,31.63569778709089","-26.712762033421452,-3.5958548345512495,12.77306023227672,-5.140255642739655,7.913071782236365,28.192734770094717,11.694219255523464,46.70216014110299","0","1"
"930","86","text","0","4","80933","0-0","","","","","","","","","","","","","","","","","","","","","","","","","","","","","","","","","","","","",""
"","","plant-game","0","5","109305","0-0","","200","160","4","CORN CROP","Left","200","160","4","NETTLE WEED","practice","2","1,2,3,4","160,165.74298498689768,195.30652929209865,155.7162717522794","4,3,2,1","CORN CROP,CORN CROP,CORN CROP,CORN CROP","160,201.5603635322303,174.76625441779976,193.69812235548275","4,3,2,1","NETTLE WEED,NETTLE WEED,NETTLE WEED,NETTLE WEED","20,20,20,20","20,20,20,20","10,10,10,10","20,20,20,20","0,0,0,0","20,20,20,20","20,20,20,20","20,20,20,20","10,10,10,10","20,20,20,20","0,0,0,0","20,20,20,20","0,0,1,0","5228,1703,2466,2675","5.7429849868976905,29.56354430520097,-39.590257539819255,40.27760789388455","41.5603635322303,-26.794109114430526,18.931867937682988,30.6340585628514","0","0"
"468","86","text","0","6","109923","0-0","","","","","","","","","","","","","","","","","","","","","","","","","","","","","","","","","","","","",""
"","","plant-game","0","7","131099","0-0","","200","180","2","CORN CROP","Left","200","180","2","THISTLE WEED","practice","3","1,2","180,204.88477068201266","2,1","CORN CROP,CORN CROP","180,176.85205711778875","2,1","THISTLE WEED,THISTLE WEED","20,20","20,20","10,10","20,20","0,0","20,20","20,20","20,20","10,10","20,20","0,0","20,20","0,0","3250,2750","24.884770682012647,-0.5774650741734497","-3.1479428822112645,46.26996746625435","0","1"
"543","86","text","0","8","131752","0-0","","","","","","","","","","","","","","","","","","","","","","","","","","","","","","","","","","","","",""
"","","plant-game","0","9","155286","0-0","","200","190","1","CORN CROP","Left","200","190","1","THISTLE WEED","practice","4","1","190","1","CORN CROP","190","1","THISTLE WEED","20","20","10","20","0","20","20","20","10","20","0","20","1","14682","-1.5814174996741888","27.813556801174336","0","2"
"471","86","text","0","10","155909","0-0","","","","","","","","","","","","","","","","","","","","","","","","","","","","","","","","","","","","",""
"","","plant-game","0","11","175722","0-0","","200","120","8","CORN CROP","Left","200","160","8","THISTLE WEED","practice","5","1,2,3,4,5,6,7,8","120,114.0726140349795,130.11445800169736,148.0459748759564,192.47371411420698,240.35378417674553,238.6531913211087,230.74228034313128","8,7,6,5,4,3,2,1","CORN CROP,CORN CROP,CORN CROP,CORN CROP,CORN CROP,CORN CROP,CORN CROP,CORN CROP","160,164.05983722632692,207.3104853748649,226.65360258042375,229.32737627610953,239.68401916789827,243.33141416841184,247.20156681393087","8,7,6,5,4,3,2,1","THISTLE WEED,THISTLE WEED,THISTLE WEED,THISTLE WEED,THISTLE WEED,THISTLE WEED,THISTLE WEED,THISTLE WEED","20,20,20,20,20,20,20,20","20,20,20,20,20,20,20,20","10,10,10,10,10,10,10,10","20,20,20,20,20,20,20,20","0,0,0,0,0,0,0,0","20,20,20,20,20,20,20,20","20,20,20,20,20,20,20,20","20,20,20,20,20,20,20,20","10,10,10,10,10,10,10,10","20,20,20,20,20,20,20,20","0,0,0,0,0,0,0,0","20,20,20,20,20,20,20,20","0,0,0,0,0,1,1,0","3026,918,1056,783,1000,1777,1268,1235","-5.9273859650205125,16.04184396671786,17.931516874259053,44.42773923825058,47.880070062538536,-1.7005928556368288,-7.910910977977395,20.33684481004959","4.0598372263269304,43.25064814853798,19.343117205558862,2.6737736956857923,10.356642891788733,3.647395000513576,3.8701526455190134,-0.9594360510731406","0","0"
"377","86","text","0","12","176189","0-0","","","","","","","","","","","","","","","","","","","","","","","","","","","","","","","","","","","","",""
"","","plant-game","0","13","203365","0-0","","200","180","4","CORN CROP","Right","200","160","4","THISTLE WEED","practice","6","1,2,3,4","160,181.3318812873272,157.2025963272875,152.34302798502452","4,3,2,1","THISTLE WEED,THISTLE WEED,THISTLE WEED,THISTLE WEED","180,179.44998472051947,160.83508775058803,188.61033686470037","4,3,2,1","CORN CROP,CORN CROP,CORN CROP,CORN CROP","0,0,0,0","20,20,20,20","10,10,10,10","20,20,20,20","20,20,20,20","20,20,20,20","0,0,0,0","20,20,20,20","10,10,10,10","20,20,20,20","20,20,20,20","20,20,20,20","0,0,1,1","6321,7493,1894,1718","21.331881287327196,-24.12928496003972,-4.859568342262968,26.611706142987845","-0.5500152794805395,-18.614896969931433,27.77524911411234,14.527617133157568","1","0"
"507","86","text","0","14","204002","0-0","","","","","","","","","","","","","","","","","","","","","","","","","","","","","","","","","","","","",""
"","","plant-game","0","15","223141","0-0","","200","180","2","CORN CROP","Left","200","190","2","THISTLE WEED","practice","7","1,2","180,156.63885220250052","2,1","CORN CROP,CORN CROP","190,166.65487605917494","2,1","THISTLE WEED,THISTLE WEED","20,20","20,20","10,10","20,20","0,0","20,20","20,20","20,20","10,10","20,20","0,0","20,20","1,0","11113,725","-23.3611477974995,29.87285707919721","-23.345123940825058,12.022926985875932","0","0"
"346","86","text","0","16","223596","0-0","","","","","","","","","","","","","","","","","","","","","","","","","","","","","","","","","","","","",""
"","","plant-game","0","17","267775","0-0","","200","120","4","WHEAT CROP","Right","200","120","8","NETTLE WEED","practice","8","1,2,3,4,5,6,7,8","120,120.46590572538301,146.04500022340386,161.10790424480885,156.01640325569815,188.41578830913397,223.12951476074394,255.28811981572736","8,7,6,5,4,3,2,1","NETTLE WEED,NETTLE WEED,NETTLE WEED,NETTLE WEED,NETTLE WEED,NETTLE WEED,NETTLE WEED,NETTLE WEED","120,121.04577333038873,164.69486992685137,207.0005655455757,160,161.16523603223413,184.91850140609793,176.70840613389691","4,3,2,1,4,3,2,1","WHEAT CROP,WHEAT CROP,WHEAT CROP,WHEAT CROP,CORN CROP,CORN CROP,CORN CROP,CORN CROP","0,0,0,0,0,0,0,0","20,20,20,20,20,20,20,20","10,10,10,10,10,10,10,10","20,20,20,20,20,20,20,20","20,20,20,20,20,20,20,20","20,20,20,20,20,20,20,20","0,0,0,0,0,0,0,0","20,20,20,20,20,20,20,20","10,10,10,10,10,10,10,10","20,20,20,20,20,20,20,20","20,20,20,20,20,20,20,20","20,20,20,20,20,20,20,20","1,1,1,1,1,1,1,1","4845,1596,870,6187,6907,1253,863,1290","0.4659057253830028,25.579094498020837,15.062904021404982,-5.09150098911071,32.399385053435836,34.713726451609965,32.15860505498341,16.80518151452399","1.045773330388723,43.64909659646264,42.30569561872434,30.1632016578431,1.165236032234123,23.753265373863794,-8.210095272201016,24.26539703743256","0","0"
"560","86","text","0","18","268432","0-0","","","","","","","","","","","","","","","","","","","","","","","","","","","","","","","","","","","","",""
"","","plant-game","0","19","301774","0-0","","200","160","4","WHEAT CROP","Left","200","160","2","NETTLE WEED","practice","9","1,2,3,4","160,187.45496291016167,225.90999906716848,176.85147256647704","4,3,2,1","WHEAT CROP,WHEAT CROP,WHEAT CROP,WHEAT CROP","160,175.49103025712844,180,172.43425352952292","2,1,2,1","NETTLE WEED,NETTLE WEED,THISTLE WEED,THISTLE WEED","20,20,20,20","20,20,20,20","10,10,10,10","20,20,20,20","0,0,0,0","20,20,20,20","20,20,20,20","20,20,20,20","10,10,10,10","20,20,20,20","0,0,0,0","20,20,20,20","0,0,1,0","4094,856,10178,5365","27.454962910161676,38.45503615700683,-49.058526500691436,23.002996531250325","15.491030257128433,24.854353528656787,-7.565746470477089,11.106243948873113","0","0"
"439","86","text","0","20","302322","0-0","","","","","","","","","","","","","","","","","","","","","","","","","","","","","","","","","","","","",""
"","","plant-game","0","21","324884","0-0","","200","180","2","CORN CROP","Right","200","180","1","THISTLE WEED","practice","10","1,2","180,190","1,1","THISTLE WEED,NETTLE WEED","180,164.8351644788685","2,1","CORN CROP,CORN CROP","0,0","20,20","10,10","20,20","20,20","20,20","0,0","20,20","10,10","20,20","20,20","20,20","0,1","7609,2006","25.79209629015412,57.23855945300105","-15.16483552113149,-4.063174876496628","0","1"
"210","86","text","0","22","325204","0-0","","","","","","","","","","","","","","","","","","","","","","","","","","","","","","","","","","","","",""
"","","plant-game","0","23","350337","0-0","","200","120","8","CORN CROP","Right","200","160","4","NETTLE WEED","practice","11","1,2,3,4,5,6,7,8","160,150.38807184159117,141.49978905820666,152.9275803372293,160,241.80652197344355,247.5776796227413,279.86620599707345","4,3,2,1,4,3,2,1","NETTLE WEED,NETTLE WEED,NETTLE WEED,NETTLE WEED,THISTLE WEED,THISTLE WEED,THISTLE WEED,THISTLE WEED","120,113.43391148715632,104.58148840714173,117.33785547657409,110.65348545066901,133.05466477855947,134.0994989496161,175.62540030852844","8,7,6,5,4,3,2,1","CORN CROP,CORN CROP,CORN CROP,CORN CROP,CORN CROP,CORN CROP,CORN CROP,CORN CROP","0,0,0,0,0,0,0,0","20,20,20,20,20,20,20,20","10,10,10,10,10,10,10,10","20,20,20,20,20,20,20,20","20,20,20,20,20,20,20,20","20,20,20,20,20,20,20,20","0,0,0,0,0,0,0,0","20,20,20,20,20,20,20,20","10,10,10,10,10,10,10,10","20,20,20,20,20,20,20,20","20,20,20,20,20,20,20,20","20,20,20,20,20,20,20,20","0,0,1,1,1,0,1,1","4056,1144,1616,911,879,971,610,500","-9.61192815840884,-8.888282783384515,11.427791279022648,10.601751003169746,81.80652197344355,5.771157649297757,32.28852637433217,26.43326806770762","-6.566088512843677,-8.852423080014596,12.756367069432361,-6.684370025905082,22.401179327890468,1.0448341710566313,41.525901358912336,31.463285225094783","0","0"
"117","86","text","0","24","350584","0-0","","","","","","","","","","","","","","","","","","","","","","","","","","","","","","","","","","","","",""
"","","plant-game","0","25","370181","0-0","","200","180","2","CORN CROP","Right","200","160","4","NETTLE WEED","practice","12","1,2,3,4","160,165.11066124684598,186.40051189587746,193.5972250608092","4,3,2,1","NETTLE WEED,NETTLE WEED,NETTLE WEED,NETTLE WEED","180,211.10102335677863,180,175.0073834903408","2,1,2,1","CORN CROP,CORN CROP,WHEAT CROP,WHEAT CROP","0,0,0,0","20,20,20,20","10,10,10,10","20,20,20,20","20,20,20,20","20,20,20,20","0,0,0,0","20,20,20,20","10,10,10,10","20,20,20,20","20,20,20,20","20,20,20,20","1,1,0,1","4636,1927,1139,2039","5.110661246845972,21.289850649031482,7.196713164931747,21.149364956664186","31.10102335677862,39.82395564855296,-4.992616509659193,2.33014535806004","0","0"
"127","86","text","0","26","370418","0-0","","","","","","","","","","","","","","","","","","","","","","","","","","","","","","","","","","","","",""
"10274","86","text","0","27","381845","0-0","","","","","","","","","","","","","","","","","","","","","","","","","","","","","","","","","","","","",""
"","","plant-game","0","28","421442","0-0","","200","180","1","CORN CROP","Left","200","160","8","THISTLE WEED","experimental","1","1,2,3,4,5,6,7,8","180,130,128.63303085255214,136.24315707875044,157.65697391219462,153.35700427230046,155.31011478927226,145.3946728769351","1,7,6,5,4,3,2,1","CORN CROP,WHEAT CROP,WHEAT CROP,WHEAT CROP,WHEAT CROP,WHEAT CROP,WHEAT CROP,WHEAT CROP","160,155.12610709160626,172.84171939011722,160.09271853162855,148.49897904863812,146.883189297517,137.99478962023798,114.07091506292673","8,7,6,5,4,3,2,1","THISTLE WEED,THISTLE WEED,THISTLE WEED,THISTLE WEED,THISTLE WEED,THISTLE WEED,THISTLE WEED,THISTLE WEED","20,20,20,20,20,20,20,20","20,20,20,20,20,20,20,20","10,10,10,10,10,10,10,10","20,20,20,20,20,20,20,20","0,0,0,0,0,0,0,0","20,20,20,20,20,20,20,20","20,20,20,20,20,20,20,20","20,20,20,20,20,20,20,20","10,10,10,10,10,10,10,10","20,20,20,20,20,20,20,20","0,0,0,0,0,0,0,0","20,20,20,20,20,20,20,20","0,0,1,1,1,1,1,0","13094,9800,1263,1470,1493,1514,3684,805","65.32311223622058,-1.3669691474478505,7.610126226198313,21.413816833444166,-4.299969639894144,1.9531105169718008,-9.915441912337172,12.846648293951526","-4.873892908393746,17.715612298510973,-12.749000858488667,-11.593739482990442,-1.6157897511211174,-8.888399677279002,-23.923874557311255,21.454666887578835","0","0"
"186","86","text","0","29","421706","0-0","","","","","","","","","","","","","","","","","","","","","","","","","","","","","","","","","","","","",""
"","","plant-game","0","30","442174","0-0","","200","160","8","CORN CROP","Left","200","190","8","NETTLE WEED","experimental","2","1,2,3,4,5,6,7,8","160,159.55583707959832,170.19781518094393,162.25904790824683,177.44404279346267,167.8767384434658,180.63390675536195,199.70851686987353","8,7,6,5,4,3,2,1","CORN CROP,CORN CROP,CORN CROP,CORN CROP,CORN CROP,CORN CROP,CORN CROP,CORN CROP","190,166.03766684858368,156.23140206046537,159.2915496925706,172.28693238969234,187.8628295125238,199.3057941966689,219.90806883010214","8,7,6,5,4,3,2,1","NETTLE WEED,NETTLE WEED,NETTLE WEED,NETTLE WEED,NETTLE WEED,NETTLE WEED,NETTLE WEED,NETTLE WEED","20,20,20,20,20,20,20,20","20,20,20,20,20,20,20,20","10,10,10,10,10,10,10,10","20,20,20,20,20,20,20,20","0,0,0,0,0,0,0,0","20,20,20,20,20,20,20,20","20,20,20,20,20,20,20,20","20,20,20,20,20,20,20,20","10,10,10,10,10,10,10,10","20,20,20,20,20,20,20,20","0,0,0,0,0,0,0,0","20,20,20,20,20,20,20,20","1,1,1,0,1,0,0,0","8969,1187,957,941,752,694,675,1022","-0.4441629204016845,10.64197810134562,-7.938767272697097,15.184994885215854,-9.567304349996869,12.757168311896143,19.07461011451159,56.678406404653906","-23.96233315141633,-9.806264788118321,3.060147632105247,12.995382697121716,15.575897122831455,11.442964684145108,20.60227463343323,23.311851633465327","0","0"
"273","86","text","0","31","442528","0-0","","","","","","","","","","","","","","","","","","","","","","","","","","","","","","","","","","","","",""
"","","plant-game","0","32","463292","0-0","","200","180","8","WHEAT CROP","Right","200","180","4","NETTLE WEED","experimental","3","1,2,3,4,5,6,7,8","180,165.26467081240853,153.6706111966879,110.60507014193185,160,188.38784139869645,196.29252460802775,224.68011952188152","4,3,2,1,4,3,2,1","NETTLE WEED,NETTLE WEED,NETTLE WEED,NETTLE WEED,THISTLE WEED,THISTLE WEED,THISTLE WEED,THISTLE WEED","180,185.66979220649617,211.3613975007398,250.21891234819225,248.61183624823684,238.06519392453393,209.47764787232128,235.70032189970058","8,7,6,5,4,3,2,1","WHEAT CROP,WHEAT CROP,WHEAT CROP,WHEAT CROP,WHEAT CROP,WHEAT CROP,WHEAT CROP,WHEAT CROP","0,0,0,0,0,0,0,0","20,20,20,20,20,20,20,20","10,10,10,10,10,10,10,10","20,20,20,20,20,20,20,20","20,20,20,20,20,20,20,20","20,20,20,20,20,20,20,20","0,0,0,0,0,0,0,0","20,20,20,20,20,20,20,20","10,10,10,10,10,10,10,10","20,20,20,20,20,20,20,20","20,20,20,20,20,20,20,20","20,20,20,20,20,20,20,20","0,0,0,0,0,0,1,1","7674,620,823,717,1404,640,549,2563","-14.735329187591464,-11.594059615720633,-43.06554105475605,17.5921155470146,28.387841398696448,7.904683209331289,28.387594913853775,18.97100729665612","5.669792206496166,25.69160529424362,38.857514847452435,-1.6070760999554004,-10.546642323702919,-28.587546052212637,26.22267402737931,17.45542074951091","0","0"
"86","86","text","0","33","463478","0-0","","","","","","","","","","","","","","","","","","","","","","","","","","","","","","","","","","","","",""
"","","plant-game","0","34","479148","0-0","","200","120","8","WHEAT CROP","Right","200","120","8","NETTLE WEED","experimental","4","1,2,3,4,5,6,7,8","120,161.39175671719812,177.16481357245672,215.8811738017413,208.81836000307393,214.00463432675735,189.64554480974493,195.79171895398036","8,7,6,5,4,3,2,1","NETTLE WEED,NETTLE WEED,NETTLE WEED,NETTLE WEED,NETTLE WEED,NETTLE WEED,NETTLE WEED,NETTLE WEED","120,169.0012018353425,236.89255481556611,260.8377260353275,256.183458681267,252.53446987247995,269.4582416820768,272.315367464501","8,7,6,5,4,3,2,1","WHEAT CROP,WHEAT CROP,WHEAT CROP,WHEAT CROP,WHEAT CROP,WHEAT CROP,WHEAT CROP,WHEAT CROP","0,0,0,0,0,0,0,0","20,20,20,20,20,20,20,20","10,10,10,10,10,10,10,10","20,20,20,20,20,20,20,20","20,20,20,20,20,20,20,20","20,20,20,20,20,20,20,20","0,0,0,0,0,0,0,0","20,20,20,20,20,20,20,20","10,10,10,10,10,10,10,10","20,20,20,20,20,20,20,20","20,20,20,20,20,20,20,20","20,20,20,20,20,20,20,20","1,1,1,0,0,0,0,0","5569,694,1132,558,446,557,983,706","41.39175671719812,15.773056855258613,38.71636022928459,-7.062813798667369,5.186274323683426,-24.35908951701242,6.146174144235438,3.1917746695089106","49.001201835342485,67.89135298022362,23.945171219761377,-4.6542673540604875,-3.6489888087870415,16.92377180959686,2.8571257824241747,57.03977796485055","0","0"
"370","86","text","0","35","479618","0-0","","","","","","","","","","","","","","","","","","","","","","","","","","","","","","","","","","","","",""
"","","plant-game","0","36","495037","0-0","","200","190","2","CORN CROP","Right","200","120","8","THISTLE WEED","experimental","5","1,2,3,4,5,6,7,8","120,126.39396406505068,145.32324186529524,156.8914513837723,142.64063366491703,161.31613785914388,201.38677062455213,218.25743130209423","8,7,6,5,4,3,2,1","THISTLE WEED,THISTLE WEED,THISTLE WEED,THISTLE WEED,THISTLE WEED,THISTLE WEED,THISTLE WEED,THISTLE WEED","190,208.2220108803714,140,152.73408149604737,169.8203144754671,182.4542631653475,169.91176713683558,212.6466037603701","2,1,6,5,4,3,2,1","CORN CROP,CORN CROP,WHEAT CROP,WHEAT CROP,WHEAT CROP,WHEAT CROP,WHEAT CROP,WHEAT CROP","0,0,0,0,0,0,0,0","20,20,20,20,20,20,20,20","10,10,10,10,10,10,10,10","20,20,20,20,20,20,20,20","20,20,20,20,20,20,20,20","20,20,20,20,20,20,20,20","0,0,0,0,0,0,0,0","20,20,20,20,20,20,20,20","10,10,10,10,10,10,10,10","20,20,20,20,20,20,20,20","20,20,20,20,20,20,20,20","20,20,20,20,20,20,20,20","1,1,1,1,1,1,1,1","2307,892,2584,716,593,452,1352,1285","6.393964065050689,18.929277800244563,11.568209518477063,-14.250817718855266,18.675504194226853,40.07063276540825,16.8706606775421,6.446062340396065","18.222010880371403,-3.3656618344653175,12.734081496047368,17.086232979419723,12.63394868988041,-12.542496028511934,42.73483662353452,57.38201337035766","0","0"
"93","86","text","0","37","495236","0-0","","","","","","","","","","","","","","","","","","","","","","","","","","","","","","","","","","","","",""
"","","plant-game","0","38","510194","0-0","","200","190","8","CORN CROP","Right","200","180","4","THISTLE WEED","experimental","6","1,2,3,4,5,6,7,8","180,164.83888220621503,152.35536911088235,146.64333443823887,160,162.45413838557965,199.289513278927,249.93950180012763","4,3,2,1,4,3,2,1","THISTLE WEED,THISTLE WEED,THISTLE WEED,THISTLE WEED,NETTLE WEED,NETTLE WEED,NETTLE WEED,NETTLE WEED","190,191.28406216289878,134.27999768761612,118.57489433652873,118.27744915097844,159.31367662604083,134.81120997390693,161.06699841905257","8,7,6,5,4,3,2,1","CORN CROP,CORN CROP,CORN CROP,CORN CROP,CORN CROP,CORN CROP,CORN CROP,CORN CROP","0,0,0,0,0,0,0,0","20,20,20,20,20,20,20,20","10,10,10,10,10,10,10,10","20,20,20,20,20,20,20,20","20,20,20,20,20,20,20,20","20,20,20,20,20,20,20,20","0,0,0,0,0,0,0,0","20,20,20,20,20,20,20,20","10,10,10,10,10,10,10,10","20,20,20,20,20,20,20,20","20,20,20,20,20,20,20,20","20,20,20,20,20,20,20,20","0,0,0,0,1,1,1,1","2814,583,633,2330,2200,490,580,613","-15.161117793784973,-12.483513095332697,-5.712034672643495,-1.8551635197654328,2.454138385579654,36.83537489334733,50.649988521200626,37.550578565907706","1.2840621628987872,-57.004064475282675,-15.705103351087386,-0.2974451855502842,41.036227475062404,-24.502466652133904,26.25578844514565,-4.599052577174724","0","0"
"333","86","text","0","39","510647","0-0","","","","","","","","","","","","","","","","","","","","","","","","","","","","","","","","","","","","",""
"","","plant-game","0","40","529054","0-0","","200","180","2","CORN CROP","Left","200","120","4","NETTLE WEED","experimental","7","1,2,3,4","180,193.07707882170664,180,239.72122150511174","2,1,2,1","CORN CROP,CORN CROP,WHEAT CROP,WHEAT CROP","120,144.12376764870163,163.35950387303393,195.97352508350957","4,3,2,1","NETTLE WEED,NETTLE WEED,NETTLE WEED,NETTLE WEED","20,20,20,20","20,20,20,20","10,10,10,10","20,20,20,20","0,0,0,0","20,20,20,20","20,20,20,20","20,20,20,20","10,10,10,10","20,20,20,20","0,0,0,0","20,20,20,20","0,0,0,0","4136,992,2966,5258","13.077078821706642,23.533102517160614,59.72122150511174,5.3505975771985135","24.12376764870164,19.235736224332307,32.61402121047563,13.38183084670575","0","0"
"310","86","text","0","41","529474","0-0","","","","","","","","","","","","","","","","","","","","","","","","","","","","","","","","","","","","",""
"","","plant-game","0","42","547030","0-0","","200","120","2","CORN CROP","Right","200","190","8","THISTLE WEED","experimental","8","1,2,3,4,5,6,7,8","190,183.0622077147479,198.44505219737945,215.5694096522072,259.1389361147878,281.35355386690964,287.0282565014039,274.5113269363635","8,7,6,5,4,3,2,1","THISTLE WEED,THISTLE WEED,THISTLE WEED,THISTLE WEED,THISTLE WEED,THISTLE WEED,THISTLE WEED,THISTLE WEED","120,114.64691830315701,140,133.72990415038865,156.778200125915,162.37076812982684,180.25526636284644,205.4355456107798","2,1,6,5,4,3,2,1","CORN CROP,CORN CROP,WHEAT CROP,WHEAT CROP,WHEAT CROP,WHEAT CROP,WHEAT CROP,WHEAT CROP","0,0,0,0,0,0,0,0","20,20,20,20,20,20,20,20","10,10,10,10,10,10,10,10","20,20,20,20,20,20,20,20","20,20,20,20,20,20,20,20","20,20,20,20,20,20,20,20","0,0,0,0,0,0,0,0","20,20,20,20,20,20,20,20","10,10,10,10,10,10,10,10","20,20,20,20,20,20,20,20","20,20,20,20,20,20,20,20","20,20,20,20,20,20,20,20","0,0,0,1,1,1,1,1","3545,692,1023,2291,363,500,563,959","-6.937792285252096,15.382844482631551,17.12435745482775,43.56952646258058,22.21461775212187,5.674702634494263,-12.516929565040414,13.770031823751658","-5.353081696842991,-12.278196845792346,-6.270095849611343,23.048295975526337,5.59256800391184,17.8844982330196,25.180279247933342,7.620446720276481","0","0"
"127","86","text","0","43","547307","0-0","","","","","","","","","","","","","","","","","","","","","","","","","","","","","","","","","","","","",""
"","","plant-game","0","44","559753","0-0","","200","190","4","CORN CROP","Right","200","120","1","NETTLE WEED","experimental","9","1,2,3,4","120,170,162.4248000257564,195.79954052693014","1,3,2,1","NETTLE WEED,THISTLE WEED,THISTLE WEED,THISTLE WEED","190,233.8572826000235,245.05867551579942,289.81233381993354","4,3,2,1","CORN CROP,CORN CROP,CORN CROP,CORN CROP","0,0,0,0","20,20,20,20","10,10,10,10","20,20,20,20","20,20,20,20","20,20,20,20","0,0,0,0","20,20,20,20","10,10,10,10","20,20,20,20","20,20,20,20","20,20,20,20","1,1,1,0","4494,1310,736,1273","-4.691348870047705,-7.575199974243581,33.37474050117374,-14.729228972917344","43.857282600023495,11.201392915775935,44.753658304134134,47.913233507576095","0","0"
"330","86","text","0","45","560233","0-0","","","","","","","","","","","","","","","","","","","","","","","","","","","","","","","","","","","","",""
"","","plant-game","0","46","573297","0-0","","200","160","8","CORN CROP","Right","200","160","2","NETTLE WEED","experimental","10","1,2,3,4,5,6,7,8","160,145.56263866503065,140,155.2254020102342,183.70906937997518,188.85428799628178,190.91657415184923,175.29925727999498","2,1,6,5,4,3,2,1","NETTLE WEED,NETTLE WEED,THISTLE WEED,THISTLE WEED,THISTLE WEED,THISTLE WEED,THISTLE WEED,THISTLE WEED","160,195.15133004382977,209.7734648288474,226.96275724546499,238.00083997439336,264.22365667557585,285.1251743194365,310.10086028089154","8,7,6,5,4,3,2,1","CORN CROP,CORN CROP,CORN CROP,CORN CROP,CORN CROP,CORN CROP,CORN CROP,CORN CROP","0,0,0,0,0,0,0,0","20,20,20,20,20,20,20,20","10,10,10,10,10,10,10,10","20,20,20,20,20,20,20,20","20,20,20,20,20,20,20,20","20,20,20,20,20,20,20,20","0,0,0,0,0,0,0,0","20,20,20,20,20,20,20,20","10,10,10,10,10,10,10,10","20,20,20,20,20,20,20,20","20,20,20,20,20,20,20,20","20,20,20,20,20,20,20,20","1,1,1,1,0,0,0,0","1626,764,2655,730,417,846,609,587","-14.437361334969346,20.764978329611242,15.225402010234198,28.483667369740985,5.14521861630662,2.0622861555674445,-15.617316871854259,-14.010018296403416","35.151330043829766,14.622134785017622,17.189292416617576,11.038082728928384,26.222816701182477,20.90151764386064,24.975685961455053,-0.9755791810042829","0","0"
"187","86","text","0","47","573604","0-0","","","","","","","","","","","","","","","","","","","","","","","","","","","","","","","","","","","","",""
"","","plant-game","0","48","582869","0-0","","200","120","2","CORN CROP","Left","200","190","2","NETTLE WEED","experimental","11","1,2","120,137.48112970697937","2,1","CORN CROP,CORN CROP","190,161.8067161742461","2,1","NETTLE WEED,NETTLE WEED","20,20","20,20","10,10","20,20","0,0","20,20","20,20","20,20","10,10","20,20","0,0","20,20","1,1","5221,639","17.481129706979363,-37.937066464716374","-28.193283825753902,-39.59153109126392","0","0"
"223","86","text","0","49","583170","0-0","","","","","","","","","","","","","","","","","","","","","","","","","","","","","","","","","","","","",""
"","","plant-game","0","50","596883","0-0","","200","160","8","CORN CROP","Right","200","120","1","THISTLE WEED","experimental","12","1,2,3,4,5,6,7,8","120,130,138.9730316004552,160.11665095261026,154.94749774397914,164.85061057827116,165.81397446390707,151.96688190086707","1,7,6,5,4,3,2,1","THISTLE WEED,NETTLE WEED,NETTLE WEED,NETTLE WEED,NETTLE WEED,NETTLE WEED,NETTLE WEED,NETTLE WEED","160,226.82754545942066,232.39572381002705,224.52771822338514,222.66307845603197,258.78998386289817,263.24141329455546,221.5363312827432","8,7,6,5,4,3,2,1","CORN CROP,CORN CROP,CORN CROP,CORN CROP,CORN CROP,CORN CROP,CORN CROP,CORN CROP","0,0,0,0,0,0,0,0","20,20,20,20,20,20,20,20","10,10,10,10,10,10,10,10","20,20,20,20,20,20,20,20","20,20,20,20,20,20,20,20","20,20,20,20,20,20,20,20","0,0,0,0,0,0,0,0","20,20,20,20,20,20,20,20","10,10,10,10,10,10,10,10","20,20,20,20,20,20,20,20","20,20,20,20,20,20,20,20","20,20,20,20,20,20,20,20","1,0,0,0,0,0,0,0","2968,2562,408,467,446,454,580,476","49.17561961510974,8.97303160045519,21.143619352155078,-5.169153208631117,9.903112834292019,0.963363885635915,-13.847092563040013,-15.180444025871857","66.82754545942066,5.568178350606384,-7.868005586641901,-1.864639767353178,36.12690540686618,4.451429431657308,-41.705082011812266,4.353961187455386","0","0"
"184","86","text","0","51","597157","0-0","","","","","","","","","","","","","","","","","","","","","","","","","","","","","","","","","","","","",""
"","","plant-game","0","52","603037","0-0","","200","180","1","WHEAT CROP","Right","200","160","1","THISTLE WEED","experimental","13","1","160","1","THISTLE WEED","180","1","WHEAT CROP","0","20","10","20","20","20","0","20","10","20","20","20","1","3327","11.376352817398928","36.69440956192564","0","0"
"140","86","text","0","53","603277","0-0","","","","","","","","","","","","","","","","","","","","","","","","","","","","","","","","","","","","",""
"","","plant-game","0","54","616922","0-0","","200","180","2","WHEAT CROP","Right","200","180","4","NETTLE WEED","experimental","14","1,2,3,4","180,197.38291305293544,225.874629113753,237.73117638005886","4,3,2,1","NETTLE WEED,NETTLE WEED,NETTLE WEED,NETTLE WEED","180,216.44017829145378,180,207.93233868228634","2,1,2,1","WHEAT CROP,WHEAT CROP,CORN CROP,CORN CROP","0,0,0,0","20,20,20,20","10,10,10,10","20,20,20,20","20,20,20,20","20,20,20,20","0,0,0,0","20,20,20,20","10,10,10,10","20,20,20,20","20,20,20,20","20,20,20,20","1,1,1,1","2284,2128,2199,791","17.382913052935436,28.49171606081756,11.856547266305848,24.75425451256548","36.440178291453776,-10.960003300773447,27.93233868228635,5.275768450654201","0","0"
"480","86","text","0","55","617532","0-0","","","","","","","","","","","","","","","","","","","","","","","","","","","","","","","","","","","","",""
"","","plant-game","0","56","626092","0-0","","200","160","2","CORN CROP","Right","200","160","1","NETTLE WEED","experimental","15","1,2","160,190","1,1","NETTLE WEED,THISTLE WEED","160,168.12948083704566","2,1","CORN CROP,CORN CROP","0,0","20,20","10,10","20,20","20,20","20,20","0,0","20,20","10,10","20,20","20,20","20,20","0,1","3471,1220","-53.627515706550206,62.96257374513468","8.12948083704567,11.354325093406676","0","0"
"90","86","text","0","57","626302","0-0","","","","","","","","","","","","","","","","","","","","","","","","","","","","","","","","","","","","",""
"","","plant-game","0","58","641109","0-0","","200","120","2","WHEAT CROP","Right","200","160","4","NETTLE WEED","experimental","16","1,2,3,4","160,144.80762071295433,195.30190733141882,218.0764806913432","4,3,2,1","NETTLE WEED,NETTLE WEED,NETTLE WEED,NETTLE WEED","120,101.39357838625725,180,167.51191030625648","2,1,2,1","WHEAT CROP,WHEAT CROP,CORN CROP,CORN CROP","0,0,0,0","20,20,20,20","10,10,10,10","20,20,20,20","20,20,20,20","20,20,20,20","0,0,0,0","20,20,20,20","10,10,10,10","20,20,20,20","20,20,20,20","20,20,20,20","0,0,1,1","6128,350,3114,786","-15.192379287045664,50.49428661846447,22.77457335992439,32.162912886646374","-18.606421613742757,7.094873199138063,-12.488089693743525,5.940722277252329","0","0"
"90","86","text","0","59","641319","0-0","","","","","","","","","","","","","","","","","","","","","","","","","","","","","","","","","","","","",""
"","","plant-game","0","60","660565","0-0","","200","160","8","CORN CROP","Left","200","190","2","NETTLE WEED","experimental","17","1,2,3,4,5,6,7,8","160,139.4155999651044,151.16078346090038,140.60215414702444,155.61670358039302,192.48635507195698,190.74413343325529,188.74433650579428","8,7,6,5,4,3,2,1","CORN CROP,CORN CROP,CORN CROP,CORN CROP,CORN CROP,CORN CROP,CORN CROP,CORN CROP","190,217.8547466582578,140,159.6352184359722,181.02476009882074,190.7966147426793,249.91976973153032,229.8018802228517","2,1,6,5,4,3,2,1","NETTLE WEED,NETTLE WEED,THISTLE WEED,THISTLE WEED,THISTLE WEED,THISTLE WEED,THISTLE WEED,THISTLE WEED","20,20,20,20,20,20,20,20","20,20,20,20,20,20,20,20","10,10,10,10,10,10,10,10","20,20,20,20,20,20,20,20","0,0,0,0,0,0,0,0","20,20,20,20,20,20,20,20","20,20,20,20,20,20,20,20","20,20,20,20,20,20,20,20","10,10,10,10,10,10,10,10","20,20,20,20,20,20,20,20","0,0,0,0,0,0,0,0","20,20,20,20,20,20,20,20","1,0,0,0,0,0,0,0","7726,1094,733,1687,507,1923,800,444","-20.584400034895594,11.745183495795974,-10.558629313875933,15.014549433368575,36.869651491563964,-1.742221638701686,-1.999796927460995,2.934090142643658","27.85474665825781,28.67951904142714,19.635218435972217,21.389541662848533,9.771854643858585,59.123154988851006,-20.11788950867861,5.727378169931846","0","0"
"114","86","text","0","61","660829","0-0","","","","","","","","","","","","","","","","","","","","","","","","","","","","","","","","","","","","",""
"","","plant-game","0","62","673172","0-0","","200","180","2","CORN CROP","Right","200","180","1","NETTLE WEED","experimental","18","1,2","180,190","1,1","NETTLE WEED,THISTLE WEED","180,164.53343017774006","2,1","CORN CROP,CORN CROP","0,0","20,20","10,10","20,20","20,20","20,20","0,0","20,20","10,10","20,20","20,20","20,20","0,0","2941,5027","0.4590669905642913,-4.294964565194674","-15.46656982225995,-11.1760376651828","0","0"
"86","86","text","0","63","673408","0-0","","","","","","","","","","","","","","","","","","","","","","","","","","","","","","","","","","","","",""
"","","plant-game","0","64","683709","0-0","","200","180","1","CORN CROP","Right","200","160","2","THISTLE WEED","experimental","19","1,2","160,200.37303643364442","2,1","THISTLE WEED,THISTLE WEED","180,190","1,1","CORN CROP,WHEAT CROP","0,0","20,20","10,10","20,20","20,20","20,20","0,0","20,20","10,10","20,20","20,20","20,20","1,1","3047,2323","40.37303643364443,35.10041389676681","19.484967294758462,37.89408570048971","0","0"
"180","86","text","0","65","684019","0-0","","","","","","","","","","","","","","","","","","","","","","","","","","","","","","","","","","","","",""
"","","plant-game","0","66","697429","0-0","","200","160","1","CORN CROP","Right","200","190","4","NETTLE WEED","experimental","20","1,2,3,4","190,205.49521275873562,248.13760667946408,285.5394039507025","4,3,2,1","NETTLE WEED,NETTLE WEED,NETTLE WEED,NETTLE WEED","160,170,200.43011381757503,189.65399081095197","1,3,2,1","CORN CROP,WHEAT CROP,WHEAT CROP,WHEAT CROP","0,0,0,0","20,20,20,20","10,10,10,10","20,20,20,20","20,20,20,20","20,20,20,20","0,0,0,0","20,20,20,20","10,10,10,10","20,20,20,20","20,20,20,20","20,20,20,20","0,1,1,1","5419,2685,726,214","15.495212758735617,42.642393920728466,37.40179727123838,18.738622119145727","26.116447412881275,30.430113817575037,-10.776123006623063,18.659684604594965","0","0"
"136","86","text","0","67","697695","0-0","","","","","","","","","","","","","","","","","","","","","","","","","","","","","","","","","","","","",""
"","","plant-game","0","68","709562","0-0","","200","190","4","WHEAT CROP","Right","200","120","2","NETTLE WEED","experimental","21","1,2,3,4","120,123.24760989995673,180,152.29946916382653","2,1,2,1","NETTLE WEED,NETTLE WEED,THISTLE WEED,THISTLE WEED","190,224.52259177931458,220.93402555476956,230.82689983340924","4,3,2,1","WHEAT CROP,WHEAT CROP,WHEAT CROP,WHEAT CROP","0,0,0,0","20,20,20,20","10,10,10,10","20,20,20,20","20,20,20,20","20,20,20,20","0,0,0,0","20,20,20,20","10,10,10,10","20,20,20,20","20,20,20,20","20,20,20,20","1,1,0,0","3302,1065,1877,580","3.2476098999567284,34.98677606088701,-27.700530836173485,11.180157270868472","34.52259177931458,-3.5885662245450334,9.892874278639692,-25.174529004304574","0","0"
"477","86","text","0","69","710179","0-0","","","","","","","","","","","","","","","","","","","","","","","","","","","","","","","","","","","","",""
"","","plant-game","0","70","724036","0-0","","200","190","4","CORN CROP","Right","200","160","2","NETTLE WEED","experimental","22","1,2,3,4","160,184.53054792786412,180,205.61338595552425","2,1,2,1","NETTLE WEED,NETTLE WEED,THISTLE WEED,THISTLE WEED","190,210.56009840770722,215.62958889156727,167.87677779468524","4,3,2,1","CORN CROP,CORN CROP,CORN CROP,CORN CROP","0,0,0,0","20,20,20,20","10,10,10,10","20,20,20,20","20,20,20,20","20,20,20,20","0,0,0,0","20,20,20,20","10,10,10,10","20,20,20,20","20,20,20,20","20,20,20,20","1,0,0,1","1317,4024,3253,917","24.530547927864106,13.971672703472759,25.613385955524258,44.87145915773936","20.560098407707212,5.069490483860043,-47.75281109688202,24.43724974035424","0","0"
"217","86","text","0","71","724353","0-0","","","","","","","","","","","","","","","","","","","","","","","","","","","","","","","","","","","","",""
"","","plant-game","0","72","739615","0-0","","200","160","1","CORN CROP","Left","200","120","8","NETTLE WEED","experimental","23","1,2,3,4,5,6,7,8","160,130,165.18783423637785,172.1214596638613,207.53208999562878,231.4956566964723,233.93994785775217,252.5261575897629","1,7,6,5,4,3,2,1","CORN CROP,WHEAT CROP,WHEAT CROP,WHEAT CROP,WHEAT CROP,WHEAT CROP,WHEAT CROP,WHEAT CROP","120,115.47083106449838,108.79409964742464,119.78736072497,119.88595262853815,129.46257332307158,137.94118440319045,159.84594284272978","8,7,6,5,4,3,2,1","NETTLE WEED,NETTLE WEED,NETTLE WEED,NETTLE WEED,NETTLE WEED,NETTLE WEED,NETTLE WEED,NETTLE WEED","20,20,20,20,20,20,20,20","20,20,20,20,20,20,20,20","10,10,10,10,10,10,10,10","20,20,20,20,20,20,20,20","0,0,0,0,0,0,0,0","20,20,20,20,20,20,20,20","20,20,20,20,20,20,20,20","20,20,20,20,20,20,20,20","10,10,10,10,10,10,10,10","20,20,20,20,20,20,20,20","0,0,0,0,0,0,0,0","20,20,20,20,20,20,20,20","0,0,0,0,0,0,0,0","6282,2599,446,283,411,210,143,117","8.343406015312846,35.18783423637787,6.933625427483435,35.41063033176751,23.963566700843522,2.444291161279864,18.58620973201072,-4.366460770431722","-4.52916893550162,-6.676731417073746,10.993261077545354,0.09859190356814906,9.576620694533426,8.478611080118881,21.90475843953934,7.298702386702768","0","0"
"194","86","text","0","73","739908","0-0","","","","","","","","","","","","","","","","","","","","","","","","","","","","","","","","","","","","",""
"","","plant-game","0","74","751682","0-0","","200","190","8","CORN CROP","Left","200","190","4","NETTLE WEED","experimental","24","1,2,3,4,5,6,7,8","190,204.36712160789722,259.61492740453843,295.30877438776275,284.9064859201105,348.389400333093,345.4134044544333,384.0070676908483","8,7,6,5,4,3,2,1","CORN CROP,CORN CROP,CORN CROP,CORN CROP,CORN CROP,CORN CROP,CORN CROP,CORN CROP","190,206.28252707081347,245.7182126733283,245.76390106729747,160,196.02526830572046,208.28351433443856,252.34363172899995","4,3,2,1,4,3,2,1","NETTLE WEED,NETTLE WEED,NETTLE WEED,NETTLE WEED,THISTLE WEED,THISTLE WEED,THISTLE WEED,THISTLE WEED","20,20,20,20,20,20,20,20","20,20,20,20,20,20,20,20","10,10,10,10,10,10,10,10","20,20,20,20,20,20,20,20","0,0,0,0,0,0,0,0","20,20,20,20,20,20,20,20","20,20,20,20,20,20,20,20","20,20,20,20,20,20,20,20","10,10,10,10,10,10,10,10","20,20,20,20,20,20,20,20","0,0,0,0,0,0,0,0","20,20,20,20,20,20,20,20","0,0,0,0,0,0,0,0","4207,439,279,130,937,508,445,536","14.367121607897216,55.24780579664121,35.69384698322433,-10.402288467652248,63.482914412982524,-2.9759958786597025,38.59366323641498,68.75793364232673","16.28252707081348,39.435685602514845,0.045688393969157914,5.247537685563202,36.02526830572046,12.258246028718117,44.06011739456139,7.371669958361437","0","0"
"133","86","text","0","75","751935","0-0","","","","","","","","","","","","","","","","","","","","","","","","","","","","","","","","","","","","",""
"","","plant-game","0","76","764725","0-0","","200","160","8","WHEAT CROP","Right","200","180","4","THISTLE WEED","experimental","25","1,2,3,4,5,6,7,8","180,241.39969597786097,277.25964388894,321.2193379113345,160,136.89864682619324,161.6268371255602,153.98787576500564","4,3,2,1,4,3,2,1","THISTLE WEED,THISTLE WEED,THISTLE WEED,THISTLE WEED,NETTLE WEED,NETTLE WEED,NETTLE WEED,NETTLE WEED","160,122.81937337035303,128.39613923204638,158.94115347383442,187.31247639457507,224.87647554329325,219.81186948113887,219.3660274395195","8,7,6,5,4,3,2,1","WHEAT CROP,WHEAT CROP,WHEAT CROP,WHEAT CROP,WHEAT CROP,WHEAT CROP,WHEAT CROP,WHEAT CROP","0,0,0,0,0,0,0,0","20,20,20,20,20,20,20,20","10,10,10,10,10,10,10,10","20,20,20,20,20,20,20,20","20,20,20,20,20,20,20,20","20,20,20,20,20,20,20,20","0,0,0,0,0,0,0,0","20,20,20,20,20,20,20,20","10,10,10,10,10,10,10,10","20,20,20,20,20,20,20,20","20,20,20,20,20,20,20,20","20,20,20,20,20,20,20,20","0,1,1,1,1,1,1,1","4426,787,340,400,1047,510,411,502","61.39969597786097,35.859947911079,43.95969402239452,25.11413022580174,-23.101353173806757,24.728190299366958,-7.638961360554546,12.891083240178045","-37.180626629646966,5.576765861693332,30.545014241788035,28.371322920740667,37.56399914871818,-5.064606062154393,-0.4458420416193647,24.09916230928063","0","0"
"157","86","text","0","77","765009","0-0","","","","","","","","","","","","","","","","","","","","","","","","","","","","","","","","","","","","",""
"","","plant-game","0","78","775981","0-0","","200","190","8","WHEAT CROP","Left","200","190","2","THISTLE WEED","experimental","26","1,2,3,4,5,6,7,8","190,204.24302148060175,233.50073313981304,236.42134356588542,257.2358152936793,250.33383838309086,251.70754830811822,322.1112527533146","8,7,6,5,4,3,2,1","WHEAT CROP,WHEAT CROP,WHEAT CROP,WHEAT CROP,WHEAT CROP,WHEAT CROP,WHEAT CROP,WHEAT CROP","190,225.59491924146428,140,159.44005223757452,192.29987605197041,173.13523446547447,190.64408765156432,208.01059641323306","2,1,6,5,4,3,2,1","THISTLE WEED,THISTLE WEED,NETTLE WEED,NETTLE WEED,NETTLE WEED,NETTLE WEED,NETTLE WEED,NETTLE WEED","20,20,20,20,20,20,20,20","20,20,20,20,20,20,20,20","10,10,10,10,10,10,10,10","20,20,20,20,20,20,20,20","0,0,0,0,0,0,0,0","20,20,20,20,20,20,20,20","20,20,20,20,20,20,20,20","20,20,20,20,20,20,20,20","10,10,10,10,10,10,10,10","20,20,20,20,20,20,20,20","0,0,0,0,0,0,0,0","20,20,20,20,20,20,20,20","0,0,0,0,0,0,0,1","2605,572,743,383,663,388,316,517","14.243021480601756,29.257711659211274,2.9206104260723897,20.814471727793872,-6.9019769105884485,1.3737099250273523,70.40370444519638,-16.724930736219008","35.594919241464275,10.940125733395519,19.44005223757451,32.85982381439589,-19.16464158649596,17.50885318608986,17.366508761668737,28.456062601186318","0","0"
"134","86","text","0","79","776255","0-0","","","","","","","","","","","","","","","","","","","","","","","","","","","","","","","","","","","","",""
"","","plant-game","0","80","788509","0-0","","200","180","1","CORN CROP","Left","200","190","4","NETTLE WEED","experimental","27","1,2,3,4","180,170,203.30764018941647,249.93910803293653","1,3,2,1","CORN CROP,WHEAT CROP,WHEAT CROP,WHEAT CROP","190,206.28819274862798,228.20524881305246,257.81311587732205","4,3,2,1","NETTLE WEED,NETTLE WEED,NETTLE WEED,NETTLE WEED","20,20,20,20","20,20,20,20","10,10,10,10","20,20,20,20","0,0,0,0","20,20,20,20","20,20,20,20","20,20,20,20","10,10,10,10","20,20,20,20","0,0,0,0","20,20,20,20","0,0,0,0","3868,3426,637,431","29.950617286510273,33.30764018941649,46.63146784352006,17.677775728520043","16.288192748627974,21.91705606442449,29.607867064269584,11.09266333428254","0","0"
"172","86","text","0","81","788801","0-0","","","","","","","","","","","","","","","","","","","","","","","","","","","","","","","","","","","","",""
"","","plant-game","0","82","804705","0-0","","200","160","4","WHEAT CROP","Right","200","180","8","THISTLE WEED","experimental","28","1,2,3,4,5,6,7,8","180,217.90845472847556,236.34110407764985,238.90135251375983,282.8870036100979,266.54071125000115,273.09237087391904,282.6246041714015","8,7,6,5,4,3,2,1","THISTLE WEED,THISTLE WEED,THISTLE WEED,THISTLE WEED,THISTLE WEED,THISTLE WEED,THISTLE WEED,THISTLE WEED","160,160.64147652070238,179.68215566758667,202.0592871487908,160,163.08810902564605,212.410844530521,220.7532550993419","4,3,2,1,4,3,2,1","WHEAT CROP,WHEAT CROP,WHEAT CROP,WHEAT CROP,CORN CROP,CORN CROP,CORN CROP,CORN CROP","0,0,0,0,0,0,0,0","20,20,20,20,20,20,20,20","10,10,10,10,10,10,10,10","20,20,20,20,20,20,20,20","20,20,20,20,20,20,20,20","20,20,20,20,20,20,20,20","0,0,0,0,0,0,0,0","20,20,20,20,20,20,20,20","10,10,10,10,10,10,10,10","20,20,20,20,20,20,20,20","20,20,20,20,20,20,20,20","20,20,20,20,20,20,20,20","1,1,1,1,1,1,1,1","2464,3479,667,376,3267,366,699,408","37.90845472847556,18.432649349174294,2.560248436109976,43.985651096338074,-16.34629236009677,6.55165962391791,9.532233297482415,45.36516582846509","0.6414765207023763,19.040679146884294,22.377131481204124,33.247577429525954,3.088109025646041,49.322735504874935,8.342410568820913,55.65610574451847","0","0"
"166","86","text","0","83","804991","0-0","","","","","","","","","","","","","","","","","","","","","","","","","","","","","","","","","","","","",""
"","","plant-game","0","84","814181","0-0","","200","120","8","WHEAT CROP","Right","200","160","8","NETTLE WEED","experimental","29","1,2,3,4,5,6,7,8","160,186.43527671318418,214.71527991197092,292.3235066532212,337.46703113648465,391.67414651450565,423.9992206094387,459.34562523086913","8,7,6,5,4,3,2,1","NETTLE WEED,NETTLE WEED,NETTLE WEED,NETTLE WEED,NETTLE WEED,NETTLE WEED,NETTLE WEED,NETTLE WEED","120,145.58103467672424,144.33081696854936,163.0730928021276,177.98577283775077,224.13882567600174,258.77751527349216,311.62460437052994","8,7,6,5,4,3,2,1","WHEAT CROP,WHEAT CROP,WHEAT CROP,WHEAT CROP,WHEAT CROP,WHEAT CROP,WHEAT CROP,WHEAT CROP","0,0,0,0,0,0,0,0","20,20,20,20,20,20,20,20","10,10,10,10,10,10,10,10","20,20,20,20,20,20,20,20","20,20,20,20,20,20,20,20","20,20,20,20,20,20,20,20","0,0,0,0,0,0,0,0","20,20,20,20,20,20,20,20","10,10,10,10,10,10,10,10","20,20,20,20,20,20,20,20","20,20,20,20,20,20,20,20","20,20,20,20,20,20,20,20","1,1,1,1,1,1,1,1","2755,322,440,468,347,1070,560,417","26.43527671318419,28.28000319878675,77.60822674125026,45.14352448326345,54.207115378021,32.325074094933,35.34640462143042,-32.88511821990583","25.581034676724247,-1.2502177081748869,18.74227583357825,14.912680035623161,46.153052838250964,34.63868959749039,52.847089097037774,20.984247477710777","0","0"
"35","86","text","0","85","814564","0-0","","","","","","","","","","","","","","","","","","","","","","","","","","","","","","","","","","","","",""
"","","plant-game","0","86","829558","0-0","","200","160","2","WHEAT CROP","Left","200","190","4","THISTLE WEED","experimental","30","1,2,3,4","160,176.28391197908056,180,182.89585238089035","2,1,2,1","WHEAT CROP,WHEAT CROP,CORN CROP,CORN CROP","190,203.82032749879178,176.4622171485764,208.15328634531772","4,3,2,1","THISTLE WEED,THISTLE WEED,THISTLE WEED,THISTLE WEED","20,20,20,20","20,20,20,20","10,10,10,10","20,20,20,20","0,0,0,0","20,20,20,20","20,20,20,20","20,20,20,20","10,10,10,10","20,20,20,20","0,0,0,0","20,20,20,20","1,1,0,1","6216,534,1297,800","16.283911979080553,6.876906657136392,2.8958523808903323,15.830114385574541","13.820327498791789,-27.35811035021538,31.691069196741328,-23.02488987229042","0","0"
"123","86","text","0","87","829801","0-0","","","","","","","","","","","","","","","","","","","","","","","","","","","","","","","","","","","","",""
"","","plant-game","0","88","841481","0-0","","200","160","2","WHEAT CROP","Left","200","120","4","NETTLE WEED","experimental","31","1,2,3,4","160,188.52650412722645,180,178.61247853408503","2,1,2,1","WHEAT CROP,WHEAT CROP,CORN CROP,CORN CROP","120,136.06602410221532,132.83364812959374,168.85756390315254","4,3,2,1","NETTLE WEED,NETTLE WEED,NETTLE WEED,NETTLE WEED","20,20,20,20","20,20,20,20","10,10,10,10","20,20,20,20","0,0,0,0","20,20,20,20","20,20,20,20","20,20,20,20","10,10,10,10","20,20,20,20","0,0,0,0","20,20,20,20","0,0,0,0","2485,536,2807,970","28.526504127226445,-1.2337466062191957,-1.3875214659149684,34.9451692047716","16.066024102215312,-3.2323759726215897,36.023915773558784,21.239210242384846","0","0"
"223","86","text","0","89","841824","0-0","","","","","","","","","","","","","","","","","","","","","","","","","","","","","","","","","","","","",""
"","","plant-game","0","90","848854","0-0","","200","160","1","CORN CROP","Left","200","160","1","THISTLE WEED","experimental","32","1","160","1","CORN CROP","160","1","THISTLE WEED","20","20","10","20","0","20","20","20","10","20","0","20","1","3867","17.330347090876025","-11.857916710322822","0","0"
"5517","86","text","0","91","854501","0-0","","","","","","","","","","","","","","","","","","","","","","","","","","","","","","","","","","","","",""
"","","plant-game","0","92","871825","0-0","","200","160","2","WHEAT CROP","Left","200","190","8","NETTLE WEED","experimental","33","1,2,3,4,5,6,7,8","160,186.82792372807958,140,130.52691422917493,150.81743046424546,183.0681598380491,214.80054978694352,250.21114039134767","2,1,6,5,4,3,2,1","WHEAT CROP,WHEAT CROP,CORN CROP,CORN CROP,CORN CROP,CORN CROP,CORN CROP,CORN CROP","190,196.88424053926627,225.79401549167483,227.05688003578143,249.63173526005903,239.9853530150955,263.8364633261995,286.67846531004966","8,7,6,5,4,3,2,1","NETTLE WEED,NETTLE WEED,NETTLE WEED,NETTLE WEED,NETTLE WEED,NETTLE WEED,NETTLE WEED,NETTLE WEED","20,20,20,20,20,20,20,20","20,20,20,20,20,20,20,20","10,10,10,10,10,10,10,10","20,20,20,20,20,20,20,20","0,0,0,0,0,0,0,0","20,20,20,20,20,20,20,20","20,20,20,20,20,20,20,20","20,20,20,20,20,20,20,20","10,10,10,10,10,10,10,10","20,20,20,20,20,20,20,20","0,0,0,0,0,0,0,0","20,20,20,20,20,20,20,20","0,0,0,1,0,0,0,0","5478,420,3563,650,1417,616,512,381","26.827923728079572,0.476816266123965,-9.473085770825076,20.290516235070534,32.250729373803644,31.732389948894415,35.41059060440415,17.883563917020524","6.884240539266287,28.909774952408554,1.262864544106602,22.574855224277613,-9.646382244963512,23.851110311104026,22.84200198385016,18.233114704774028","0","0"
"94","86","text","0","93","872039","0-0","","","","","","","","","","","","","","","","","","","","","","","","","","","","","","","","","","","","",""
"","","plant-game","0","94","881772","0-0","","200","180","8","CORN CROP","Left","200","190","4","THISTLE WEED","experimental","34","1,2,3,4,5,6,7,8","180,187.09640608182707,230.12237028421072,246.2223330924965,296.65191132320814,281.07036657429103,284.87113789311576,322.31930987009173","8,7,6,5,4,3,2,1","CORN CROP,CORN CROP,CORN CROP,CORN CROP,CORN CROP,CORN CROP,CORN CROP,CORN CROP","190,229.27231599730646,265.93216372851384,270.28646644482586,160,170.34234463648397,216.5795310327587,228.97230857935816","4,3,2,1,4,3,2,1","THISTLE WEED,THISTLE WEED,THISTLE WEED,THISTLE WEED,NETTLE WEED,NETTLE WEED,NETTLE WEED,NETTLE WEED","20,20,20,20,20,20,20,20","20,20,20,20,20,20,20,20","10,10,10,10,10,10,10,10","20,20,20,20,20,20,20,20","0,0,0,0,0,0,0,0","20,20,20,20,20,20,20,20","20,20,20,20,20,20,20,20","20,20,20,20,20,20,20,20","10,10,10,10,10,10,10,10","20,20,20,20,20,20,20,20","0,0,0,0,0,0,0,0","20,20,20,20,20,20,20,20","0,0,0,0,0,0,0,1","1936,584,613,110,850,554,370,936","7.096406081827073,43.02596420238365,16.099962808285802,50.42957823071162,-15.58154474891709,3.8007713188247436,37.44817197697596,-19.233669176511793","39.27231599730645,36.659847731207385,4.354302716311999,27.354395240195732,10.342344636483958,46.237186396274716,12.392777546599453,35.32405040640795","0","0"
"87","86","text","0","95","881939","0-0","","","","","","","","","","","","","","","","","","","","","","","","","","","","","","","","","","","","",""
"","","plant-game","0","96","892169","0-0","","200","190","1","CORN CROP","Left","200","120","8","THISTLE WEED","experimental","35","1,2,3,4,5,6,7,8","190,130,157.406146221326,195.55632319415895,212.98952123001263,197.12251158446045,219.61836677387944,236.59750074150955","1,7,6,5,4,3,2,1","CORN CROP,WHEAT CROP,WHEAT CROP,WHEAT CROP,WHEAT CROP,WHEAT CROP,WHEAT CROP,WHEAT CROP","120,124.24161409880482,195.5666477913123,236.36770686840447,273.45449741880634,285.03253968465066,311.25124227494473,306.630173779383","8,7,6,5,4,3,2,1","THISTLE WEED,THISTLE WEED,THISTLE WEED,THISTLE WEED,THISTLE WEED,THISTLE WEED,THISTLE WEED,THISTLE WEED","20,20,20,20,20,20,20,20","20,20,20,20,20,20,20,20","10,10,10,10,10,10,10,10","20,20,20,20,20,20,20,20","0,0,0,0,0,0,0,0","20,20,20,20,20,20,20,20","20,20,20,20,20,20,20,20","20,20,20,20,20,20,20,20","10,10,10,10,10,10,10,10","20,20,20,20,20,20,20,20","0,0,0,0,0,0,0,0","20,20,20,20,20,20,20,20","0,0,0,0,0,0,0,0","2669,1257,786,344,299,161,79,86","7.595624773430989,27.40614622132599,38.15017697283296,17.433198035853675,-15.867009645552173,22.495855189419,16.979133967630098,35.52840728466414","4.241614098804813,71.32503369250749,40.80105907709218,37.0867905504019,11.578042265844326,26.21870259029407,-4.621068495561765,5.501732686350502","0","0"
"160","86","text","0","97","892449","0-0","","","","","","","","","","","","","","","","","","","","","","","","","","","","","","","","","","","","",""
"","","plant-game","0","98","897568","0-0","","200","190","1","WHEAT CROP","Left","200","180","1","NETTLE WEED","experimental","36","1","190","1","WHEAT CROP","180","1","NETTLE WEED","20","20","10","20","0","20","20","20","10","20","0","20","0","1930","0.8005141352466048","-3.919582795156849","0","0"
"524","86","text","0","99","898202","0-0","","","","","","","","","","","","","","","","","","","","","","","","","","","","","","","","","","","","",""
"","","plant-game","0","100","908526","0-0","","200","120","1","CORN CROP","Right","200","190","2","NETTLE WEED","experimental","37","1,2","190,180.5022747860584","2,1","NETTLE WEED,NETTLE WEED","120,190","1,1","CORN CROP,WHEAT CROP","0,0","20,20","10,10","20,20","20,20","20,20","0,0","20,20","10,10","20,20","20,20","20,20","0,0","4950,783","-9.497725213941617,-5.9699070820850935","5.922322654868971,15.413382635088892","0","0"
"422","86","text","0","101","909068","0-0","","","","","","","","","","","","","","","","","","","","","","","","","","","","","","","","","","","","",""
"","","plant-game","0","102","919235","0-0","","200","180","2","WHEAT CROP","Left","200","160","4","THISTLE WEED","experimental","38","1,2,3,4","180,167.63822251423335,180,211.72783803531416","2,1,2,1","WHEAT CROP,WHEAT CROP,CORN CROP,CORN CROP","160,174.80345111090776,200.08912433233942,206.68194647795974","4,3,2,1","THISTLE WEED,THISTLE WEED,THISTLE WEED,THISTLE WEED","20,20,20,20","20,20,20,20","10,10,10,10","20,20,20,20","0,0,0,0","20,20,20,20","20,20,20,20","20,20,20,20","10,10,10,10","20,20,20,20","0,0,0,0","20,20,20,20","0,0,0,0","2530,402,2570,640","-12.361777485766666,24.750326516279944,31.72783803531418,47.690870086640146","14.803451110907764,25.285673221431665,6.592822145620312,48.92350324299139","0","0"
"431","86","text","0","103","919746","0-0","","","","","","","","","","","","","","","","","","","","","","","","","","","","","","","","","","","","",""
"","","plant-game","0","104","934823","0-0","","200","120","1","WHEAT CROP","Left","200","190","4","THISTLE WEED","experimental","39","1,2,3,4","120,170,190.03184472467785,183.74094743492986","1,3,2,1","WHEAT CROP,CORN CROP,CORN CROP,CORN CROP","190,165.94764264348987,173.05969006297497,150.8385472089397","4,3,2,1","THISTLE WEED,THISTLE WEED,THISTLE WEED,THISTLE WEED","20,20,20,20","20,20,20,20","10,10,10,10","20,20,20,20","0,0,0,0","20,20,20,20","20,20,20,20","20,20,20,20","10,10,10,10","20,20,20,20","0,0,0,0","20,20,20,20","1,1,1,1","8254,1053,791,1090","12.203313416131172,20.031844724677853,-6.29089728974798,-3.9893596671575393","-24.05235735651013,7.112047419485105,-22.22114285403527,-28.73470360203514","0","0"
"263","86","text","0","105","935149","0-0","","","","","","","","","","","","","","","","","","","","","","","","","","","","","","","","","","","","",""
"","","plant-game","0","106","947848","0-0","","200","180","4","WHEAT CROP","Right","200","190","1","NETTLE WEED","experimental","40","1,2,3,4","190,170,193.49428774448322,224.5089938893576","1,3,2,1","NETTLE WEED,THISTLE WEED,THISTLE WEED,THISTLE WEED","180,181.7264853045602,204.91621673691478,252.27223473969212","4,3,2,1","WHEAT CROP,WHEAT CROP,WHEAT CROP,WHEAT CROP","0,0,0,0","20,20,20,20","10,10,10,10","20,20,20,20","20,20,20,20","20,20,20,20","0,0,0,0","20,20,20,20","10,10,10,10","20,20,20,20","20,20,20,20","20,20,20,20","1,1,1,0","4543,2051,1332,830","31.976638944830157,23.494287744483206,31.014706144874403,-32.04500983666061","1.7264853045602244,23.18973143235457,47.35601800277735,19.91166615350931","0","0"
"870","86","text","0","107","948806","0-0","","","","","","","","","","","","","","","","","","","","","","","","","","","","","","","","","","","","",""
"","","plant-game","0","108","964248","0-0","","200","120","1","CORN CROP","Left","200","180","2","NETTLE WEED","experimental","41","1,2","120,190","1,1","CORN CROP,WHEAT CROP","180,159.95622060326738","2,1","NETTLE WEED,NETTLE WEED","20,20","20,20","10,10","20,20","0,0","20,20","20,20","20,20","10,10","20,20","0,0","20,20","1,0","4856,6179","-34.09853821896474,-0.24878732225521816","-20.043779396732624,36.601783712812605","0","0"
"410","86","text","0","109","964783","0-0","","","","","","","","","","","","","","","","","","","","","","","","","","","","","","","","","","","","",""
"","","plant-game","0","110","977767","0-0","","200","160","4","CORN CROP","Left","200","180","2","NETTLE WEED","experimental","42","1,2,3,4","160,148.58106245386443,101.5828213734228,125.26755048391136","4,3,2,1","CORN CROP,CORN CROP,CORN CROP,CORN CROP","180,177.8492624602921,180,195.93731005946017","2,1,2,1","NETTLE WEED,NETTLE WEED,THISTLE WEED,THISTLE WEED","20,20,20,20","20,20,20,20","10,10,10,10","20,20,20,20","0,0,0,0","20,20,20,20","20,20,20,20","20,20,20,20","10,10,10,10","20,20,20,20","0,0,0,0","20,20,20,20","1,1,1,1","4121,800,3211,710","-11.41893754613557,-46.99824108044163,23.684729110488565,-50.30365003591105","-2.1507375397079125,-13.794796269978306,15.937310059460172,4.132805336414036","0","0"
"270","86","text","0","111","978197","0-0","","","","","","","","","","","","","","","","","","","","","","","","","","","","","","","","","","","","",""
"","","plant-game","0","112","986773","0-0","","200","120","1","CORN CROP","Left","200","120","2","NETTLE WEED","experimental","43","1,2","120,190","1,1","CORN CROP,WHEAT CROP","120,129.52564781396586","2,1","NETTLE WEED,NETTLE WEED","20,20","20,20","10,10","20,20","0,0","20,20","20,20","20,20","10,10","20,20","0,0","20,20","1,0","3216,1671","13.051179907737625,9.968320406661297","9.52564781396585,22.836329173851347","0","0"
"454","86","text","0","113","987327","0-0","","","","","","","","","","","","","","","","","","","","","","","","","","","","","","","","","","","","",""
"","","plant-game","0","114","998314","0-0","","200","120","1","WHEAT CROP","Left","200","190","1","NETTLE WEED","experimental","44","1","120","1","WHEAT CROP","190","1","NETTLE WEED","20","20","10","20","0","20","20","20","10","20","0","20","1","7871","-10.019173339590932","-17.28785756171356","0","0"
"374","86","text","0","115","998829","0-0","","","","","","","","","","","","","","","","","","","","","","","","","","","","","","","","","","","","",""
"","","plant-game","0","116","1005650","0-0","","200","120","1","WHEAT CROP","Right","200","120","1","NETTLE WEED","experimental","45","1","120","1","NETTLE WEED","120","1","WHEAT CROP","0","20","10","20","20","20","0","20","10","20","20","20","0","4417","17.650996346212146","-12.24977134188753","0","0"
"217","86","text","0","117","1005930","0-0","","","","","","","","","","","","","","","","","","","","","","","","","","","","","","","","","","","","",""
"","","plant-game","0","118","1015177","0-0","","200","190","8","CORN CROP","Left","200","190","8","THISTLE WEED","experimental","46","1,2,3,4,5,6,7,8","190,214.03210131542218,272.46462542854704,293.9232182569975,284.9035474937239,327.48626239215474,349.9799497005595,390.1063672694914","8,7,6,5,4,3,2,1","CORN CROP,CORN CROP,CORN CROP,CORN CROP,CORN CROP,CORN CROP,CORN CROP,CORN CROP","190,197.4145487969419,234.59229215944603,258.00938818679,328.2715986644813,378.2228719074084,414.88867131909865,431.0045498471972","8,7,6,5,4,3,2,1","THISTLE WEED,THISTLE WEED,THISTLE WEED,THISTLE WEED,THISTLE WEED,THISTLE WEED,THISTLE WEED,THISTLE WEED","20,20,20,20,20,20,20,20","20,20,20,20,20,20,20,20","10,10,10,10,10,10,10,10","20,20,20,20,20,20,20,20","0,0,0,0,0,0,0,0","20,20,20,20,20,20,20,20","20,20,20,20,20,20,20,20","20,20,20,20,20,20,20,20","10,10,10,10,10,10,10,10","20,20,20,20,20,20,20,20","0,0,0,0,0,0,0,0","20,20,20,20,20,20,20,20","0,0,0,0,0,0,0,0","2718,995,463,1042,234,164,190,143","24.03210131542218,58.43252411312487,21.458592828450456,-9.019670763273574,42.58271489843084,22.493687308404745,40.1264175689319,18.765991399343964","7.4145487969418955,37.177743362504145,23.41709602734393,70.26221047769135,49.9512732429271,36.665799411690244,16.11587852809857,44.699489578034544","0","0"
"150","86","text","0","119","1015387","0-0","","","","","","","","","","","","","","","","","","","","","","","","","","","","","","","","","","","","",""
"","","plant-game","0","120","1028910","0-0","","200","180","8","WHEAT CROP","Left","200","120","4","THISTLE WEED","experimental","47","1,2,3,4,5,6,7,8","180,203.2068168280812,212.27991612563847,220.51612775595015,249.4867757269571,252.51502561128183,270.86852910442633,271.55646410196","8,7,6,5,4,3,2,1","WHEAT CROP,WHEAT CROP,WHEAT CROP,WHEAT CROP,WHEAT CROP,WHEAT CROP,WHEAT CROP,WHEAT CROP","120,132.90535644580365,176.9671182816059,173.0960934184007,160,165.24482149207583,182.8884235205718,211.4825636562201","4,3,2,1,4,3,2,1","THISTLE WEED,THISTLE WEED,THISTLE WEED,THISTLE WEED,NETTLE WEED,NETTLE WEED,NETTLE WEED,NETTLE WEED","20,20,20,20,20,20,20,20","20,20,20,20,20,20,20,20","10,10,10,10,10,10,10,10","20,20,20,20,20,20,20,20","0,0,0,0,0,0,0,0","20,20,20,20,20,20,20,20","20,20,20,20,20,20,20,20","20,20,20,20,20,20,20,20","10,10,10,10,10,10,10,10","20,20,20,20,20,20,20,20","0,0,0,0,0,0,0,0","20,20,20,20,20,20,20,20","0,0,1,1,1,1,1,1","1031,706,767,2660,1440,486,354,1666","23.206816828081212,9.073099297557256,8.236211630311672,28.97064797100695,3.0282498843247336,18.353503493144505,0.6879349975336524,-14.810236914761202","12.905356445803644,44.06176183580226,-3.8710248632052116,3.743502648825796,5.244821492075832,17.643602028495966,28.59414013564831,-29.232266575877283","0","0"
"194","86","text","0","121","1029214","0-0","","","","","","","","","","","","","","","","","","","","","","","","","","","","","","","","","","","","",""
"","","plant-game","0","122","1043647","0-0","","200","120","2","WHEAT CROP","Right","200","160","8","NETTLE WEED","experimental","48","1,2,3,4,5,6,7,8","160,205.71661103059398,246.59136900020007,305.2336026530477,375.5904899409581,410.5636617863671,408.6795155066728,457.319977822628","8,7,6,5,4,3,2,1","NETTLE WEED,NETTLE WEED,NETTLE WEED,NETTLE WEED,NETTLE WEED,NETTLE WEED,NETTLE WEED,NETTLE WEED","120,132.6160876572683,140,178.0376054430786,194.26631142367089,246.35168729491966,271.3553345063547,284.7701079985038","2,1,6,5,4,3,2,1","WHEAT CROP,WHEAT CROP,CORN CROP,CORN CROP,CORN CROP,CORN CROP,CORN CROP,CORN CROP","0,0,0,0,0,0,0,0","20,20,20,20,20,20,20,20","10,10,10,10,10,10,10,10","20,20,20,20,20,20,20,20","20,20,20,20,20,20,20,20","20,20,20,20,20,20,20,20","0,0,0,0,0,0,0,0","20,20,20,20,20,20,20,20","10,10,10,10,10,10,10,10","20,20,20,20,20,20,20,20","20,20,20,20,20,20,20,20","20,20,20,20,20,20,20,20","1,1,1,1,1,1,1,1","3273,4175,1183,510,327,100,103,73","45.716611030593995,40.87475796960609,58.642233652847594,70.35688728791041,34.97317184540903,-1.884146279694356,48.64046231595524,59.80070622187561","12.616087657268313,-6.2788459764863305,38.03760544307861,16.228705980592288,52.08537587124877,25.003647211435073,13.41477349214908,38.02965206853601","0","0"
"73","86","text","0","123","1043870","0-0","","","","","","","","","","","","","","","","","","","","","","","","","","","","","","","","","","","","",""
"","","plant-game","0","124","1053347","0-0","","200","160","4","CORN CROP","Left","200","120","4","THISTLE WEED","experimental","49","1,2,3,4","160,154.88149629341459,133.60700164068595,109.03424470311299","4,3,2,1","CORN CROP,CORN CROP,CORN CROP,CORN CROP","120,133.22977824912752,137.1194590390626,179.90881827157725","4,3,2,1","THISTLE WEED,THISTLE WEED,THISTLE WEED,THISTLE WEED","20,20,20,20","20,20,20,20","10,10,10,10","20,20,20,20","0,0,0,0","20,20,20,20","20,20,20,20","20,20,20,20","10,10,10,10","20,20,20,20","0,0,0,0","20,20,20,20","0,1,0,1","1280,2558,1575,1324","-5.118503706585425,-21.274494652728627,-24.572756937572954,12.890716437212442","13.229778249127527,3.8896807899350856,42.78935923251464,-27.698818749125106","0","0"
"277","86","text","0","125","1053684","0-0","","","","","","","","","","","","","","","","","","","","","","","","","","","","","","","","","","","","",""
"","","plant-game","0","126","1066881","0-0","","200","180","8","WHEAT CROP","Right","200","160","1","NETTLE WEED","experimental","50","1,2,3,4,5,6,7,8","160,130,161.0219510558688,166.9957233406801,210.46156370823567,246.63942588975823,239.21879660058843,249.14347930623637","1,7,6,5,4,3,2,1","NETTLE WEED,THISTLE WEED,THISTLE WEED,THISTLE WEED,THISTLE WEED,THISTLE WEED,THISTLE WEED,THISTLE WEED","180,220.33959610668796,198.73355002393362,199.95725646816933,176.60970341477486,208.0072522115376,260.7024330317105,285.0430818616571","8,7,6,5,4,3,2,1","WHEAT CROP,WHEAT CROP,WHEAT CROP,WHEAT CROP,WHEAT CROP,WHEAT CROP,WHEAT CROP,WHEAT CROP","0,0,0,0,0,0,0,0","20,20,20,20,20,20,20,20","10,10,10,10,10,10,10,10","20,20,20,20,20,20,20,20","20,20,20,20,20,20,20,20","20,20,20,20,20,20,20,20","0,0,0,0,0,0,0,0","20,20,20,20,20,20,20,20","10,10,10,10,10,10,10,10","20,20,20,20,20,20,20,20","20,20,20,20,20,20,20,20","20,20,20,20,20,20,20,20","1,0,1,1,1,1,1,1","3139,2702,608,681,931,743,423,273","22.06703993133771,31.0219510558688,5.973772284811275,43.46584036755558,36.17786218152254,-7.420629289169803,9.924682705647946,42.59497845111891","40.33959610668796,-21.60604608275436,1.223706444235706,-23.347553053394492,31.39754879676276,52.695180820172894,24.340648829946588,20.895105129226415","0","0"
"73","86","text","0","127","1067064","0-0","","","","","","","","","","","","","","","","","","","","","","","","","","","","","","","","","","","","",""
"","","plant-game","0","128","1076815","0-0","","200","180","8","WHEAT CROP","Left","200","190","1","NETTLE WEED","experimental","51","1,2,3,4,5,6,7,8","180,188.76081237737236,209.86514807630593,220.26745922322456,256.9801109619644,282.6098304495149,281.4909290914226,292.31254125591767","8,7,6,5,4,3,2,1","WHEAT CROP,WHEAT CROP,WHEAT CROP,WHEAT CROP,WHEAT CROP,WHEAT CROP,WHEAT CROP,WHEAT CROP","190,130,150.05066227421602,147.41579770781786,179.87846763237906,173.68301790865846,172.80051507926348,197.40723515689623","1,7,6,5,4,3,2,1","NETTLE WEED,THISTLE WEED,THISTLE WEED,THISTLE WEED,THISTLE WEED,THISTLE WEED,THISTLE WEED,THISTLE WEED","20,20,20,20,20,20,20,20","20,20,20,20,20,20,20,20","10,10,10,10,10,10,10,10","20,20,20,20,20,20,20,20","0,0,0,0,0,0,0,0","20,20,20,20,20,20,20,20","20,20,20,20,20,20,20,20","20,20,20,20,20,20,20,20","10,10,10,10,10,10,10,10","20,20,20,20,20,20,20,20","0,0,0,0,0,0,0,0","20,20,20,20,20,20,20,20","0,0,0,0,1,1,1,1","2119,554,498,372,380,426,302,278","8.760812377372375,21.104335698933568,10.402311146918628,36.712651738739815,25.62971948755052,-1.1189013580923106,10.821612164495116,20.418542639897","30.68376381512691,20.050662274216034,-2.6348645663981607,32.462669924561204,-6.195449723720592,-0.8825028293949827,24.606720077632755,10.686092046801878","0","0"
"174","86","text","0","129","1077089","0-0","","","","","","","","","","","","","","","","","","","","","","","","","","","","","","","","","","","","",""
"","","plant-game","0","130","1086339","0-0","","200","180","8","CORN CROP","Right","200","120","2","NETTLE WEED","experimental","52","1,2,3,4,5,6,7,8","120,165.23892171657826,140,121.37990359708574,105.14661758942658,125.5055457427987,118.46122008398505,116.7997632769644","2,1,6,5,4,3,2,1","NETTLE WEED,NETTLE WEED,THISTLE WEED,THISTLE WEED,THISTLE WEED,THISTLE WEED,THISTLE WEED,THISTLE WEED","180,199.65985055117508,237.1335388946784,252.35181597537192,241.21936247570994,219.419617672198,254.72740286623602,277.1204883318189","8,7,6,5,4,3,2,1","CORN CROP,CORN CROP,CORN CROP,CORN CROP,CORN CROP,CORN CROP,CORN CROP,CORN CROP","0,0,0,0,0,0,0,0","20,20,20,20,20,20,20,20","10,10,10,10,10,10,10,10","20,20,20,20,20,20,20,20","20,20,20,20,20,20,20,20","20,20,20,20,20,20,20,20","0,0,0,0,0,0,0,0","20,20,20,20,20,20,20,20","10,10,10,10,10,10,10,10","20,20,20,20,20,20,20,20","20,20,20,20,20,20,20,20","20,20,20,20,20,20,20,20","1,1,0,0,0,0,0,0","2205,320,1359,285,116,471,350,217","45.23892171657826,33.10959487631165,-18.620096402914253,-16.233286007659164,20.358928153372116,-7.044325658813645,-1.6614568070206621,22.149597927758563","19.659850551175094,37.4736883435033,15.218277080693527,-11.132453499661963,-21.799744803511953,35.307785194038026,22.393085465582875,29.915672943738247","0","0"
"126","86","text","0","131","1086615","0-0","","","","","","","","","","","","","","","","","","","","","","","","","","","","","","","","","","","","",""
"","","plant-game","0","132","1100275","0-0","","200","160","1","WHEAT CROP","Right","200","120","2","NETTLE WEED","experimental","53","1,2","120,164.66136997987238","2,1","NETTLE WEED,NETTLE WEED","160,190","1,1","WHEAT CROP,CORN CROP","0,0","20,20","10,10","20,20","20,20","20,20","0,0","20,20","10,10","20,20","20,20","20,20","1,1","6507,1610","44.66136997987238,32.115676210511396","7.646327526881169,30.864128790201484","0","0"
"572","86","text","0","133","1100962","0-0","","","","","","","","","","","","","","","","","","","","","","","","","","","","","","","","","","","","",""
"","","plant-game","0","134","1110948","0-0","","200","120","8","WHEAT CROP","Right","200","180","1","THISTLE WEED","experimental","54","1,2,3,4,5,6,7,8","180,130,148.5612500429092,159.5885670971546,201.1093541561745,217.66804272848867,245.84651406542537,258.9801963297469","1,7,6,5,4,3,2,1","THISTLE WEED,NETTLE WEED,NETTLE WEED,NETTLE WEED,NETTLE WEED,NETTLE WEED,NETTLE WEED,NETTLE WEED","120,112.54369118418761,125.94067347340054,148.78912920356487,171.32857655898226,195.3128618158915,190.92363816681996,205.05141735822826","8,7,6,5,4,3,2,1","WHEAT CROP,WHEAT CROP,WHEAT CROP,WHEAT CROP,WHEAT CROP,WHEAT CROP,WHEAT CROP,WHEAT CROP","0,0,0,0,0,0,0,0","20,20,20,20,20,20,20,20","10,10,10,10,10,10,10,10","20,20,20,20,20,20,20,20","20,20,20,20,20,20,20,20","20,20,20,20,20,20,20,20","0,0,0,0,0,0,0,0","20,20,20,20,20,20,20,20","10,10,10,10,10,10,10,10","20,20,20,20,20,20,20,20","20,20,20,20,20,20,20,20","20,20,20,20,20,20,20,20","0,1,1,1,1,1,1,1","2192,1660,264,310,455,280,592,438","1.5190515772798072,18.561250042909187,11.027317054245392,41.52078705901991,16.558688572314157,28.17847133693671,13.133682264321513,21.03242737126341","-7.456308815812395,13.396982289212923,22.848455730164318,22.539447355417405,23.984285256909235,-4.389223649071546,14.127779191408312,26.370890201681124","0","0"
"114","86","text","0","135","1111192","0-0","","","","","","","","","","","","","","","","","","","","","","","","","","","","","","","","","","","","",""
"","","plant-game","0","136","1120158","0-0","","200","160","4","CORN CROP","Left","200","160","4","NETTLE WEED","experimental","55","1,2,3,4","160,164.2558975397724,176.4852033413029,166.6955885360525","4,3,2,1","CORN CROP,CORN CROP,CORN CROP,CORN CROP","160,173.30638744892684,204.45085715419435,190.35342543473843","4,3,2,1","NETTLE WEED,NETTLE WEED,NETTLE WEED,NETTLE WEED","20,20,20,20","20,20,20,20","10,10,10,10","20,20,20,20","0,0,0,0","20,20,20,20","20,20,20,20","20,20,20,20","10,10,10,10","20,20,20,20","0,0,0,0","20,20,20,20","0,0,0,0","3983,440,480,1077","4.255897539772404,12.22930580153049,-9.789614805250416,-17.186469385725673","13.306387448926849,31.144469705267497,-14.09743171945594,12.211096144232352","1","0"
"461","86","text","0","137","1120706","0-0","","","","","","","","","","","","","","","","","","","","","","","","","","","","","","","","","","","","",""
"","","plant-game","0","138","1131889","0-0","","200","180","4","WHEAT CROP","Left","200","160","8","NETTLE WEED","experimental","56","1,2,3,4,5,6,7,8","180,231.385930446602,263.5867782662055,296.23685618934167,160,189.55023166505597,195.4458270166269,195.3787112990827","4,3,2,1,4,3,2,1","WHEAT CROP,WHEAT CROP,WHEAT CROP,WHEAT CROP,CORN CROP,CORN CROP,CORN CROP,CORN CROP","160,209.11903872729565,237.03628692055875,256.9527451892854,250.0166597518959,237.4263661552818,244.64521370532339,245.03917843577995","8,7,6,5,4,3,2,1","NETTLE WEED,NETTLE WEED,NETTLE WEED,NETTLE WEED,NETTLE WEED,NETTLE WEED,NETTLE WEED,NETTLE WEED","20,20,20,20,20,20,20,20","20,20,20,20,20,20,20,20","10,10,10,10,10,10,10,10","20,20,20,20,20,20,20,20","0,0,0,0,0,0,0,0","20,20,20,20,20,20,20,20","20,20,20,20,20,20,20,20","20,20,20,20,20,20,20,20","10,10,10,10,10,10,10,10","20,20,20,20,20,20,20,20","0,0,0,0,0,0,0,0","20,20,20,20,20,20,20,20","0,0,0,1,1,1,1,1","1807,1453,343,700,679,668,573,397","51.38593044660202,32.200847819603496,32.65007792313617,-17.853075667861603,29.55023166505597,5.895595351570928,-0.0671157175441847,-28.745543888752053","49.119038727295646,27.91724819326311,19.916458268726622,-6.9360854373894965,-12.590293596614089,7.2188475500415805,0.3939647304565649,-6.286848099548398","0","0"
"160","86","text","0","139","1132129","0-0","","","","","","","","","","","","","","","","","","","","","","","","","","","","","","","","","","","","",""
"","","plant-game","0","140","1140612","0-0","","200","180","4","CORN CROP","Left","200","160","2","NETTLE WEED","experimental","57","1,2,3,4","180,215.3375222221982,194.5876597538406,242.5493602323215","4,3,2,1","CORN CROP,CORN CROP,CORN CROP,CORN CROP","160,191.16728565077224,180,195.96766517738436","2,1,2,1","NETTLE WEED,NETTLE WEED,THISTLE WEED,THISTLE WEED","20,20,20,20","20,20,20,20","10,10,10,10","20,20,20,20","0,0,0,0","20,20,20,20","20,20,20,20","20,20,20,20","10,10,10,10","20,20,20,20","0,0,0,0","20,20,20,20","0,1,0,0","897,1911,620,959","35.3375222221982,-20.749862468357616,47.96170047848091,14.377914746528022","31.167285650772254,20.288387325447612,15.96766517738437,21.217910637359743","0","0"
"160","86","text","0","141","1140852","0-0","","","","","","","","","","","","","","","","","","","","","","","","","","","","","","","","","","","","",""
"","","plant-game","0","142","1152835","0-0","","200","190","1","CORN CROP","Left","200","180","8","THISTLE WEED","experimental","58","1,2,3,4,5,6,7,8","190,130,129.14971451917722,146.27671493666782,148.29303315872286,154.19043673185215,191.27298378383995,196.99926817618527","1,7,6,5,4,3,2,1","CORN CROP,WHEAT CROP,WHEAT CROP,WHEAT CROP,WHEAT CROP,WHEAT CROP,WHEAT CROP,WHEAT CROP","180,213.25868557089976,248.00713269577975,260.4684608315862,289.74309073240437,326.23969871606937,378.5457391099975,378.3414614969172","8,7,6,5,4,3,2,1","THISTLE WEED,THISTLE WEED,THISTLE WEED,THISTLE WEED,THISTLE WEED,THISTLE WEED,THISTLE WEED,THISTLE WEED","20,20,20,20,20,20,20,20","20,20,20,20,20,20,20,20","10,10,10,10,10,10,10,10","20,20,20,20,20,20,20,20","0,0,0,0,0,0,0,0","20,20,20,20,20,20,20,20","20,20,20,20,20,20,20,20","20,20,20,20,20,20,20,20","10,10,10,10,10,10,10,10","20,20,20,20,20,20,20,20","0,0,0,0,0,0,0,0","20,20,20,20,20,20,20,20","0,0,0,0,0,0,0,0","2195,3072,425,396,384,276,314,336","13.32459575233839,-0.8502854808227838,17.127000417490596,2.016318222055041,5.897403573129283,37.0825470519878,5.72628439234532,45.9548007733284","33.25868557089976,34.748447124879995,12.46132813580643,29.274629900818177,36.49660798366502,52.30604039392816,-0.2042776130802828,10.870160417242019","0","0"
"77","86","text","0","143","1153002","0-0","","","","","","","","","","","","","","","","","","","","","","","","","","","","","","","","","","","","",""
"","","plant-game","0","144","1160819","0-0","","200","160","1","CORN CROP","Right","200","160","2","THISTLE WEED","experimental","59","1,2","160,187.10420028335082","2,1","THISTLE WEED,THISTLE WEED","160,190","1,1","CORN CROP,WHEAT CROP","0,0","20,20","10,10","20,20","20,20","20,20","0,0","20,20","10,10","20,20","20,20","20,20","0,0","2903,887","27.104200283350814,12.41424099552254","13.67153709150414,8.69828317125318","0","0"
"463","86","text","0","145","1161372","0-0","","","","","","","","","","","","","","","","","","","","","","","","","","","","","","","","","","","","",""
"","","plant-game","0","146","1167155","0-0","","200","180","1","CORN CROP","Left","200","120","1","NETTLE WEED","experimental","60","1","180","1","CORN CROP","120","1","NETTLE WEED","20","20","10","20","0","20","20","20","10","20","0","20","0","2608","16.636244258062476","11.134506019372443","0","0"
"440","86","text","0","147","1167725","0-0","","","","","","","","","","","","","","","","","","","","","","","","","","","","","","","","","","","","",""
"","","plant-game","0","148","1178790","0-0","","200","160","1","CORN CROP","Left","200","180","4","NETTLE WEED","experimental","61","1,2,3,4","160,170,205.14780179781917,210.12111564960944","1,3,2,1","CORN CROP,WHEAT CROP,WHEAT CROP,WHEAT CROP","180,195.95517195924884,209.9623159164392,230.37497307532774","4,3,2,1","NETTLE WEED,NETTLE WEED,NETTLE WEED,NETTLE WEED","20,20,20,20","20,20,20,20","10,10,10,10","20,20,20,20","0,0,0,0","20,20,20,20","20,20,20,20","20,20,20,20","10,10,10,10","20,20,20,20","0,0,0,0","20,20,20,20","1,0,0,0","3787,2012,1228,434","-16.963634125423038,35.147801797819184,4.973313851790277,6.882158465365604","15.955171959248835,14.007143957190344,20.412657158888553,53.61974587666736","1","0"
"369","86","text","0","149","1179290","0-0","","","","","","","","","","","","","","","","","","","","","","","","","","","","","","","","","","","","",""
"","","plant-game","0","150","1198810","0-0","","200","120","4","WHEAT CROP","Right","200","120","2","NETTLE WEED","experimental","62","1,2,3,4","120,156.6097975154802,180,180.14922040867737","2,1,2,1","NETTLE WEED,NETTLE WEED,THISTLE WEED,THISTLE WEED","120,142.13810895554786,169.77798012493108,157.50902046971737","4,3,2,1","WHEAT CROP,WHEAT CROP,WHEAT CROP,WHEAT CROP","0,0,0,0","20,20,20,20","10,10,10,10","20,20,20,20","20,20,20,20","20,20,20,20","0,0,0,0","20,20,20,20","10,10,10,10","20,20,20,20","20,20,20,20","20,20,20,20","1,1,1,1","1888,473,1370,674","36.60979751548021,30.53265721152234,0.14922040867736186,10.77781309566449","22.138108955547867,27.639871169383213,-12.268959655213699,43.33672797509962","0","0"
"540","86","text","0","151","1199460","0-0","","","","","","","","","","","","","","","","","","","","","","","","","","","","","","","","","","","","",""
"","","plant-game","0","152","1210687","0-0","","200","120","2","WHEAT CROP","Right","200","180","4","NETTLE WEED","experimental","63","1,2,3,4","180,190.31694369138725,217.78916002366063,242.97045462885853","4,3,2,1","NETTLE WEED,NETTLE WEED,NETTLE WEED,NETTLE WEED","120,88.68472505463598,180,209.20051132671625","2,1,2,1","WHEAT CROP,WHEAT CROP,CORN CROP,CORN CROP","0,0,0,0","20,20,20,20","10,10,10,10","20,20,20,20","20,20,20,20","20,20,20,20","0,0,0,0","20,20,20,20","10,10,10,10","20,20,20,20","20,20,20,20","20,20,20,20","0,0,1,1","5090,445,1505,652","10.316943691387264,27.472216332273387,25.18129460519792,14.608970025565975","-31.315274945364028,10.004897924271347,29.200511326716253,25.06136351078686","0","0"
"477","86","text","0","153","1211264","0-0","","","","","","","","","","","","","","","","","","","","","","","","","","","","","","","","","","","","",""
"","","plant-game","0","154","1216117","0-0","","200","180","4","WHEAT CROP","Right","200","190","4","THISTLE WEED","experimental","64","1,2,3,4","190,245.89520392150226,257.0065848602657,292.96903772546693","4,3,2,1","THISTLE WEED,THISTLE WEED,THISTLE WEED,THISTLE WEED","180,189.06596662639063,201.7529413325048,231.69092464106959","4,3,2,1","WHEAT CROP,WHEAT CROP,WHEAT CROP,WHEAT CROP","0,0,0,0","20,20,20,20","10,10,10,10","20,20,20,20","20,20,20,20","20,20,20,20","0,0,0,0","20,20,20,20","10,10,10,10","20,20,20,20","20,20,20,20","20,20,20,20","1,1,1,1","1376,521,398,379","55.895203921502265,11.111380938763471,35.962452865201186,38.91670552602466","9.065966626390622,12.686974706114164,29.93798330856477,9.493121678044464","0","0"
"2380","86","text","0","155","1218637","0-0","","","","","","","","","","","","","","","","","","","","","","","","","","","","","","","","","","","","",""
"","","plant-game","0","156","1230650","0-0","","200","120","8","CORN CROP","Right","200","160","4","THISTLE WEED","experimental","65","1,2,3,4,5,6,7,8","160,185.2965758058691,157.88416765396664,141.03739460228906,160,177.2950565624971,140.28635646106775,181.7634672371524","4,3,2,1,4,3,2,1","THISTLE WEED,THISTLE WEED,THISTLE WEED,THISTLE WEED,NETTLE WEED,NETTLE WEED,NETTLE WEED,NETTLE WEED","120,120.7001806428332,140.69255788978754,103.96995404482713,111.54120646675416,116.43057492672834,108.63206638400645,112.41318977425945","8,7,6,5,4,3,2,1","CORN CROP,CORN CROP,CORN CROP,CORN CROP,CORN CROP,CORN CROP,CORN CROP,CORN CROP","0,0,0,0,0,0,0,0","20,20,20,20,20,20,20,20","10,10,10,10,10,10,10,10","20,20,20,20,20,20,20,20","20,20,20,20,20,20,20,20","20,20,20,20,20,20,20,20","0,0,0,0,0,0,0,0","20,20,20,20,20,20,20,20","10,10,10,10,10,10,10,10","20,20,20,20,20,20,20,20","20,20,20,20,20,20,20,20","20,20,20,20,20,20,20,20","1,0,0,0,0,0,0,0","1203,2036,396,713,2950,303,400,390","25.296575805869104,-27.412408151902476,-16.846773051677594,16.51337531189827,17.295056562497113,-37.00870010142935,41.47711077608466,29.92188115867799","0.7001806428332031,19.99237724695433,-36.7226038449604,7.571252421927031,4.889368459974174,-7.798508542721894,3.781123390253001,8.404689663617026","0","0"
"484","86","text","0","157","1231214","0-0","","","","","","","","","","","","","","","","","","","","","","","","","","","","","","","","","","","","",""
"","","plant-game","0","158","1244064","0-0","","200","180","2","CORN CROP","Left","200","180","8","NETTLE WEED","experimental","66","1,2,3,4,5,6,7,8","180,180.36404157306634,140,168.12305518739902,170.22284832763162,187.1257596156116,200.427040500494,222.52001953580537","2,1,6,5,4,3,2,1","CORN CROP,CORN CROP,WHEAT CROP,WHEAT CROP,WHEAT CROP,WHEAT CROP,WHEAT CROP,WHEAT CROP","180,193.61569865343324,178.17103676242883,238.50714019801947,234.85648544413053,212.1862920112652,249.86053802500493,265.6151413334696","8,7,6,5,4,3,2,1","NETTLE WEED,NETTLE WEED,NETTLE WEED,NETTLE WEED,NETTLE WEED,NETTLE WEED,NETTLE WEED,NETTLE WEED","20,20,20,20,20,20,20,20","20,20,20,20,20,20,20,20","10,10,10,10,10,10,10,10","20,20,20,20,20,20,20,20","0,0,0,0,0,0,0,0","20,20,20,20,20,20,20,20","20,20,20,20,20,20,20,20","20,20,20,20,20,20,20,20","10,10,10,10,10,10,10,10","20,20,20,20,20,20,20,20","0,0,0,0,0,0,0,0","20,20,20,20,20,20,20,20","1,0,0,0,0,0,0,0","1753,3812,1047,1494,303,175,144,170","0.3640415730663505,4.987186752962545,28.123055187399018,2.099793140232613,16.90291128797998,13.301280884882392,22.092979035311366,51.27724080541428","13.615698653433249,-15.444661891004422,60.336103435590644,-3.6506547538889507,-22.670193432865318,37.67424601373972,15.754603308464645,16.802066905813334","0","0"
"167","86","text","0","159","1244331","0-0","","","","","","","","","","","","","","","","","","","","","","","","","","","","","","","","","","","","",""
"","","plant-game","0","160","1252868","0-0","","200","120","2","CORN CROP","Left","200","190","1","THISTLE WEED","experimental","67","1,2","120,145.41861176923192","2,1","CORN CROP,CORN CROP","190,190","1,1","THISTLE WEED,NETTLE WEED","20,20","20,20","10,10","20,20","0,0","20,20","20,20","20,20","10,10","20,20","0,0","20,20","1,1","3063,2457","25.41861176923193,-36.27046892022329","-29.55414161332633,19.593918995485687","0","0"
"407","86","text","0","161","1253385","0-0","","","","","","","","","","","","","","","","","","","","","","","","","","","","","","","","","","","","",""
"","","plant-game","0","162","1263292","0-0","","200","190","2","CORN CROP","Right","200","160","4","NETTLE WEED","experimental","68","1,2,3,4","160,160.61859752969414,143.96953210079357,171.75426125560438","4,3,2,1","NETTLE WEED,NETTLE WEED,NETTLE WEED,NETTLE WEED","190,261.9386073182324,180,185.04838042668584","2,1,2,1","CORN CROP,CORN CROP,WHEAT CROP,WHEAT CROP","0,0,0,0","20,20,20,20","10,10,10,10","20,20,20,20","20,20,20,20","20,20,20,20","0,0,0,0","20,20,20,20","10,10,10,10","20,20,20,20","20,20,20,20","20,20,20,20","1,1,1,1","3795,911,733,993","0.6185975296941351,-16.649065428900585,27.78472915481079,-3.0862484022132577","71.93860731823241,18.781371361799618,5.0483804266858385,1.0119579908338032","0","0"
"410","86","text","0","163","1263792","0-0","","","","","","","","","","","","","","","","","","","","","","","","","","","","","","","","","","","","",""
"","","plant-game","0","164","1273015","0-0","","200","180","4","CORN CROP","Left","200","190","2","NETTLE WEED","experimental","69","1,2,3,4","180,156.70408419822903,163.98932657363684,160.68839980975412","4,3,2,1","CORN CROP,CORN CROP,CORN CROP,CORN CROP","190,183.7020781509196,180,233.40607887162963","2,1,2,1","NETTLE WEED,NETTLE WEED,THISTLE WEED,THISTLE WEED","20,20,20,20","20,20,20,20","10,10,10,10","20,20,20,20","0,0,0,0","20,20,20,20","20,20,20,20","20,20,20,20","10,10,10,10","20,20,20,20","0,0,0,0","20,20,20,20","1,1,0,0","3500,384,510,1298","-23.295915801770974,7.285242375407821,-3.300926763882721,0.2988950685891787","-6.2979218490804145,-17.700588487266366,53.406078871629624,47.34486855770856","0","0"
"110","86","text","0","165","1273225","0-0","","","","","","","","","","","","","","","","","","","","","","","","","","","","","","","","","","","","",""
"","","plant-game","0","166","1280042","0-0","","200","180","1","WHEAT CROP","Left","200","120","2","THISTLE WEED","experimental","70","1,2","180,190","1,1","WHEAT CROP,CORN CROP","120,148.67357043949278","2,1","THISTLE WEED,THISTLE WEED","20,20","20,20","10,10","20,20","0,0","20,20","20,20","20,20","10,10","20,20","0,0","20,20","0,0","1913,1950","7.702017023267139,27.483677658552633","28.67357043949279,32.30124538665876","0","0"
"480","86","text","0","167","1280592","0-0","","","","","","","","","","","","","","","","","","","","","","","","","","","","","","","","","","","","",""
"","","plant-game","0","168","1295168","0-0","","200","180","4","CORN CROP","Right","200","120","8","NETTLE WEED","experimental","71","1,2,3,4,5,6,7,8","120,174.48492397455104,197.96580788498204,205.27675311555024,197.09133571831893,212.37791449347344,241.9372185504234,285.82500227830644","8,7,6,5,4,3,2,1","NETTLE WEED,NETTLE WEED,NETTLE WEED,NETTLE WEED,NETTLE WEED,NETTLE WEED,NETTLE WEED,NETTLE WEED","180,240.02064133913467,261.4836125593493,279.3554967204026,160,183.2250195451695,205.39291406601393,241.94862586153624","4,3,2,1,4,3,2,1","CORN CROP,CORN CROP,CORN CROP,CORN CROP,WHEAT CROP,WHEAT CROP,WHEAT CROP,WHEAT CROP","0,0,0,0,0,0,0,0","20,20,20,20,20,20,20,20","10,10,10,10,10,10,10,10","20,20,20,20,20,20,20,20","20,20,20,20,20,20,20,20","20,20,20,20,20,20,20,20","0,0,0,0,0,0,0,0","20,20,20,20,20,20,20,20","10,10,10,10,10,10,10,10","20,20,20,20,20,20,20,20","20,20,20,20,20,20,20,20","20,20,20,20,20,20,20,20","1,1,0,0,1,1,1,1","6158,598,390,546,2578,288,103,103","54.484923974551045,23.480883910431,7.3109452305681835,-8.18541739723129,15.286578775154505,29.559304056949962,43.88778372788305,16.300962535469445","60.02064133913467,21.462971220214637,17.87188416105327,9.717345632676055,23.225019545169495,22.167894520844442,36.5557117955223,-2.724858676225992","0","0"
"63","86","text","0","169","1295371","0-0","","","","","","","","","","","","","","","","","","","","","","","","","","","","","","","","","","","","",""
"","","plant-game","0","170","1302182","0-0","","200","180","2","WHEAT CROP","Left","200","190","1","NETTLE WEED","experimental","72","1,2","180,171.7276683983202","2,1","WHEAT CROP,WHEAT CROP","190,190","1,1","NETTLE WEED,THISTLE WEED","20,20","20,20","10,10","20,20","0,0","20,20","20,20","20,20","10,10","20,20","0,0","20,20","0,0","2702,510","-8.272331601679795,44.997725637465614","35.73424650802388,-36.60003055815868","0","0"
"414","86","text","0","171","1302726","0-0","","","","","","","","","","","","","","","","","","","","","","","","","","","","","","","","","","","","",""
"","","plant-game","0","172","1314359","0-0","","200","160","1","WHEAT CROP","Left","200","190","2","THISTLE WEED","experimental","73","1,2","160,190","1,1","WHEAT CROP,CORN CROP","190,168.80079720148308","2,1","THISTLE WEED,THISTLE WEED","20,20","20,20","10,10","20,20","0,0","20,20","20,20","20,20","10,10","20,20","0,0","20,20","0,0","5857,1186","8.383349538835843,1.5765099303932253","-21.19920279851692,41.507494995791575","3","0"
"520","86","text","0","173","1314989","0-0","","","","","","","","","","","","","","","","","","","","","","","","","","","","","","","","","","","","",""
"","","plant-game","0","174","1324015","0-0","","200","190","2","CORN CROP","Left","200","180","1","THISTLE WEED","experimental","74","1,2","190,232.56018910947665","2,1","CORN CROP,CORN CROP","180,190","1,1","THISTLE WEED,NETTLE WEED","20,20","20,20","10,10","20,20","0,0","20,20","20,20","20,20","10,10","20,20","0,0","20,20","0,1","1764,3739","42.56018910947666,-27.220713973382587","-13.75438841518524,24.645706355471656","0","0"
"143","86","text","0","175","1324308","0-0","","","","","","","","","","","","","","","","","","","","","","","","","","","","","","","","","","","","",""
"","","plant-game","0","176","1335122","0-0","","200","120","1","WHEAT CROP","Left","200","160","4","THISTLE WEED","experimental","75","1,2,3,4","120,170,192.79683481168487,211.31552815590504","1,3,2,1","WHEAT CROP,CORN CROP,CORN CROP,CORN CROP","160,213.2952283679502,228.0908431009795,246.328617037255","4,3,2,1","THISTLE WEED,THISTLE WEED,THISTLE WEED,THISTLE WEED","20,20,20,20","20,20,20,20","10,10,10,10","20,20,20,20","0,0,0,0","20,20,20,20","20,20,20,20","20,20,20,20","10,10,10,10","20,20,20,20","0,0,0,0","20,20,20,20","1,0,0,0","3766,2791,275,386","31.167889715709578,22.796834811684878,18.518693344220157,3.614335103529829","53.29522836795018,14.795614733029314,18.237773936275484,38.82177601590209","0","0"
"196","86","text","0","177","1335412","0-0","","","","","","","","","","","","","","","","","","","","","","","","","","","","","","","","","","","","",""
"","","plant-game","0","178","1344016","0-0","","200","190","2","CORN CROP","Right","200","180","4","THISTLE WEED","experimental","76","1,2,3,4","180,223.38534249392262,220.30588797207477,242.6800763153843","4,3,2,1","THISTLE WEED,THISTLE WEED,THISTLE WEED,THISTLE WEED","190,198.05270343870086,180,187.5739117718121","2,1,2,1","CORN CROP,CORN CROP,WHEAT CROP,WHEAT CROP","0,0,0,0","20,20,20,20","10,10,10,10","20,20,20,20","20,20,20,20","20,20,20,20","0,0,0,0","20,20,20,20","10,10,10,10","20,20,20,20","20,20,20,20","20,20,20,20","1,1,1,1","1918,743,1812,915","43.38534249392262,-3.079454521847854,22.374188343309523,-0.1020298567100042","8.052703438700853,7.609014211467471,7.573911771812099,26.74089409847497","0","0"
"103","86","text","0","179","1344249","0-0","","","","","","","","","","","","","","","","","","","","","","","","","","","","","","","","","","","","",""
"","","plant-game","0","180","1353532","0-0","","200","180","1","WHEAT CROP","Left","200","120","4","NETTLE WEED","experimental","77","1,2,3,4","180,170,206.88340478340646,201.17707999473956","1,3,2,1","WHEAT CROP,CORN CROP,CORN CROP,CORN CROP","120,138.84878003203326,131.11587861551382,128.71836146259398","4,3,2,1","NETTLE WEED,NETTLE WEED,NETTLE WEED,NETTLE WEED","20,20,20,20","20,20,20,20","10,10,10,10","20,20,20,20","0,0,0,0","20,20,20,20","20,20,20,20","20,20,20,20","10,10,10,10","20,20,20,20","0,0,0,0","20,20,20,20","0,0,0,0","2097,3107,326,380","53.37504924416076,36.88340478340646,-5.706324788666905,-5.362734604652353","18.84878003203327,-7.7329014165194465,-2.397517152919839,23.48816529596713","0","0"
"124","86","text","0","181","1353706","0-0","","","","","","","","","","","","","","","","","","","","","","","","","","","","","","","","","","","","",""
"","","plant-game","0","182","1360467","0-0","","200","180","4","WHEAT CROP","Right","200","180","4","NETTLE WEED","experimental","78","1,2,3,4","180,204.24974837431097,245.00536924034301,301.85754819387313","4,3,2,1","NETTLE WEED,NETTLE WEED,NETTLE WEED,NETTLE WEED","180,220.53830910964712,247.34682626894252,230.26632168789862","4,3,2,1","WHEAT CROP,WHEAT CROP,WHEAT CROP,WHEAT CROP","0,0,0,0","20,20,20,20","10,10,10,10","20,20,20,20","20,20,20,20","20,20,20,20","0,0,0,0","20,20,20,20","10,10,10,10","20,20,20,20","20,20,20,20","20,20,20,20","1,1,1,1","1371,874,530,1699","24.249748374310972,40.75562086603204,56.85217895353011,58.432637947727564","40.5383091096471,26.8085171592954,-17.080504581043897,23.810814514119738","0","0"
"92","86","text","0","183","1360682","0-0","","","","","","","","","","","","","","","","","","","","","","","","","","","","","","","","","","","","",""
"","","plant-game","0","184","1369005","0-0","","200","190","1","WHEAT CROP","Right","200","190","4","THISTLE WEED","experimental","79","1,2,3,4","190,218.8691206504704,240.46436925601716,224.26920568792795","4,3,2,1","THISTLE WEED,THISTLE WEED,THISTLE WEED,THISTLE WEED","190,170,169.19772689927345,167.00984991648477","1,3,2,1","WHEAT CROP,CORN CROP,CORN CROP,CORN CROP","0,0,0,0","20,20,20,20","10,10,10,10","20,20,20,20","20,20,20,20","20,20,20,20","0,0,0,0","20,20,20,20","10,10,10,10","20,20,20,20","20,20,20,20","20,20,20,20","1,1,1,1","1318,1891,1073,783","28.8691206504704,21.595248605546768,-16.195163568089207,-4.158156723674637","42.587881051366935,-0.8022731007265413,-2.187876982788673,14.785669984940935","0","0"
"180","86","text","0","185","1369345","0-0","","","","","","","","","","","","","","","","","","","","","","","","","","","","","","","","","","","","",""
"","","plant-game","0","186","1378498","0-0","","200","120","4","WHEAT CROP","Right","200","160","1","NETTLE WEED","experimental","80","1,2,3,4","160,170,177.2493078970215,176.07551372152471","1,3,2,1","NETTLE WEED,THISTLE WEED,THISTLE WEED,THISTLE WEED","120,150.38527447996148,163.4946202751725,179.8355104513951","4,3,2,1","WHEAT CROP,WHEAT CROP,WHEAT CROP,WHEAT CROP","0,0,0,0","20,20,20,20","10,10,10,10","20,20,20,20","20,20,20,20","20,20,20,20","0,0,0,0","20,20,20,20","10,10,10,10","20,20,20,20","20,20,20,20","20,20,20,20","1,0,0,0","2939,1433,540,427","2.7742159320700885,7.249307897021503,-1.1737941754968002,-6.279472754444052","30.38527447996149,13.109345795211027,16.34089017622258,-12.211105551422015","0","0"
"161","86","text","0","187","1378809","0-0","","","","","","","","","","","","","","","","","","","","","","","","","","","","","","","","","","","","",""
"","","plant-game","0","188","1389970","0-0","","200","160","8","CORN CROP","Left","200","160","8","THISTLE WEED","experimental","81","1,2,3,4,5,6,7,8","160,207.57077315367732,260.44500741070067,282.4563016520628,314.70312315282035,325.758073310847,351.2679308822268,402.4522093783107","8,7,6,5,4,3,2,1","CORN CROP,CORN CROP,CORN CROP,CORN CROP,CORN CROP,CORN CROP,CORN CROP,CORN CROP","160,174.3394278273336,212.66809323616565,208.2440607215014,199.13721308109453,208.92626711466554,194.83162893535894,239.7466629813787","8,7,6,5,4,3,2,1","THISTLE WEED,THISTLE WEED,THISTLE WEED,THISTLE WEED,THISTLE WEED,THISTLE WEED,THISTLE WEED,THISTLE WEED","20,20,20,20,20,20,20,20","20,20,20,20,20,20,20,20","10,10,10,10,10,10,10,10","20,20,20,20,20,20,20,20","0,0,0,0,0,0,0,0","20,20,20,20,20,20,20,20","20,20,20,20,20,20,20,20","20,20,20,20,20,20,20,20","10,10,10,10,10,10,10,10","20,20,20,20,20,20,20,20","0,0,0,0,0,0,0,0","20,20,20,20,20,20,20,20","0,0,1,1,1,1,1,1","1858,1921,1412,529,414,564,615,364","47.57077315367733,52.87423425702337,22.01129424136212,32.246821500757584,11.054950158026674,25.50985757137976,51.18427849608392,-20.737590346727714","14.339427827333603,38.328665408832066,-4.424032514664259,-9.106847640406864,9.78905403357101,-14.094638179306614,44.91503404601978,8.573722099104444","0","0"
"72","86","text","0","189","1390158","0-0","","","","","","","","","","","","","","","","","","","","","","","","","","","","","","","","","","","","",""
"","","plant-game","0","190","1402575","0-0","","200","180","1","WHEAT CROP","Right","200","180","8","THISTLE WEED","experimental","82","1,2,3,4,5,6,7,8","180,190.60030850586818,219.37656009318215,229.75412012947012,232.72375678874363,229.1939327056662,253.3939863843078,278.49375987474133","8,7,6,5,4,3,2,1","THISTLE WEED,THISTLE WEED,THISTLE WEED,THISTLE WEED,THISTLE WEED,THISTLE WEED,THISTLE WEED,THISTLE WEED","180,130,117.3906377175629,113.36453062822794,135.81429825150292,157.86612925706802,179.74371184152037,213.18584592327423","1,7,6,5,4,3,2,1","WHEAT CROP,CORN CROP,CORN CROP,CORN CROP,CORN CROP,CORN CROP,CORN CROP,CORN CROP","0,0,0,0,0,0,0,0","20,20,20,20,20,20,20,20","10,10,10,10,10,10,10,10","20,20,20,20,20,20,20,20","20,20,20,20,20,20,20,20","20,20,20,20,20,20,20,20","0,0,0,0,0,0,0,0","20,20,20,20,20,20,20,20","10,10,10,10,10,10,10,10","20,20,20,20,20,20,20,20","20,20,20,20,20,20,20,20","20,20,20,20,20,20,20,20","1,0,1,1,1,1,1,1","3277,2836,565,632,365,295,295,564","10.600308505868195,28.776251587313975,10.377560036287965,2.969636659273508,-3.5298240830774184,24.200053678641574,25.099773490433556,8.839114041555451","38.828140231377894,-12.6093622824371,-4.02610708933496,22.44976762327497,22.051831005565113,21.877582584452334,33.44213408175387,27.032762761199137","0","0"
"66","86","text","0","191","1402761","0-0","","","","","","","","","","","","","","","","","","","","","","","","","","","","","","","","","","","","",""
"","","plant-game","0","192","1410461","0-0","","200","180","2","WHEAT CROP","Right","200","160","1","NETTLE WEED","experimental","83","1,2","160,190","1,1","NETTLE WEED,THISTLE WEED","180,240.29695141146948","2,1","WHEAT CROP,WHEAT CROP","0,0","20,20","10,10","20,20","20,20","20,20","0,0","20,20","10,10","20,20","20,20","20,20","1,0","1853,2796","33.76992685302577,-9.980233534954717","60.29695141146948,13.463005326102017","0","0"
"484","86","text","0","193","1411065","0-0","","","","","","","","","","","","","","","","","","","","","","","","","","","","","","","","","","","","",""
"","","plant-game","0","194","1421130","0-0","","200","180","4","WHEAT CROP","Left","200","180","8","NETTLE WEED","experimental","84","1,2,3,4,5,6,7,8","180,179.72230803807304,173.7543413915564,187.42903227752484,160,149.61877930343695,153.11866151730618,191.70525928474768","4,3,2,1,4,3,2,1","WHEAT CROP,WHEAT CROP,WHEAT CROP,WHEAT CROP,CORN CROP,CORN CROP,CORN CROP,CORN CROP","180,173.60626116050366,226.37883841812695,259.4689239263064,287.69375934182176,289.36888784357757,322.67575193102186,364.2551864863299","8,7,6,5,4,3,2,1","NETTLE WEED,NETTLE WEED,NETTLE WEED,NETTLE WEED,NETTLE WEED,NETTLE WEED,NETTLE WEED,NETTLE WEED","20,20,20,20,20,20,20,20","20,20,20,20,20,20,20,20","10,10,10,10,10,10,10,10","20,20,20,20,20,20,20,20","0,0,0,0,0,0,0,0","20,20,20,20,20,20,20,20","20,20,20,20,20,20,20,20","20,20,20,20,20,20,20,20","10,10,10,10,10,10,10,10","20,20,20,20,20,20,20,20","0,0,0,0,0,0,0,0","20,20,20,20,20,20,20,20","0,0,0,0,0,0,0,0","1527,405,1092,569,1681,326,330,350","-0.27769196192697265,-5.967966646516636,13.67469088596843,52.46166308651985,-10.381220696563062,3.499882213869231,38.58659776744152,15.880665282674702","-6.3937388394963435,52.77257725762328,33.09008550817944,28.22483541551535,1.6751285017557862,33.3068640874443,41.579434555307984,10.663827881795463","0","0"
"73","86","text","0","195","1421323","0-0","","","","","","","","","","","","","","","","","","","","","","","","","","","","","","","","","","","","",""
