"rt","key_press","trial_type","trial_index","trial_index_global","time_elapsed","internal_chunk_id","responses","experimental_goal_height","experimental_start_height","experimental_weeks_total","experimental_crop_type","experimental_crop_side","fixed_goal_height","fixed_start_height","fixed_weeks_total","fixed_crop_type","trial_kind","trial_number","stage","left_current_height","left_weeks_remaining","left_crop_type","right_current_height","right_weeks_remaining","right_crop_type","mean_left_growth_given_left","sd_left_growth_given_left","mean_left_growth_given_middle","sd_left_growth_given_middle","mean_left_growth_given_right","sd_left_growth_given_right","mean_right_growth_given_left","sd_right_growth_given_left","mean_right_growth_given_middle","sd_right_growth_given_middle","mean_right_growth_given_right","sd_right_growth_given_right","response","response_time","left_growth","right_growth","other_key_pressed","mouse_clicked"
"9787798","87","text","0","0","9787893","0-0","","","","","","","","","","","","","","","","","","","","","","","","","","","","","","","","","","","","",""
"9780","","survey-text","0","1","9798709","0-0","{""Q0"":""17""}","","","","","","","","","","","","","","","","","","","","","","","","","","","","","","","","","","","",""
"4080","86","text","0","2","4221","0-0","","","","","","","","","","","","","","","","","","","","","","","","","","","","","","","","","","","","",""
"","","plant-game","0","3","99257","0-0","","200","120","8","WHEAT CROP","Right","200","120","8","THISTLE WEED","practice","1","1,2,3,4,5,6,7,8","120,140.7134945300304,131.36705493027168,127.22666239615015,145.36365015691592,151.90705910253206,156.81883453679097,133.7781449404445","8,7,6,5,4,3,2,1","THISTLE WEED,THISTLE WEED,THISTLE WEED,THISTLE WEED,THISTLE WEED,THISTLE WEED,THISTLE WEED,THISTLE WEED","120,118.57432235385349,133.51388917121506,160.5071828302539,193.1348459822058,218.5428787928885,223.7822020347695,227.3834149108949","8,7,6,5,4,3,2,1","WHEAT CROP,WHEAT CROP,WHEAT CROP,WHEAT CROP,WHEAT CROP,WHEAT CROP,WHEAT CROP,WHEAT CROP","0,0,0,0,0,0,0,0","20,20,20,20,20,20,20,20","10,10,10,10,10,10,10,10","20,20,20,20,20,20,20,20","20,20,20,20,20,20,20,20","20,20,20,20,20,20,20,20","0,0,0,0,0,0,0,0","20,20,20,20,20,20,20,20","10,10,10,10,10,10,10,10","20,20,20,20,20,20,20,20","20,20,20,20,20,20,20,20","20,20,20,20,20,20,20,20","1,0,1,0,1,0,0,0","23235,8902,7864,4929,4176,12676,3962,1259","20.713494530030392,-9.346439599758714,-4.140392534121528,18.13698776076579,6.543408945616147,4.911775434258901,-23.04068959634649,-15.090307749679972","-1.4256776461465108,14.93956681736156,26.99329365903883,32.62766315195191,25.408032810682705,5.239323241881014,3.6012128761254,-27.960382665289053","0","0"
"1312","86","text","0","4","100741","0-0","","","","","","","","","","","","","","","","","","","","","","","","","","","","","","","","","","","","",""
"","","plant-game","0","5","141624","0-0","","200","160","4","WHEAT CROP","Right","200","160","4","THISTLE WEED","practice","2","1,2,3,4","160,192.4409901591216,195.377694517403,186.5924624399107","4,3,2,1","THISTLE WEED,THISTLE WEED,THISTLE WEED,THISTLE WEED","160,157.09657467987697,182.92829109909252,207.02474832441956","4,3,2,1","WHEAT CROP,WHEAT CROP,WHEAT CROP,WHEAT CROP","0,0,0,0","20,20,20,20","10,10,10,10","20,20,20,20","20,20,20,20","20,20,20,20","0,0,0,0","20,20,20,20","10,10,10,10","20,20,20,20","20,20,20,20","20,20,20,20","1,0,0,0","6153,4778,5370,14038","32.4409901591216,2.936704358281392,-8.7852320774923,-9.15764197505784","-2.903425320123027,25.83171641921556,24.09645722532705,5.886985035752836","0","0"
"780","86","text","0","6","142560","0-0","","","","","","","","","","","","","","","","","","","","","","","","","","","","","","","","","","","","",""
"","","plant-game","0","7","164553","0-0","","200","180","2","WHEAT CROP","Right","200","180","2","THISTLE WEED","practice","3","1,2","180,207.05609429557742","2,1","THISTLE WEED,THISTLE WEED","180,160.32997999949208","2,1","WHEAT CROP,WHEAT CROP","0,0","20,20","10,10","20,20","20,20","20,20","0,0","20,20","10,10","20,20","20,20","20,20","1,0","8611,2890","27.056094295577413,-32.41207855535867","-19.670020000507932,-3.98735955739352","0","0"
"790","86","text","0","8","165463","0-0","","","","","","","","","","","","","","","","","","","","","","","","","","","","","","","","","","","","",""
"","","plant-game","0","9","190995","0-0","","200","190","1","WHEAT CROP","Left","200","190","1","THISTLE WEED","practice","4","1","190","1","WHEAT CROP","190","1","THISTLE WEED","20","20","10","20","0","20","20","20","10","20","0","20","1","12407","12.465353607712526","-16.880072927701548","0","0"
"756","86","text","0","10","191861","0-0","","","","","","","","","","","","","","","","","","","","","","","","","","","","","","","","","","","","",""
"","","plant-game","0","11","241356","0-0","","200","120","8","CORN CROP","Right","200","160","8","THISTLE WEED","practice","5","1,2,3,4,5,6,7,8","160,169.10887085937833,138.4552857595067,153.25706691578745,185.9223459015223,185.9690287380682,157.8637751547426,162.4170744355608","8,7,6,5,4,3,2,1","THISTLE WEED,THISTLE WEED,THISTLE WEED,THISTLE WEED,THISTLE WEED,THISTLE WEED,THISTLE WEED,THISTLE WEED","120,86.14221084989197,85.86214559853258,126.66573120846834,159.7555188334327,147.2222490997929,131.34507022303578,122.08465846742216","8,7,6,5,4,3,2,1","CORN CROP,CORN CROP,CORN CROP,CORN CROP,CORN CROP,CORN CROP,CORN CROP,CORN CROP","0,0,0,0,0,0,0,0","20,20,20,20,20,20,20,20","10,10,10,10,10,10,10,10","20,20,20,20,20,20,20,20","20,20,20,20,20,20,20,20","20,20,20,20,20,20,20,20","0,0,0,0,0,0,0,0","20,20,20,20,20,20,20,20","10,10,10,10,10,10,10,10","20,20,20,20,20,20,20,20","20,20,20,20,20,20,20,20","20,20,20,20,20,20,20,20","0,1,1,1,0,0,0,0","6294,6823,2925,4997,3099,2829,4247,1873","9.108870859378316,-30.653585099871634,14.801781156280759,32.66527898573486,0.04668283654590912,-28.10525358332562,4.553299280818221,24.842946450492573","-33.85778915010803,-0.280065251359396,40.803585609935766,33.08978762496434,-12.533269733639807,-15.877178876757103,-9.260411755613617,-37.27254101396367","0","0"
"824","86","text","0","12","242290","0-0","","","","","","","","","","","","","","","","","","","","","","","","","","","","","","","","","","","","",""
"","","plant-game","0","13","285228","0-0","","200","180","4","WHEAT CROP","Right","200","160","4","THISTLE WEED","practice","6","1,2,3,4","160,175.08426932531893,196.1795027204571,201.73756250225705","4,3,2,1","THISTLE WEED,THISTLE WEED,THISTLE WEED,THISTLE WEED","180,198.09221801562552,209.1569152890825,238.8616541038775","4,3,2,1","WHEAT CROP,WHEAT CROP,WHEAT CROP,WHEAT CROP","0,0,0,0","20,20,20,20","10,10,10,10","20,20,20,20","20,20,20,20","20,20,20,20","0,0,0,0","20,20,20,20","10,10,10,10","20,20,20,20","20,20,20,20","20,20,20,20","1,0,0,1","1174,4421,8819,3775","15.084269325318921,21.095233395138173,5.558059781799953,-21.31164982670228","18.092218015625534,11.064697273456982,29.704738814795,51.96095017490414","0","0"
"966","86","text","0","14","286254","0-0","","","","","","","","","","","","","","","","","","","","","","","","","","","","","","","","","","","","",""
"","","plant-game","0","15","311082","0-0","","200","180","2","CORN CROP","Left","200","190","2","NETTLE WEED","practice","7","1,2","180,209.04824925138112","2,1","CORN CROP,CORN CROP","190,162.98251988424911","2,1","NETTLE WEED,NETTLE WEED","20,20","20,20","10,10","20,20","0,0","20,20","20,20","20,20","10,10","20,20","0,0","20,20","1,1","8860,4347","29.04824925138113,-7.270205826330024","-27.017480115750896,-33.87161018542156","0","0"
"853","86","text","0","16","312085","0-0","","","","","","","","","","","","","","","","","","","","","","","","","","","","","","","","","","","","",""
"","","plant-game","0","17","362676","0-0","","200","120","4","WHEAT CROP","Left","200","120","8","THISTLE WEED","practice","8","1,2,3,4,5,6,7,8","120,137.78761645349138,188.52604129357096,148.32684469617996,160,160.47671882146204,187.94432738555184,189.36010957115212","4,3,2,1,4,3,2,1","WHEAT CROP,WHEAT CROP,WHEAT CROP,WHEAT CROP,CORN CROP,CORN CROP,CORN CROP,CORN CROP","120,111.77662754257335,73.99674198288001,81.17949369200376,105.9095122411247,111.41958728097642,141.67471368844153,141.10364966242372","8,7,6,5,4,3,2,1","THISTLE WEED,THISTLE WEED,THISTLE WEED,THISTLE WEED,THISTLE WEED,THISTLE WEED,THISTLE WEED,THISTLE WEED","20,20,20,20,20,20,20,20","20,20,20,20,20,20,20,20","10,10,10,10,10,10,10,10","20,20,20,20,20,20,20,20","0,0,0,0,0,0,0,0","20,20,20,20,20,20,20,20","20,20,20,20,20,20,20,20","20,20,20,20,20,20,20,20","10,10,10,10,10,10,10,10","20,20,20,20,20,20,20,20","0,0,0,0,0,0,0,0","20,20,20,20,20,20,20,20","1,1,1,0,1,0,1,1","3997,1556,3365,3516,10287,1622,2029,1100","17.787616453491385,50.73842484007958,-40.19919659739099,36.212258529952884,0.47671882146204303,27.467608564089815,1.4157821856002837,-2.992528638525152","-8.223372457426647,-37.77988555969334,7.182751709123753,24.73001854912094,5.510075039851711,30.255126407465113,-0.5710640260178184,-40.32789878161683","0","0"
"541","86","text","0","18","363358","0-0","","","","","","","","","","","","","","","","","","","","","","","","","","","","","","","","","","","","",""
"","","plant-game","0","19","404228","0-0","","200","160","4","CORN CROP","Right","200","160","2","THISTLE WEED","practice","9","1,2,3,4","160,200.06922188983435,180,244.04576589305833","2,1,2,1","THISTLE WEED,THISTLE WEED,NETTLE WEED,NETTLE WEED","160,189.95911246653804,185.23684073294237,216.73352727345846","4,3,2,1","CORN CROP,CORN CROP,CORN CROP,CORN CROP","0,0,0,0","20,20,20,20","10,10,10,10","20,20,20,20","20,20,20,20","20,20,20,20","0,0,0,0","20,20,20,20","10,10,10,10","20,20,20,20","20,20,20,20","20,20,20,20","1,0,1,1","8647,3296,6569,2943","40.06922188983434,-28.78785367319029,64.04576589305833,-10.734494705604831","29.959112466538038,-4.72227173359567,31.496686540516095,50.492961357574046","0","0"
"844","86","text","0","20","405152","0-0","","","","","","","","","","","","","","","","","","","","","","","","","","","","","","","","","","","","",""
"","","plant-game","0","21","447491","0-0","","200","180","2","WHEAT CROP","Right","200","180","1","THISTLE WEED","practice","10","1,2","180,190","1,1","THISTLE WEED,NETTLE WEED","180,180.7652403315402","2,1","WHEAT CROP,WHEAT CROP","0,0","20,20","10,10","20,20","20,20","20,20","0,0","20,20","10,10","20,20","20,20","20,20","1,0","1007,10887","24.04320747428356,-12.438964893690443","0.7652403315402232,-15.582115192678838","0","0"
"1035","86","text","0","22","448636","0-0","","","","","","","","","","","","","","","","","","","","","","","","","","","","","","","","","","","","",""
"","","plant-game","0","23","506158","0-0","","200","120","8","WHEAT CROP","Right","200","160","4","NETTLE WEED","practice","11","1,2,3,4,5,6,7,8","160,147.00744924637252,163.43494503563554,157.71478037672264,160,188.73130754485254,183.33750264444575,194.70740699474683","4,3,2,1,4,3,2,1","NETTLE WEED,NETTLE WEED,NETTLE WEED,NETTLE WEED,THISTLE WEED,THISTLE WEED,THISTLE WEED,THISTLE WEED","120,143.18723638420983,141.15457474219016,167.2215377184647,187.1618762114317,169.37512925955596,166.2122158296592,163.7768475473582","8,7,6,5,4,3,2,1","WHEAT CROP,WHEAT CROP,WHEAT CROP,WHEAT CROP,WHEAT CROP,WHEAT CROP,WHEAT CROP,WHEAT CROP","0,0,0,0,0,0,0,0","20,20,20,20,20,20,20,20","10,10,10,10,10,10,10,10","20,20,20,20,20,20,20,20","20,20,20,20,20,20,20,20","20,20,20,20,20,20,20,20","0,0,0,0,0,0,0,0","20,20,20,20,20,20,20,20","10,10,10,10,10,10,10,10","20,20,20,20,20,20,20,20","20,20,20,20,20,20,20,20","20,20,20,20,20,20,20,20","1,1,0,0,0,1,1,0","5844,4111,7135,2145,7938,6834,1888,1561","-12.99255075362749,16.427495789263016,-5.720164658912906,32.60422083858958,28.731307544852548,-5.393804900406806,11.36990435030108,6.954596319416155","23.18723638420982,-2.032661642019651,26.06696297627455,19.940338492966987,-17.786746951875717,-3.1629134298967863,-2.4353682823010026,-48.33287593405718","0","0"
"581","86","text","0","24","506843","0-0","","","","","","","","","","","","","","","","","","","","","","","","","","","","","","","","","","","","",""
"","","plant-game","0","25","556646","0-0","","200","180","2","WHEAT CROP","Right","200","160","4","NETTLE WEED","practice","12","1,2,3,4","160,167.77138772456516,175.68639996593674,190.3097419364497","4,3,2,1","NETTLE WEED,NETTLE WEED,NETTLE WEED,NETTLE WEED","180,169.04414608842907,180,188.00176372856018","2,1,2,1","WHEAT CROP,WHEAT CROP,CORN CROP,CORN CROP","0,0,0,0","20,20,20,20","10,10,10,10","20,20,20,20","20,20,20,20","20,20,20,20","0,0,0,0","20,20,20,20","10,10,10,10","20,20,20,20","20,20,20,20","20,20,20,20","0,0,1,0","9136,2581,10100,5582","7.771387724565157,7.9150122413715716,14.623341970512975,12.895170664369962","-10.955853911570932,6.312739090750866,8.001763728560176,4.361516875915733","0","0"
"591","86","text","0","26","557317","0-0","","","","","","","","","","","","","","","","","","","","","","","","","","","","","","","","","","","","",""
"12237","86","text","0","27","570737","0-0","","","","","","","","","","","","","","","","","","","","","","","","","","","","","","","","","","","","",""
"","","plant-game","0","28","604376","0-0","","200","180","1","WHEAT CROP","Right","200","180","4","THISTLE WEED","experimental","1","1,2,3,4","180,217.79075756423774,207.1121312119992,170.68296220325385","4,3,2,1","THISTLE WEED,THISTLE WEED,THISTLE WEED,THISTLE WEED","180,170,153.26743953673935,179.5229161491105","1,3,2,1","WHEAT CROP,CORN CROP,CORN CROP,CORN CROP","0,0,0,0","20,20,20,20","10,10,10,10","20,20,20,20","20,20,20,20","20,20,20,20","0,0,0,0","20,20,20,20","10,10,10,10","20,20,20,20","20,20,20,20","20,20,20,20","1,0,0,0","15346,5587,2054,1297","37.79075756423774,-10.678626352238531,-36.429169008745355,7.317231334049371","-3.6765519248744383,-16.73256046326066,26.255476612371144,-42.17787754445408","0","0"
"888","86","text","0","29","605342","0-0","","","","","","","","","","","","","","","","","","","","","","","","","","","","","","","","","","","","",""
"","","plant-game","0","30","641593","0-0","","200","160","4","CORN CROP","Right","200","120","1","THISTLE WEED","experimental","2","1,2,3,4","120,170,198.27274953018087,217.64582037186005","1,3,2,1","THISTLE WEED,NETTLE WEED,NETTLE WEED,NETTLE WEED","160,183.10336913963343,177.0216998296847,184.3413004597653","4,3,2,1","CORN CROP,CORN CROP,CORN CROP,CORN CROP","0,0,0,0","20,20,20,20","10,10,10,10","20,20,20,20","20,20,20,20","20,20,20,20","0,0,0,0","20,20,20,20","10,10,10,10","20,20,20,20","20,20,20,20","20,20,20,20","0,0,1,0","12383,8679,2356,3198","13.415245860146234,28.27274953018086,19.37307084167918,33.51317795270971","23.10336913963342,-6.081669309948711,7.319600630080611,-19.29189318701942","0","0"
"601","86","text","0","31","642344","0-0","","","","","","","","","","","","","","","","","","","","","","","","","","","","","","","","","","","","",""
"","","plant-game","0","32","676716","0-0","","200","160","8","CORN CROP","Right","200","160","1","THISTLE WEED","experimental","3","1,2,3,4,5,6,7,8","160,130,111.57864179845723,120.79084470569231,126.89011699860305,152.385082901889,217.4176515564865,286.2569410149564","1,7,6,5,4,3,2,1","THISTLE WEED,NETTLE WEED,NETTLE WEED,NETTLE WEED,NETTLE WEED,NETTLE WEED,NETTLE WEED,NETTLE WEED","160,193.2779840578766,210.67528710566665,235.42412705145028,245.60404381469104,266.26431220110453,252.72683043328306,338.4555022915212","8,7,6,5,4,3,2,1","CORN CROP,CORN CROP,CORN CROP,CORN CROP,CORN CROP,CORN CROP,CORN CROP,CORN CROP","0,0,0,0,0,0,0,0","20,20,20,20,20,20,20,20","10,10,10,10,10,10,10,10","20,20,20,20,20,20,20,20","20,20,20,20,20,20,20,20","20,20,20,20,20,20,20,20","0,0,0,0,0,0,0,0","20,20,20,20,20,20,20,20","10,10,10,10,10,10,10,10","20,20,20,20,20,20,20,20","20,20,20,20,20,20,20,20","20,20,20,20,20,20,20,20","1,1,1,1,1,0,1,0","7236,3477,1654,2720,1534,2207,2817,1598","23.723556237376155,-18.421358201542773,9.212202907235083,6.099272292910744,25.494965903285944,65.0325686545975,68.83928945846989,25.736443927238643","33.277984057876594,17.397303047790057,24.74883994578364,10.179916763240762,20.660268386413517,-13.537481767821467,85.72867185823814,-13.28151642031818","0","0"
"1380","86","text","0","33","678256","0-0","","","","","","","","","","","","","","","","","","","","","","","","","","","","","","","","","","","","",""
"","","plant-game","0","34","713814","0-0","","200","190","2","WHEAT CROP","Left","200","160","4","THISTLE WEED","experimental","4","1,2,3,4","190,192.303404834782,180,153.55529993931967","2,1,2,1","WHEAT CROP,WHEAT CROP,CORN CROP,CORN CROP","160,171.63071072419655,198.72737069163298,193.80256903124004","4,3,2,1","THISTLE WEED,THISTLE WEED,THISTLE WEED,THISTLE WEED","20,20,20,20","20,20,20,20","10,10,10,10","20,20,20,20","0,0,0,0","20,20,20,20","20,20,20,20","20,20,20,20","10,10,10,10","20,20,20,20","0,0,0,0","20,20,20,20","1,0,1,1","5861,3480,14604,2533","2.3034048347819818,-5.340120065495132,-26.444700060680336,4.915205734633248","11.630710724196545,27.09665996743645,-4.924801660392953,-22.638322241029925","0","0"
"2300","86","text","0","35","716286","0-0","","","","","","","","","","","","","","","","","","","","","","","","","","","","","","","","","","","","",""
"","","plant-game","0","36","742369","0-0","","200","160","4","CORN CROP","Left","200","120","2","NETTLE WEED","experimental","5","1,2,3,4","160,205.0812993243852,215.56965166723236,227.34597560526694","4,3,2,1","CORN CROP,CORN CROP,CORN CROP,CORN CROP","120,135.10828990399926,180,157.06516961641938","2,1,2,1","NETTLE WEED,NETTLE WEED,THISTLE WEED,THISTLE WEED","20,20,20,20","20,20,20,20","10,10,10,10","20,20,20,20","0,0,0,0","20,20,20,20","20,20,20,20","20,20,20,20","10,10,10,10","20,20,20,20","0,0,0,0","20,20,20,20","0,1,1,1","4115,4149,7798,1723","45.08129932438522,10.488352342847143,11.776323938034581,11.10784578246529","15.108289903999264,8.7132980000943,-22.934830383580632,3.4136152124844727","0","0"
"626","86","text","0","37","743120","0-0","","","","","","","","","","","","","","","","","","","","","","","","","","","","","","","","","","","","",""
"","","plant-game","0","38","775366","0-0","","200","120","1","WHEAT CROP","Right","200","180","8","NETTLE WEED","experimental","6","1,2,3,4,5,6,7,8","180,209.90536362583268,231.69151139542737,266.8377945885083,255.75314964207823,263.2135791246338,288.02501744522067,329.45132829124407","8,7,6,5,4,3,2,1","NETTLE WEED,NETTLE WEED,NETTLE WEED,NETTLE WEED,NETTLE WEED,NETTLE WEED,NETTLE WEED,NETTLE WEED","120,130,137.36817209762393,159.13752056140237,191.72684490253664,191.1172138472105,180.61507203277085,218.81414832917307","1,7,6,5,4,3,2,1","WHEAT CROP,CORN CROP,CORN CROP,CORN CROP,CORN CROP,CORN CROP,CORN CROP,CORN CROP","0,0,0,0,0,0,0,0","20,20,20,20,20,20,20,20","10,10,10,10,10,10,10,10","20,20,20,20,20,20,20,20","20,20,20,20,20,20,20,20","20,20,20,20,20,20,20,20","0,0,0,0,0,0,0,0","20,20,20,20,20,20,20,20","10,10,10,10,10,10,10,10","20,20,20,20,20,20,20,20","20,20,20,20,20,20,20,20","20,20,20,20,20,20,20,20","1,0,1,0,0,0,1,1","9584,7061,1316,960,791,661,947,1510","29.905363625832674,21.7861477695947,35.14628319308092,-11.084644946430062,7.460429482555552,24.811438320586912,41.426310846023384,23.16913911191303","32.174969215307314,7.368172097623935,21.76934846377844,32.58932434113427,-0.6096310553261377,-10.502141814439657,38.1990762964022,26.02475543799128","0","0"
"777","86","text","0","39","776323","0-0","","","","","","","","","","","","","","","","","","","","","","","","","","","","","","","","","","","","",""
"","","plant-game","0","40","792592","0-0","","200","190","1","WHEAT CROP","Right","200","120","2","THISTLE WEED","experimental","7","1,2","120,122.43283569384784","2,1","THISTLE WEED,THISTLE WEED","190,190","1,1","WHEAT CROP,CORN CROP","0,0","20,20","10,10","20,20","20,20","20,20","0,0","20,20","10,10","20,20","20,20","20,20","1,0","4203,4002","2.4328356938478315,6.247781767509526","11.447885540651313,22.477949263415475","0","0"
"683","86","text","0","41","793392","0-0","","","","","","","","","","","","","","","","","","","","","","","","","","","","","","","","","","","","",""
"","","plant-game","0","42","813083","0-0","","200","190","8","WHEAT CROP","Left","200","180","8","THISTLE WEED","experimental","8","1,2,3,4,5,6,7,8","190,207.09441554661888,210.30401523973526,210.37279388415422,211.13549954656213,242.5558846663532,294.22535956310213,328.15587870972587","8,7,6,5,4,3,2,1","WHEAT CROP,WHEAT CROP,WHEAT CROP,WHEAT CROP,WHEAT CROP,WHEAT CROP,WHEAT CROP,WHEAT CROP","180,173.82959395033632,220.7127118808232,228.1996369218012,231.96767023363682,279.13853781575733,278.76984785471427,321.79177107478984","8,7,6,5,4,3,2,1","THISTLE WEED,THISTLE WEED,THISTLE WEED,THISTLE WEED,THISTLE WEED,THISTLE WEED,THISTLE WEED,THISTLE WEED","20,20,20,20,20,20,20,20","20,20,20,20,20,20,20,20","10,10,10,10,10,10,10,10","20,20,20,20,20,20,20,20","0,0,0,0,0,0,0,0","20,20,20,20,20,20,20,20","20,20,20,20,20,20,20,20","20,20,20,20,20,20,20,20","10,10,10,10,10,10,10,10","20,20,20,20,20,20,20,20","0,0,0,0,0,0,0,0","20,20,20,20,20,20,20,20","0,0,1,0,0,0,0,0","3426,4442,2170,1155,448,866,729,771","17.094415546618865,3.2095996931163953,0.06877864441896313,0.7627056624078996,31.42038511979107,51.66947489674894,33.93051914662374,0.355676495854901","-6.170406049663679,46.88311793048688,7.486925040977978,3.76803331183563,47.170867582120536,-0.36868996104305296,43.021923220075585,24.194143830440268","0","0"
"970","86","text","0","43","814173","0-0","","","","","","","","","","","","","","","","","","","","","","","","","","","","","","","","","","","","",""
"","","plant-game","0","44","831235","0-0","","200","120","4","WHEAT CROP","Right","200","180","4","NETTLE WEED","experimental","9","1,2,3,4","180,142.05650224057183,154.14521308618166,105.80463987009642","4,3,2,1","NETTLE WEED,NETTLE WEED,NETTLE WEED,NETTLE WEED","120,122.3589451256238,143.33311527045174,132.24191433577255","4,3,2,1","WHEAT CROP,WHEAT CROP,WHEAT CROP,WHEAT CROP","0,0,0,0","20,20,20,20","10,10,10,10","20,20,20,20","20,20,20,20","20,20,20,20","0,0,0,0","20,20,20,20","10,10,10,10","20,20,20,20","20,20,20,20","20,20,20,20","0,0,0,1","7326,2158,813,2112","-37.94349775942818,12.088710845609835,-48.340573216085225,44.18934383444965","2.3589451256238023,20.974170144827934,-11.09120093467918,9.891666179199845","0","0"
"541","86","text","0","45","831885","0-0","","","","","","","","","","","","","","","","","","","","","","","","","","","","","","","","","","","","",""
"","","plant-game","0","46","847273","0-0","","200","180","1","CORN CROP","Left","200","160","1","NETTLE WEED","experimental","10","1","180","1","CORN CROP","160","1","NETTLE WEED","20","20","10","20","0","20","20","20","10","20","0","20","0","11136","28.24302803273013","25.27175214884525","0","0"
"688","86","text","0","47","848146","0-0","","","","","","","","","","","","","","","","","","","","","","","","","","","","","","","","","","","","",""
"","","plant-game","0","48","878174","0-0","","200","120","4","CORN CROP","Left","200","120","8","NETTLE WEED","experimental","11","1,2,3,4,5,6,7,8","120,192.82408467967974,181.13615639701186,192.14263787266643,160,162.04170536224186,156.4308666201596,158.3387361855753","4,3,2,1,4,3,2,1","CORN CROP,CORN CROP,CORN CROP,CORN CROP,WHEAT CROP,WHEAT CROP,WHEAT CROP,WHEAT CROP","120,145.91860728644752,117.26280272766076,158.69576817734398,177.15299660933272,189.62055546804143,184.77444748575948,172.10565918485077","8,7,6,5,4,3,2,1","NETTLE WEED,NETTLE WEED,NETTLE WEED,NETTLE WEED,NETTLE WEED,NETTLE WEED,NETTLE WEED,NETTLE WEED","20,20,20,20,20,20,20,20","20,20,20,20,20,20,20,20","10,10,10,10,10,10,10,10","20,20,20,20,20,20,20,20","0,0,0,0,0,0,0,0","20,20,20,20,20,20,20,20","20,20,20,20,20,20,20,20","20,20,20,20,20,20,20,20","10,10,10,10,10,10,10,10","20,20,20,20,20,20,20,20","0,0,0,0,0,0,0,0","20,20,20,20,20,20,20,20","0,1,0,1,1,1,1,1","6642,3043,952,2095,3987,2155,990,1053","72.82408467967973,-11.687928282667869,11.006481475654576,12.557014362800942,2.0417053622418617,-5.610838742082245,1.9078695654156959,-2.3921958650642714","25.918607286447518,-28.655804558786777,41.43296544968322,18.457228431988746,12.467558858708706,-4.846107982281958,-12.668788300908728,-19.92497563195836","0","0"
"636","86","text","0","49","878970","0-0","","","","","","","","","","","","","","","","","","","","","","","","","","","","","","","","","","","","",""
"","","plant-game","0","50","918645","0-0","","200","160","8","CORN CROP","Right","200","180","1","NETTLE WEED","experimental","12","1,2,3,4,5,6,7,8","180,130,176.8969602982662,193.9183956975189,198.62194628653975,223.33116865299826,239.29802430641718,271.92797182922214","1,7,6,5,4,3,2,1","NETTLE WEED,THISTLE WEED,THISTLE WEED,THISTLE WEED,THISTLE WEED,THISTLE WEED,THISTLE WEED,THISTLE WEED","160,146.7147677861103,191.47331010314167,182.1191153504161,188.50098819590687,219.77407641668432,203.16512720366435,202.6385231328129","8,7,6,5,4,3,2,1","CORN CROP,CORN CROP,CORN CROP,CORN CROP,CORN CROP,CORN CROP,CORN CROP,CORN CROP","0,0,0,0,0,0,0,0","20,20,20,20,20,20,20,20","10,10,10,10,10,10,10,10","20,20,20,20,20,20,20,20","20,20,20,20,20,20,20,20","20,20,20,20,20,20,20,20","0,0,0,0,0,0,0,0","20,20,20,20,20,20,20,20","10,10,10,10,10,10,10,10","20,20,20,20,20,20,20,20","20,20,20,20,20,20,20,20","20,20,20,20,20,20,20,20","0,1,0,0,1,0,1,0","5515,7668,1562,6649,2697,2416,1149,1080","16.383229753336067,46.89696029826622,17.02143539925267,4.70355058902086,24.709222366458516,15.96685565341891,32.629947522804954,11.276924317794673","-13.285232213889726,44.75854231703137,-9.354194752725567,6.381872845490767,31.273088220777442,-16.608949213019958,-0.5266040708514552,-7.47093763390108","0","0"
"1036","86","text","0","51","919881","0-0","","","","","","","","","","","","","","","","","","","","","","","","","","","","","","","","","","","","",""
"","","plant-game","0","52","953207","0-0","","200","120","1","WHEAT CROP","Right","200","190","4","THISTLE WEED","experimental","13","1,2,3,4","190,192.0172971556646,184.04474219620772,157.7347180383506","4,3,2,1","THISTLE WEED,THISTLE WEED,THISTLE WEED,THISTLE WEED","120,170,145.5717178077779,166.1393754456805","1,3,2,1","WHEAT CROP,CORN CROP,CORN CROP,CORN CROP","0,0,0,0","20,20,20,20","10,10,10,10","20,20,20,20","20,20,20,20","20,20,20,20","0,0,0,0","20,20,20,20","10,10,10,10","20,20,20,20","20,20,20,20","20,20,20,20","0,0,0,1","10834,7382,1818,4005","2.0172971556646178,-7.9725549594568745,-26.310024157857143,-2.1568212195743826","-11.1859925149317,-24.428282192222106,20.5676576379026,55.01340512212457","0","0"
"684","86","text","0","53","954031","0-0","","","","","","","","","","","","","","","","","","","","","","","","","","","","","","","","","","","","",""
"","","plant-game","0","54","968574","0-0","","200","190","4","WHEAT CROP","Right","200","180","4","NETTLE WEED","experimental","14","1,2,3,4","180,158.3100290874096,157.4171849742381,161.95432636542634","4,3,2,1","NETTLE WEED,NETTLE WEED,NETTLE WEED,NETTLE WEED","190,184.13737249354057,195.81144190261145,199.22471894601915","4,3,2,1","WHEAT CROP,WHEAT CROP,WHEAT CROP,WHEAT CROP","0,0,0,0","20,20,20,20","10,10,10,10","20,20,20,20","20,20,20,20","20,20,20,20","0,0,0,0","20,20,20,20","10,10,10,10","20,20,20,20","20,20,20,20","20,20,20,20","0,0,0,0","5666,1112,1648,831","-21.689970912590407,-0.8928441131714866,4.537141391188244,35.456533426662574","-5.862627506459443,11.67406940907087,3.4132770434076893,-19.19648579498386","0","0"
"587","86","text","0","55","969286","0-0","","","","","","","","","","","","","","","","","","","","","","","","","","","","","","","","","","","","",""
"","","plant-game","0","56","997568","0-0","","200","180","8","CORN CROP","Right","200","190","1","THISTLE WEED","experimental","15","1,2,3,4,5,6,7,8","190,130,136.96632924348668,128.34587229981187,137.26403804803692,149.70941477043027,208.76950629840235,271.2655992533437","1,7,6,5,4,3,2,1","THISTLE WEED,NETTLE WEED,NETTLE WEED,NETTLE WEED,NETTLE WEED,NETTLE WEED,NETTLE WEED,NETTLE WEED","180,177.7694109655065,174.33495791932734,248.52274054634483,205.77819066385683,182.96671007748978,179.47108121974398,213.03925617504058","8,7,6,5,4,3,2,1","CORN CROP,CORN CROP,CORN CROP,CORN CROP,CORN CROP,CORN CROP,CORN CROP,CORN CROP","0,0,0,0,0,0,0,0","20,20,20,20,20,20,20,20","10,10,10,10,10,10,10,10","20,20,20,20,20,20,20,20","20,20,20,20,20,20,20,20","20,20,20,20,20,20,20,20","0,0,0,0,0,0,0,0","20,20,20,20,20,20,20,20","10,10,10,10,10,10,10,10","20,20,20,20,20,20,20,20","20,20,20,20,20,20,20,20","20,20,20,20,20,20,20,20","0,0,0,0,0,1,1,1","5022,5046,565,1797,757,2246,2124,3423","-7.567542324312255,6.966329243486683,-8.620456943674814,8.918165748225048,12.445376722393359,59.06009152797206,62.49609295494135,38.032103652952216","-2.230589034493507,-3.43445304617916,74.18778262701748,-42.744549882487995,-22.811480586367054,-3.4956288577457997,33.56817495529661,22.737142169835945","0","0"
"1262","86","text","0","57","998960","0-0","","","","","","","","","","","","","","","","","","","","","","","","","","","","","","","","","","","","",""
"","","plant-game","0","58","1021478","0-0","","200","180","4","WHEAT CROP","Left","200","160","2","NETTLE WEED","experimental","16","1,2,3,4","180,203.11052840444071,202.85923549513964,172.35471240542753","4,3,2,1","WHEAT CROP,WHEAT CROP,WHEAT CROP,WHEAT CROP","160,120.88648455937259,180,191.79532015400704","2,1,2,1","NETTLE WEED,NETTLE WEED,THISTLE WEED,THISTLE WEED","20,20,20,20","20,20,20,20","10,10,10,10","20,20,20,20","0,0,0,0","20,20,20,20","20,20,20,20","20,20,20,20","10,10,10,10","20,20,20,20","0,0,0,0","20,20,20,20","1,1,1,0","5694,1512,4929,2558","23.11052840444072,-0.25129290930106823,-30.50452308971211,31.101001247823017","-39.11351544062741,-0.608724583145898,11.79532015400705,19.608338008595535","0","0"
"8250","86","text","0","59","1029928","0-0","","","","","","","","","","","","","","","","","","","","","","","","","","","","","","","","","","","","",""
"","","plant-game","0","60","1053772","0-0","","200","120","2","CORN CROP","Right","200","190","4","THISTLE WEED","experimental","17","1,2,3,4","190,194.4777728327137,209.2253763876378,258.0680135933436","4,3,2,1","THISTLE WEED,THISTLE WEED,THISTLE WEED,THISTLE WEED","120,138.55590575901124,180,205.13821674663055","2,1,2,1","CORN CROP,CORN CROP,WHEAT CROP,WHEAT CROP","0,0,0,0","20,20,20,20","10,10,10,10","20,20,20,20","20,20,20,20","20,20,20,20","0,0,0,0","20,20,20,20","10,10,10,10","20,20,20,20","20,20,20,20","20,20,20,20","0,0,1,1","4111,760,7838,3446","4.477772832713683,14.747603554924105,48.84263720570579,47.887822804156336","18.55590575901123,-41.639905949444994,25.138216746630555,-6.425231534845118","0","0"
"542","86","text","0","61","1054454","0-0","","","","","","","","","","","","","","","","","","","","","","","","","","","","","","","","","","","","",""
"","","plant-game","0","62","1078586","0-0","","200","160","1","CORN CROP","Right","200","180","8","THISTLE WEED","experimental","18","1,2,3,4,5,6,7,8","180,196.00106054399726,190.88991292617794,200.00459567729484,221.20672874702666,207.9977526105425,221.94227694145744,230.42206408704251","8,7,6,5,4,3,2,1","THISTLE WEED,THISTLE WEED,THISTLE WEED,THISTLE WEED,THISTLE WEED,THISTLE WEED,THISTLE WEED,THISTLE WEED","160,130,92.5576365656834,97.72425876818495,115.41336737652794,104.68982011805987,80.19687587880875,48.03100802768124","1,7,6,5,4,3,2,1","CORN CROP,WHEAT CROP,WHEAT CROP,WHEAT CROP,WHEAT CROP,WHEAT CROP,WHEAT CROP,WHEAT CROP","0,0,0,0,0,0,0,0","20,20,20,20,20,20,20,20","10,10,10,10,10,10,10,10","20,20,20,20,20,20,20,20","20,20,20,20,20,20,20,20","20,20,20,20,20,20,20,20","0,0,0,0,0,0,0,0","20,20,20,20,20,20,20,20","10,10,10,10,10,10,10,10","20,20,20,20,20,20,20,20","20,20,20,20,20,20,20,20","20,20,20,20,20,20,20,20","1,0,0,1,0,0,0,0","6766,1720,824,1993,1258,438,720,547","16.001060543997255,-5.111147617819301,9.114682751116895,21.20213306973182,-13.20897613648416,13.944524330914918,8.479787145585087,5.429870900966342","2.733975939731007,-37.442363434316604,5.166622202501561,17.689108608342988,-10.72354725846807,-24.49294423925111,-32.165867851127516,-22.819646098894097","0","0"
"573","86","text","0","63","1079249","0-0","","","","","","","","","","","","","","","","","","","","","","","","","","","","","","","","","","","","",""
"","","plant-game","0","64","1106215","0-0","","200","190","1","CORN CROP","Right","200","190","8","THISTLE WEED","experimental","19","1,2,3,4,5,6,7,8","190,182.76222914479706,183.65236618657696,189.0754608639882,193.21980274706425,216.10781860113593,216.4445286203593,164.05570235721308","8,7,6,5,4,3,2,1","THISTLE WEED,THISTLE WEED,THISTLE WEED,THISTLE WEED,THISTLE WEED,THISTLE WEED,THISTLE WEED,THISTLE WEED","190,130,115.99031389122761,102.12802642672439,83.99882693194657,76.21293798953147,61.30665172276004,45.86523059406612","1,7,6,5,4,3,2,1","CORN CROP,WHEAT CROP,WHEAT CROP,WHEAT CROP,WHEAT CROP,WHEAT CROP,WHEAT CROP,WHEAT CROP","0,0,0,0,0,0,0,0","20,20,20,20,20,20,20,20","10,10,10,10,10,10,10,10","20,20,20,20,20,20,20,20","20,20,20,20,20,20,20,20","20,20,20,20,20,20,20,20","0,0,0,0,0,0,0,0","20,20,20,20,20,20,20,20","10,10,10,10,10,10,10,10","20,20,20,20,20,20,20,20","20,20,20,20,20,20,20,20","20,20,20,20,20,20,20,20","0,0,1,0,1,1,0,0","3858,3855,1127,1589,2704,4000,1086,459","-7.237770855202946,0.890137041779899,5.423094677411269,4.144341883076033,22.88801585407168,0.3367100192233643,-52.38882626314623,26.125643224738447","-0.6035786079240226,-14.009686108772389,-13.862287464503225,-18.129199494777822,-7.785888942415102,-14.906286266771431,-15.44142112869392,-24.18441760610898","1","0"
"621","86","text","0","65","1106966","0-0","","","","","","","","","","","","","","","","","","","","","","","","","","","","","","","","","","","","",""
"","","plant-game","0","66","1124532","0-0","","200","190","4","WHEAT CROP","Right","200","120","1","THISTLE WEED","experimental","20","1,2,3,4","120,170,147.32802388584986,191.6199345657823","1,3,2,1","THISTLE WEED,NETTLE WEED,NETTLE WEED,NETTLE WEED","190,204.75101352225477,183.23493977038927,211.4162687256114","4,3,2,1","WHEAT CROP,WHEAT CROP,WHEAT CROP,WHEAT CROP","0,0,0,0","20,20,20,20","10,10,10,10","20,20,20,20","20,20,20,20","20,20,20,20","0,0,0,0","20,20,20,20","10,10,10,10","20,20,20,20","20,20,20,20","20,20,20,20","1,0,1,0","3032,3950,1645,1358","20.653025848642837,-22.671976114150134,44.29191067993244,-11.327765557027762","14.75101352225478,-21.516073751865502,28.181328955222124,6.562287207661984","0","0"
"537","86","text","0","67","1125150","0-0","","","","","","","","","","","","","","","","","","","","","","","","","","","","","","","","","","","","",""
"","","plant-game","0","68","1145102","0-0","","200","180","4","CORN CROP","Right","200","190","2","NETTLE WEED","experimental","21","1,2,3,4","190,228.90139484787096,180,165.89543328727694","2,1,2,1","NETTLE WEED,NETTLE WEED,THISTLE WEED,THISTLE WEED","180,196.04364871221588,210.45172749047478,203.07462064156272","4,3,2,1","CORN CROP,CORN CROP,CORN CROP,CORN CROP","0,0,0,0","20,20,20,20","10,10,10,10","20,20,20,20","20,20,20,20","20,20,20,20","0,0,0,0","20,20,20,20","10,10,10,10","20,20,20,20","20,20,20,20","20,20,20,20","1,0,0,1","2747,1146,6303,3196","38.90139484787096,-3.5798893273136994,-14.10456671272307,5.697348863224999","16.04364871221588,14.408078778258899,-7.377106848912067,45.0254209403046","0","0"
"562","86","text","0","69","1145774","0-0","","","","","","","","","","","","","","","","","","","","","","","","","","","","","","","","","","","","",""
"","","plant-game","0","70","1167597","0-0","","200","190","4","CORN CROP","Right","200","180","1","THISTLE WEED","experimental","22","1,2,3,4","180,170,166.52348199219443,226.96068889117922","1,3,2,1","THISTLE WEED,NETTLE WEED,NETTLE WEED,NETTLE WEED","190,183.99428668839363,173.09430127224678,215.8490394916813","4,3,2,1","CORN CROP,CORN CROP,CORN CROP,CORN CROP","0,0,0,0","20,20,20,20","10,10,10,10","20,20,20,20","20,20,20,20","20,20,20,20","0,0,0,0","20,20,20,20","10,10,10,10","20,20,20,20","20,20,20,20","20,20,20,20","0,1,1,0","5737,4175,2126,2015","31.043429593031092,-3.4765180078055735,60.437206898984776,-9.185688638279528","-6.005713311606359,-10.899985416146848,42.75473821943454,0.3937042294566709","0","0"
"548","86","text","0","71","1168265","0-0","","","","","","","","","","","","","","","","","","","","","","","","","","","","","","","","","","","","",""
"","","plant-game","0","72","1192909","0-0","","200","180","8","WHEAT CROP","Left","200","120","2","THISTLE WEED","experimental","23","1,2,3,4,5,6,7,8","180,242.48295326150046,220.86552663388255,243.91694647160944,245.56865049026277,203.03577379446602,163.60118647091542,224.887510273574","8,7,6,5,4,3,2,1","WHEAT CROP,WHEAT CROP,WHEAT CROP,WHEAT CROP,WHEAT CROP,WHEAT CROP,WHEAT CROP,WHEAT CROP","120,141.15561711617406,140,131.441601285085,171.57188499850542,155.41098456519654,109.7741385852315,87.82892542910571","2,1,6,5,4,3,2,1","THISTLE WEED,THISTLE WEED,NETTLE WEED,NETTLE WEED,NETTLE WEED,NETTLE WEED,NETTLE WEED,NETTLE WEED","20,20,20,20,20,20,20,20","20,20,20,20,20,20,20,20","10,10,10,10,10,10,10,10","20,20,20,20,20,20,20,20","0,0,0,0,0,0,0,0","20,20,20,20,20,20,20,20","20,20,20,20,20,20,20,20","20,20,20,20,20,20,20,20","10,10,10,10,10,10,10,10","20,20,20,20,20,20,20,20","0,0,0,0,0,0,0,0","20,20,20,20,20,20,20,20","0,0,1,1,1,1,0,0","6106,1713,2889,1400,1075,1522,1221,1357","62.48295326150046,-21.617426627617903,23.05141983772689,1.6517040186533314,-42.53287669579673,-39.43458732355059,61.286323802658586,-7.097458641860392","21.15561711617405,31.102280877734067,-8.558398714914988,40.13028371342041,-16.160900433308875,-45.636845979965045,-21.94521315612579,4.155939820927452","0","0"
"786","86","text","0","73","1193805","0-0","","","","","","","","","","","","","","","","","","","","","","","","","","","","","","","","","","","","",""
"","","plant-game","0","74","1212652","0-0","","200","120","2","WHEAT CROP","Left","200","120","4","THISTLE WEED","experimental","24","1,2,3,4","120,134.74595935877684,180,190.84340483551563","2,1,2,1","WHEAT CROP,WHEAT CROP,CORN CROP,CORN CROP","120,163.11887688503143,157.77306365213232,140.40489028033937","4,3,2,1","THISTLE WEED,THISTLE WEED,THISTLE WEED,THISTLE WEED","20,20,20,20","20,20,20,20","10,10,10,10","20,20,20,20","0,0,0,0","20,20,20,20","20,20,20,20","20,20,20,20","10,10,10,10","20,20,20,20","0,0,0,0","20,20,20,20","0,1,1,1","4545,2254,4067,1534","14.745959358776854,41.25624435046397,10.843404835515617,10.66881322880362","43.11887688503143,-5.345813232899097,-17.368173371792956,-18.540390273650786","0","0"
"592","86","text","0","75","1213324","0-0","","","","","","","","","","","","","","","","","","","","","","","","","","","","","","","","","","","","",""
"","","plant-game","0","76","1240140","0-0","","200","160","4","CORN CROP","Left","200","180","8","NETTLE WEED","experimental","25","1,2,3,4,5,6,7,8","160,155.30619703221151,154.95021212303575,180.64805223524354,160,152.69371730764672,167.7364065802592,200.57850734483492","4,3,2,1,4,3,2,1","CORN CROP,CORN CROP,CORN CROP,CORN CROP,WHEAT CROP,WHEAT CROP,WHEAT CROP,WHEAT CROP","180,196.55206970515587,214.0692089566643,228.80219771579283,246.60522498192316,239.1985561816539,224.16909076521273,264.0410305502805","8,7,6,5,4,3,2,1","NETTLE WEED,NETTLE WEED,NETTLE WEED,NETTLE WEED,NETTLE WEED,NETTLE WEED,NETTLE WEED,NETTLE WEED","20,20,20,20,20,20,20,20","20,20,20,20,20,20,20,20","10,10,10,10,10,10,10,10","20,20,20,20,20,20,20,20","0,0,0,0,0,0,0,0","20,20,20,20,20,20,20,20","20,20,20,20,20,20,20,20","20,20,20,20,20,20,20,20","10,10,10,10,10,10,10,10","20,20,20,20,20,20,20,20","0,0,0,0,0,0,0,0","20,20,20,20,20,20,20,20","1,1,0,0,1,1,1,0","4751,4434,2083,754,2312,759,554,2780","-4.693802967788498,-0.35598490917576836,25.697840112207793,37.41595062216926,-7.30628269235329,15.042689272612467,32.842100764575704,44.06165005883519","16.552069705155883,17.51713925150845,14.732988759128517,17.80302726613034,-7.406668800269248,-15.029465416441198,39.871939785067745,43.95788421575989","0","0"
"662","86","text","0","77","1240922","0-0","","","","","","","","","","","","","","","","","","","","","","","","","","","","","","","","","","","","",""
"","","plant-game","0","78","1253644","0-0","","200","160","2","CORN CROP","Right","200","160","2","NETTLE WEED","experimental","26","1,2","160,186.8443395136901","2,1","NETTLE WEED,NETTLE WEED","160,152.30328268736685","2,1","CORN CROP,CORN CROP","0,0","20,20","10,10","20,20","20,20","20,20","0,0","20,20","10,10","20,20","20,20","20,20","1,1","5973,516","26.844339513690112,36.48831362393881","-7.696717312633169,13.42447331791823","0","0"
"1496","86","text","0","79","1255310","0-0","","","","","","","","","","","","","","","","","","","","","","","","","","","","","","","","","","","","",""
"","","plant-game","0","80","1276243","0-0","","200","120","1","CORN CROP","Left","200","160","8","THISTLE WEED","experimental","27","1,2,3,4,5,6,7,8","120,130,122.08722707917691,106.76725013748596,118.45835507639616,142.54668168729782,143.41010585594154,132.39521847066402","1,7,6,5,4,3,2,1","CORN CROP,WHEAT CROP,WHEAT CROP,WHEAT CROP,WHEAT CROP,WHEAT CROP,WHEAT CROP,WHEAT CROP","160,156.72410921800832,138.80686230595262,107.47128822869468,130.09814099671348,138.7521798029832,179.15982900281264,176.7515786370469","8,7,6,5,4,3,2,1","THISTLE WEED,THISTLE WEED,THISTLE WEED,THISTLE WEED,THISTLE WEED,THISTLE WEED,THISTLE WEED,THISTLE WEED","20,20,20,20,20,20,20,20","20,20,20,20,20,20,20,20","10,10,10,10,10,10,10,10","20,20,20,20,20,20,20,20","0,0,0,0,0,0,0,0","20,20,20,20,20,20,20,20","20,20,20,20,20,20,20,20","20,20,20,20,20,20,20,20","10,10,10,10,10,10,10,10","20,20,20,20,20,20,20,20","0,0,0,0,0,0,0,0","20,20,20,20,20,20,20,20","0,1,1,1,0,0,1,1","7183,1406,418,422,1187,358,1401,507","33.579331355118256,-7.91277292082309,-15.319976941690959,11.691104938910204,24.08832661090165,0.8634241686437214,-11.014887385277527,-34.883739958507824","-3.27589078199167,-17.91724691205569,-31.335574077257952,22.626852768018804,8.654038806269702,40.40764919982946,-2.408250365765765,18.616029904031446","0","0"
"645","86","text","0","81","1276998","0-0","","","","","","","","","","","","","","","","","","","","","","","","","","","","","","","","","","","","",""
"","","plant-game","0","82","1298922","0-0","","200","120","1","CORN CROP","Right","200","190","8","NETTLE WEED","experimental","28","1,2,3,4,5,6,7,8","190,199.01420706126882,187.0918217786124,202.23487479646877,182.7015525370888,179.53426599455904,206.9082777799464,237.5304686087484","8,7,6,5,4,3,2,1","NETTLE WEED,NETTLE WEED,NETTLE WEED,NETTLE WEED,NETTLE WEED,NETTLE WEED,NETTLE WEED,NETTLE WEED","120,130,168.39199516553174,213.00676850436562,195.18094862990986,194.23872688915193,192.35129583443342,189.18958108160777","1,7,6,5,4,3,2,1","CORN CROP,WHEAT CROP,WHEAT CROP,WHEAT CROP,WHEAT CROP,WHEAT CROP,WHEAT CROP,WHEAT CROP","0,0,0,0,0,0,0,0","20,20,20,20,20,20,20,20","10,10,10,10,10,10,10,10","20,20,20,20,20,20,20,20","20,20,20,20,20,20,20,20","20,20,20,20,20,20,20,20","0,0,0,0,0,0,0,0","20,20,20,20,20,20,20,20","10,10,10,10,10,10,10,10","20,20,20,20,20,20,20,20","20,20,20,20,20,20,20,20","20,20,20,20,20,20,20,20","0,1,1,0,0,0,1,0","4531,1437,605,2818,862,477,1212,1120","9.014207061268833,-11.922385282656421,15.143053017856364,-19.533322259379993,-3.167286542529755,27.374011785387346,30.622190828802015,-18.206311263620854","1.0968210691656104,38.391995165531725,44.61477333883389,-17.825819874455767,-0.942221740757923,-1.8874310547185251,-3.161714752825656,-0.9227475364785765","0","0"
"715","86","text","0","83","1299757","0-0","","","","","","","","","","","","","","","","","","","","","","","","","","","","","","","","","","","","",""
"","","plant-game","0","84","1314591","0-0","","200","160","2","CORN CROP","Left","200","120","1","NETTLE WEED","experimental","29","1,2","160,140.49870074599949","2,1","CORN CROP,CORN CROP","120,190","1,1","NETTLE WEED,THISTLE WEED","20,20","20,20","10,10","20,20","0,0","20,20","20,20","20,20","10,10","20,20","0,0","20,20","1,0","1681,2647","-19.50129925400051,30.926565789145997","9.050828930592617,18.520413861171125","0","0"
"625","86","text","0","85","1315326","0-0","","","","","","","","","","","","","","","","","","","","","","","","","","","","","","","","","","","","",""
"","","plant-game","0","86","1329067","0-0","","200","120","1","CORN CROP","Left","200","160","2","THISTLE WEED","experimental","30","1,2","120,190","1,1","CORN CROP,WHEAT CROP","160,131.68636174690465","2,1","THISTLE WEED,THISTLE WEED","20,20","20,20","10,10","20,20","0,0","20,20","20,20","20,20","10,10","20,20","0,0","20,20","0,1","4625,1727","0.3920970874348626,-2.367474725935677","-28.313638253095334,17.309959622030522","0","0"
"556","86","text","0","87","1329732","0-0","","","","","","","","","","","","","","","","","","","","","","","","","","","","","","","","","","","","",""
"","","plant-game","0","88","1349318","0-0","","200","120","8","WHEAT CROP","Right","200","160","2","THISTLE WEED","experimental","31","1,2,3,4,5,6,7,8","160,166.01524507477845,140,157.82894001635782,157.7680149521547,174.18736238118714,177.2336866168617,233.29241963105727","2,1,6,5,4,3,2,1","THISTLE WEED,THISTLE WEED,NETTLE WEED,NETTLE WEED,NETTLE WEED,NETTLE WEED,NETTLE WEED,NETTLE WEED","120,87.62052546438997,96.69201556180542,107.2009369700477,100.74920412786372,106.51619547245943,123.12821124526926,157.5859524694245","8,7,6,5,4,3,2,1","WHEAT CROP,WHEAT CROP,WHEAT CROP,WHEAT CROP,WHEAT CROP,WHEAT CROP,WHEAT CROP,WHEAT CROP","0,0,0,0,0,0,0,0","20,20,20,20,20,20,20,20","10,10,10,10,10,10,10,10","20,20,20,20,20,20,20,20","20,20,20,20,20,20,20,20","20,20,20,20,20,20,20,20","0,0,0,0,0,0,0,0","20,20,20,20,20,20,20,20","10,10,10,10,10,10,10,10","20,20,20,20,20,20,20,20","20,20,20,20,20,20,20,20","20,20,20,20,20,20,20,20","0,0,1,0,0,1,1,0","3297,593,3211,1374,616,1449,1327,978","6.015245074778455,-16.910948428306018,17.828940016357826,-0.060925064203125906,16.41934742903247,3.0463242356745397,56.05873301419558,-15.124550881217552","-32.37947453561003,9.07149009741545,10.508921408242287,-6.451732842183989,5.766991344595704,16.61201577280983,34.45774122415526,26.858284813350892","0","0"
"553","86","text","0","89","1349952","0-0","","","","","","","","","","","","","","","","","","","","","","","","","","","","","","","","","","","","",""
"","","plant-game","0","90","1364646","0-0","","200","190","8","CORN CROP","Left","200","120","8","THISTLE WEED","experimental","32","1,2,3,4,5,6,7,8","190,190.24299641030905,171.44692774670173,185.18739379098125,214.00773217333568,215.30145202007498,226.51686979670504,272.1263558438891","8,7,6,5,4,3,2,1","CORN CROP,CORN CROP,CORN CROP,CORN CROP,CORN CROP,CORN CROP,CORN CROP,CORN CROP","120,115.82332153691833,116.09853707319824,119.64006875031893,152.1115397954261,170.54396103800553,191.3882186420042,178.00134458281755","8,7,6,5,4,3,2,1","THISTLE WEED,THISTLE WEED,THISTLE WEED,THISTLE WEED,THISTLE WEED,THISTLE WEED,THISTLE WEED,THISTLE WEED","20,20,20,20,20,20,20,20","20,20,20,20,20,20,20,20","10,10,10,10,10,10,10,10","20,20,20,20,20,20,20,20","0,0,0,0,0,0,0,0","20,20,20,20,20,20,20,20","20,20,20,20,20,20,20,20","20,20,20,20,20,20,20,20","10,10,10,10,10,10,10,10","20,20,20,20,20,20,20,20","0,0,0,0,0,0,0,0","20,20,20,20,20,20,20,20","1,1,1,0,1,0,0,0","2852,1604,524,1073,1342,997,864,971","0.242996410309045,-18.796068663607315,13.740466044279504,28.82033838235442,1.293719846739292,11.21541777663007,45.609486047184035,23.475337418462033","-4.176678463081674,0.2752155362799228,3.5415316771206875,32.471471045107165,18.432421242579448,20.84425760399868,-13.386874059186653,8.50969412555716","0","0"
"3680","86","text","0","91","1368426","0-0","","","","","","","","","","","","","","","","","","","","","","","","","","","","","","","","","","","","",""
"","","plant-game","0","92","1377037","0-0","","200","160","1","WHEAT CROP","Left","200","190","1","THISTLE WEED","experimental","33","1","160","1","WHEAT CROP","190","1","THISTLE WEED","20","20","10","20","0","20","20","20","10","20","0","20","1","3764","-27.223271328639328","-10.774421014370157","0","0"
"554","86","text","0","93","1377716","0-0","","","","","","","","","","","","","","","","","","","","","","","","","","","","","","","","","","","","",""
"","","plant-game","0","94","1387789","0-0","","200","160","2","WHEAT CROP","Right","200","180","1","THISTLE WEED","experimental","34","1,2","180,190","1,1","THISTLE WEED,NETTLE WEED","160,214.20224969007847","2,1","WHEAT CROP,WHEAT CROP","0,0","20,20","10,10","20,20","20,20","20,20","0,0","20,20","10,10","20,20","20,20","20,20","1,1","628,2968","33.817383483366044,9.509654248043873","54.20224969007849,36.216505638744344","0","0"
"491","86","text","0","95","1388400","0-0","","","","","","","","","","","","","","","","","","","","","","","","","","","","","","","","","","","","",""
"","","plant-game","0","96","1398714","0-0","","200","190","4","CORN CROP","Right","200","160","1","THISTLE WEED","experimental","35","1,2,3,4","160,170,171.20272825774157,163.54406314964925","1,3,2,1","THISTLE WEED,NETTLE WEED,NETTLE WEED,NETTLE WEED","190,221.2345976969011,255.19784309280027,230.18384052927368","4,3,2,1","CORN CROP,CORN CROP,CORN CROP,CORN CROP","0,0,0,0","20,20,20,20","10,10,10,10","20,20,20,20","20,20,20,20","20,20,20,20","0,0,0,0","20,20,20,20","10,10,10,10","20,20,20,20","20,20,20,20","20,20,20,20","1,0,0,0","1375,1383,597,630","39.77658604975791,1.2027282577415725,-7.658665108092323,-22.912091357598573","31.234597696901087,33.96324539589918,-25.0140025635266,-34.97109020577502","0","0"
"557","86","text","0","97","1399381","0-0","","","","","","","","","","","","","","","","","","","","","","","","","","","","","","","","","","","","",""
"","","plant-game","0","98","1413876","0-0","","200","160","2","CORN CROP","Right","200","160","8","THISTLE WEED","experimental","36","1,2,3,4,5,6,7,8","160,170.74983255084823,150.1835095469655,159.96825395618654,128.32248448160186,153.55508481104013,131.68402290617132,150.40283190174245","8,7,6,5,4,3,2,1","THISTLE WEED,THISTLE WEED,THISTLE WEED,THISTLE WEED,THISTLE WEED,THISTLE WEED,THISTLE WEED,THISTLE WEED","160,175.03996067560914,140,208.92593574416048,199.21982272609563,180.94592451022163,166.12474240609714,181.26977194708869","2,1,6,5,4,3,2,1","CORN CROP,CORN CROP,WHEAT CROP,WHEAT CROP,WHEAT CROP,WHEAT CROP,WHEAT CROP,WHEAT CROP","0,0,0,0,0,0,0,0","20,20,20,20,20,20,20,20","10,10,10,10,10,10,10,10","20,20,20,20,20,20,20,20","20,20,20,20,20,20,20,20","20,20,20,20,20,20,20,20","0,0,0,0,0,0,0,0","20,20,20,20,20,20,20,20","10,10,10,10,10,10,10,10","20,20,20,20,20,20,20,20","20,20,20,20,20,20,20,20","20,20,20,20,20,20,20,20","1,0,1,0,0,0,0,1","756,768,1086,1690,985,430,548,1367","10.749832550848213,-20.566323003882722,9.784744409221037,-31.645769474584668,25.232600329438274,-21.871061904868803,18.71880899557113,28.689582611802102","15.03996067560914,-2.966307463864031,68.92593574416048,-9.706113018064865,-18.273898215873988,-14.8211821041245,15.145029540991537,40.42458695149834","0","0"
"688","86","text","0","99","1414654","0-0","","","","","","","","","","","","","","","","","","","","","","","","","","","","","","","","","","","","",""
"","","plant-game","0","100","1424964","0-0","","200","180","8","CORN CROP","Right","200","180","8","NETTLE WEED","experimental","37","1,2,3,4,5,6,7,8","180,230.58490384123604,233.4420873756434,222.6670697613263,240.80801538278212,231.25616086095033,242.1443916661521,261.7139006023586","8,7,6,5,4,3,2,1","NETTLE WEED,NETTLE WEED,NETTLE WEED,NETTLE WEED,NETTLE WEED,NETTLE WEED,NETTLE WEED,NETTLE WEED","180,203.80436528705928,212.30725350914506,226.03801362093205,235.41323767755594,236.95459061438035,245.93376565316203,218.68727319136164","8,7,6,5,4,3,2,1","CORN CROP,CORN CROP,CORN CROP,CORN CROP,CORN CROP,CORN CROP,CORN CROP,CORN CROP","0,0,0,0,0,0,0,0","20,20,20,20,20,20,20,20","10,10,10,10,10,10,10,10","20,20,20,20,20,20,20,20","20,20,20,20,20,20,20,20","20,20,20,20,20,20,20,20","0,0,0,0,0,0,0,0","20,20,20,20,20,20,20,20","10,10,10,10,10,10,10,10","20,20,20,20,20,20,20,20","20,20,20,20,20,20,20,20","20,20,20,20,20,20,20,20","1,0,0,0,0,0,0,1","1323,991,701,380,658,402,425,1126","50.584903841236034,2.8571835344073615,-10.775017614317097,18.140945621455813,-9.55185452183178,10.888230805201783,19.56950893620648,37.102287597438014","23.80436528705927,8.502888222085774,13.73076011178699,9.375224056623889,1.5413529368243988,8.979175038781664,-27.246492461800376,22.38533858847097","0","0"
"469","86","text","0","101","1425543","0-0","","","","","","","","","","","","","","","","","","","","","","","","","","","","","","","","","","","","",""
"","","plant-game","0","102","1443992","0-0","","200","180","8","WHEAT CROP","Left","200","190","2","THISTLE WEED","experimental","38","1,2,3,4,5,6,7,8","180,216.44482618267867,246.68885483272877,238.6222568414217,225.05159518272487,249.43766086051176,275.99067555981264,291.683940408098","8,7,6,5,4,3,2,1","WHEAT CROP,WHEAT CROP,WHEAT CROP,WHEAT CROP,WHEAT CROP,WHEAT CROP,WHEAT CROP,WHEAT CROP","190,153.5962971591332,140,145.29441221610168,151.97741150116565,135.86346487181368,147.79361493136653,129.3282667837816","2,1,6,5,4,3,2,1","THISTLE WEED,THISTLE WEED,NETTLE WEED,NETTLE WEED,NETTLE WEED,NETTLE WEED,NETTLE WEED,NETTLE WEED","20,20,20,20,20,20,20,20","20,20,20,20,20,20,20,20","10,10,10,10,10,10,10,10","20,20,20,20,20,20,20,20","0,0,0,0,0,0,0,0","20,20,20,20,20,20,20,20","20,20,20,20,20,20,20,20","20,20,20,20,20,20,20,20","10,10,10,10,10,10,10,10","20,20,20,20,20,20,20,20","0,0,0,0,0,0,0,0","20,20,20,20,20,20,20,20","1,0,1,1,0,0,1,0","1144,2796,1330,740,726,292,1191,640","36.44482618267866,30.244028650050105,-8.066597991307084,-13.570661658696823,24.386065677786895,26.553014699300874,15.693264848285391,15.84191159213199","-36.40370284086681,30.5984248893222,5.294412216101668,6.682999285063959,-16.113946629351958,11.930150059552869,-18.465348147584933,-0.8316502088053568","0","0"
"600","86","text","0","103","1444682","0-0","","","","","","","","","","","","","","","","","","","","","","","","","","","","","","","","","","","","",""
"","","plant-game","0","104","1460469","0-0","","200","180","8","CORN CROP","Right","200","180","1","NETTLE WEED","experimental","39","1,2,3,4,5,6,7,8","180,130,150.521196668343,126.92040814244655,102.53581678532696,95.04045245205599,83.17095192788716,83.60262669726276","1,7,6,5,4,3,2,1","NETTLE WEED,THISTLE WEED,THISTLE WEED,THISTLE WEED,THISTLE WEED,THISTLE WEED,THISTLE WEED,THISTLE WEED","180,193.6695271997368,243.4072563844472,217.33968053889652,225.18622075286896,219.40311101908182,181.15074974278997,231.06435914234493","8,7,6,5,4,3,2,1","CORN CROP,CORN CROP,CORN CROP,CORN CROP,CORN CROP,CORN CROP,CORN CROP,CORN CROP","0,0,0,0,0,0,0,0","20,20,20,20,20,20,20,20","10,10,10,10,10,10,10,10","20,20,20,20,20,20,20,20","20,20,20,20,20,20,20,20","20,20,20,20,20,20,20,20","0,0,0,0,0,0,0,0","20,20,20,20,20,20,20,20","10,10,10,10,10,10,10,10","20,20,20,20,20,20,20,20","20,20,20,20,20,20,20,20","20,20,20,20,20,20,20,20","1,1,0,0,0,0,0,0","1530,1598,951,863,937,433,392,1529","-0.5022936605756527,20.521196668343023,-23.60078852589647,-24.384591357119586,-7.4953643332709685,-11.869500524168831,0.4316747693756087,8.634407731092239","13.669527199736784,49.73772918471042,-26.067575845550696,7.846540213972456,-5.783109733787155,-38.252361276291836,49.91360939955497,-4.910701123952722","0","0"
"500","86","text","0","105","1461070","0-0","","","","","","","","","","","","","","","","","","","","","","","","","","","","","","","","","","","","",""
"","","plant-game","0","106","1466524","0-0","","200","180","2","CORN CROP","Right","200","160","2","THISTLE WEED","experimental","40","1,2","160,187.7223067497225","2,1","THISTLE WEED,THISTLE WEED","180,213.06418125526923","2,1","CORN CROP,CORN CROP","0,0","20,20","10,10","20,20","20,20","20,20","0,0","20,20","10,10","20,20","20,20","20,20","1,0","873,810","27.72230674972249,9.428880679059322","33.064181255269226,40.326589325070046","0","0"
"530","86","text","0","107","1467117","0-0","","","","","","","","","","","","","","","","","","","","","","","","","","","","","","","","","","","","",""
"","","plant-game","0","108","1486573","0-0","","200","190","4","WHEAT CROP","Right","200","160","8","THISTLE WEED","experimental","41","1,2,3,4,5,6,7,8","160,175.14770342657664,152.98175374848964,155.76174541883518,130.22074311198637,149.36857773519756,129.30212535084289,115.54061943970746","8,7,6,5,4,3,2,1","THISTLE WEED,THISTLE WEED,THISTLE WEED,THISTLE WEED,THISTLE WEED,THISTLE WEED,THISTLE WEED,THISTLE WEED","190,226.01691892587775,228.97791389982427,226.60799341413392,160,152.95499098651706,141.6220420403222,181.64566725991918","4,3,2,1,4,3,2,1","WHEAT CROP,WHEAT CROP,WHEAT CROP,WHEAT CROP,CORN CROP,CORN CROP,CORN CROP,CORN CROP","0,0,0,0,0,0,0,0","20,20,20,20,20,20,20,20","10,10,10,10,10,10,10,10","20,20,20,20,20,20,20,20","20,20,20,20,20,20,20,20","20,20,20,20,20,20,20,20","0,0,0,0,0,0,0,0","20,20,20,20,20,20,20,20","10,10,10,10,10,10,10,10","20,20,20,20,20,20,20,20","20,20,20,20,20,20,20,20","20,20,20,20,20,20,20,20","1,0,0,0,1,0,1,1","999,822,494,503,2633,2577,1645,2077","15.147703426576642,-22.16594967808701,2.7799916703455487,-25.54100230684881,19.147834623211196,-20.066452384354672,-13.761505911135437,5.28230988784356","36.01691892587774,2.9609949739465153,-2.3699204856903706,-30.715338391936257,-7.045009013482947,-11.332948946194854,40.023625219596966,-6.7744510432158975","0","0"
"465","86","text","0","109","1487116","0-0","","","","","","","","","","","","","","","","","","","","","","","","","","","","","","","","","","","","",""
"","","plant-game","0","110","1502494","0-0","","200","190","8","CORN CROP","Right","200","190","2","NETTLE WEED","experimental","42","1,2,3,4,5,6,7,8","190,242.05744496867024,140,151.16701136017443,139.9061060250124,119.37862393665809,107.58679804491594,118.40624608402788","2,1,6,5,4,3,2,1","NETTLE WEED,NETTLE WEED,THISTLE WEED,THISTLE WEED,THISTLE WEED,THISTLE WEED,THISTLE WEED,THISTLE WEED","190,195.55926445530173,200.393228497634,232.91232632387388,238.87521143321774,265.85163805779547,257.63159468476124,281.9129283699748","8,7,6,5,4,3,2,1","CORN CROP,CORN CROP,CORN CROP,CORN CROP,CORN CROP,CORN CROP,CORN CROP,CORN CROP","0,0,0,0,0,0,0,0","20,20,20,20,20,20,20,20","10,10,10,10,10,10,10,10","20,20,20,20,20,20,20,20","20,20,20,20,20,20,20,20","20,20,20,20,20,20,20,20","0,0,0,0,0,0,0,0","20,20,20,20,20,20,20,20","10,10,10,10,10,10,10,10","20,20,20,20,20,20,20,20","20,20,20,20,20,20,20,20","20,20,20,20,20,20,20,20","1,0,1,0,0,0,0,0","1084,1879,2089,1210,430,545,664,655","52.05744496867024,-9.432000561582095,11.167011360174435,-11.260905335162033,-20.52748208835432,-11.791825891742146,10.819448039111947,29.36794260161578","5.559264455301722,4.833964042332268,32.51909782623988,5.962885109343864,26.976426624577744,-8.220043373034214,24.281333685213582,8.478267045856361","0","0"
"653","86","text","0","111","1503267","0-0","","","","","","","","","","","","","","","","","","","","","","","","","","","","","","","","","","","","",""
"","","plant-game","0","112","1516773","0-0","","200","190","4","CORN CROP","Right","200","180","8","THISTLE WEED","experimental","43","1,2,3,4,5,6,7,8","180,205.22169522341304,226.22541459442124,239.6118222486339,204.0283767279574,240.80849356047833,235.13477832203995,243.7477877556329","8,7,6,5,4,3,2,1","THISTLE WEED,THISTLE WEED,THISTLE WEED,THISTLE WEED,THISTLE WEED,THISTLE WEED,THISTLE WEED,THISTLE WEED","190,190.15078026298136,226.68331066810234,256.02782138272437,160,112.6603952567465,124.84615580178014,105.79890188919487","4,3,2,1,4,3,2,1","CORN CROP,CORN CROP,CORN CROP,CORN CROP,WHEAT CROP,WHEAT CROP,WHEAT CROP,WHEAT CROP","0,0,0,0,0,0,0,0","20,20,20,20,20,20,20,20","10,10,10,10,10,10,10,10","20,20,20,20,20,20,20,20","20,20,20,20,20,20,20,20","20,20,20,20,20,20,20,20","0,0,0,0,0,0,0,0","20,20,20,20,20,20,20,20","10,10,10,10,10,10,10,10","20,20,20,20,20,20,20,20","20,20,20,20,20,20,20,20","20,20,20,20,20,20,20,20","1,0,0,0,1,0,0,0","1130,829,556,503,1283,970,380,597","25.22169522341303,21.00371937100819,13.386407654212666,-35.583445520676484,36.78011683252093,-5.673715238438367,8.613009433592953,-5.940715820627073","0.15078026298136393,36.53253040512099,29.344510714622018,-3.3142313757006843,-47.3396047432535,12.185760545033649,-19.047253912585273,-11.256814646969744","0","0"
"3111","86","text","0","113","1520004","0-0","","","","","","","","","","","","","","","","","","","","","","","","","","","","","","","","","","","","",""
"","","plant-game","0","114","1525951","0-0","","200","180","2","WHEAT CROP","Left","200","120","2","THISTLE WEED","experimental","44","1,2","180,232.47180852714337","2,1","WHEAT CROP,WHEAT CROP","120,112.66750369407015","2,1","THISTLE WEED,THISTLE WEED","20,20","20,20","10,10","20,20","0,0","20,20","20,20","20,20","10,10","20,20","0,0","20,20","1,0","1020,1087","52.47180852714338,14.661598421865143","-7.332496305929858,4.0971176549579695","0","0"
"492","86","text","0","115","1526534","0-0","","","","","","","","","","","","","","","","","","","","","","","","","","","","","","","","","","","","",""
"","","plant-game","0","116","1541788","0-0","","200","190","2","CORN CROP","Right","200","190","8","THISTLE WEED","experimental","45","1,2,3,4,5,6,7,8","190,226.2262663648209,239.6858710593195,243.7883080570607,249.07614995902352,256.6418152837916,287.0757728289401,276.00699485128393","8,7,6,5,4,3,2,1","THISTLE WEED,THISTLE WEED,THISTLE WEED,THISTLE WEED,THISTLE WEED,THISTLE WEED,THISTLE WEED,THISTLE WEED","190,198.34300480248115,140,162.82539552396503,222.24953840273633,211.83371845816902,235.38835623698003,251.1845421410092","2,1,6,5,4,3,2,1","CORN CROP,CORN CROP,WHEAT CROP,WHEAT CROP,WHEAT CROP,WHEAT CROP,WHEAT CROP,WHEAT CROP","0,0,0,0,0,0,0,0","20,20,20,20,20,20,20,20","10,10,10,10,10,10,10,10","20,20,20,20,20,20,20,20","20,20,20,20,20,20,20,20","20,20,20,20,20,20,20,20","0,0,0,0,0,0,0,0","20,20,20,20,20,20,20,20","10,10,10,10,10,10,10,10","20,20,20,20,20,20,20,20","20,20,20,20,20,20,20,20","20,20,20,20,20,20,20,20","1,0,1,1,0,1,0,0","1225,1046,1358,488,935,1044,928,390","36.226266364820916,13.459604694498616,4.102436997741206,5.287841901962821,7.565665324768042,30.43395754514852,-11.068777977656147,30.415890021339116","8.34300480248115,15.501037697491672,22.825395523965035,59.42414287877129,-10.415819944567325,23.554637778811024,15.796185904029155,-33.78676479002651","0","0"
"412","86","text","0","117","1542310","0-0","","","","","","","","","","","","","","","","","","","","","","","","","","","","","","","","","","","","",""
"","","plant-game","0","118","1548723","0-0","","200","160","2","CORN CROP","Left","200","180","2","THISTLE WEED","experimental","46","1,2","160,135.84632687307365","2,1","CORN CROP,CORN CROP","180,178.5392771199159","2,1","THISTLE WEED,THISTLE WEED","20,20","20,20","10,10","20,20","0,0","20,20","20,20","20,20","10,10","20,20","0,0","20,20","1,1","993,743","-24.15367312692635,-40.10280808024816","-1.4607228800840952,17.098562519891765","0","0"
"558","86","text","0","119","1549401","0-0","","","","","","","","","","","","","","","","","","","","","","","","","","","","","","","","","","","","",""
"","","plant-game","0","120","1555764","0-0","","200","190","1","WHEAT CROP","Right","200","160","1","NETTLE WEED","experimental","47","1","160","1","NETTLE WEED","190","1","WHEAT CROP","0","20","10","20","20","20","0","20","10","20","20","20","0","1162","-9.878001906246414","9.21907325106561","0","0"
"765","86","text","0","121","1556685","0-0","","","","","","","","","","","","","","","","","","","","","","","","","","","","","","","","","","","","",""
"","","plant-game","0","122","1567562","0-0","","200","160","1","WHEAT CROP","Right","200","190","4","THISTLE WEED","experimental","48","1,2,3,4","190,217.16198734935932,218.97030786637637,256.49790218190424","4,3,2,1","THISTLE WEED,THISTLE WEED,THISTLE WEED,THISTLE WEED","160,170,148.02357781164943,153.65361139119224","1,3,2,1","WHEAT CROP,CORN CROP,CORN CROP,CORN CROP","0,0,0,0","20,20,20,20","10,10,10,10","20,20,20,20","20,20,20,20","20,20,20,20","0,0,0,0","20,20,20,20","10,10,10,10","20,20,20,20","20,20,20,20","20,20,20,20","1,0,1,1","1423,1121,938,468","27.16198734935933,1.808320517017039,37.52759431552787,40.47171369755496","41.355900869278,-21.97642218835057,5.630033579542808,13.906040722786035","0","0"
"585","86","text","0","123","1568227","0-0","","","","","","","","","","","","","","","","","","","","","","","","","","","","","","","","","","","","",""
"","","plant-game","0","124","1577712","0-0","","200","180","4","CORN CROP","Right","200","180","4","THISTLE WEED","experimental","49","1,2,3,4","180,194.08436360380682,187.7046702946427,225.27265104645636","4,3,2,1","THISTLE WEED,THISTLE WEED,THISTLE WEED,THISTLE WEED","180,195.97309396587335,194.77277574811407,218.7810838596189","4,3,2,1","CORN CROP,CORN CROP,CORN CROP,CORN CROP","0,0,0,0","20,20,20,20","10,10,10,10","20,20,20,20","20,20,20,20","20,20,20,20","0,0,0,0","20,20,20,20","10,10,10,10","20,20,20,20","20,20,20,20","20,20,20,20","1,0,1,0","1455,999,626,2450","14.084363603806827,-6.379693309164112,37.567980751813664,-20.501580743381012","15.973093965873337,-1.2003182177592848,24.008308111504824,5.25394922864728","0","0"
"606","86","text","0","125","1578418","0-0","","","","","","","","","","","","","","","","","","","","","","","","","","","","","","","","","","","","",""
"","","plant-game","0","126","1593093","0-0","","200","120","8","CORN CROP","Left","200","180","4","NETTLE WEED","experimental","50","1,2,3,4,5,6,7,8","120,129.08262527096167,161.98877895386553,183.34776047274488,186.79007288823593,173.5726505572276,159.68433983945428,184.8943220822931","8,7,6,5,4,3,2,1","CORN CROP,CORN CROP,CORN CROP,CORN CROP,CORN CROP,CORN CROP,CORN CROP,CORN CROP","180,200.92696048475807,208.98945825926208,216.1117362389944,160,173.29848958330106,178.77883382136875,188.151906126032","4,3,2,1,4,3,2,1","NETTLE WEED,NETTLE WEED,NETTLE WEED,NETTLE WEED,THISTLE WEED,THISTLE WEED,THISTLE WEED,THISTLE WEED","20,20,20,20,20,20,20,20","20,20,20,20,20,20,20,20","10,10,10,10,10,10,10,10","20,20,20,20,20,20,20,20","0,0,0,0,0,0,0,0","20,20,20,20,20,20,20,20","20,20,20,20,20,20,20,20","20,20,20,20,20,20,20,20","10,10,10,10,10,10,10,10","20,20,20,20,20,20,20,20","0,0,0,0,0,0,0,0","20,20,20,20,20,20,20,20","1,0,0,0,1,0,0,0","1256,653,563,395,1164,874,286,781","9.082625270961685,32.90615368290387,21.358981518879354,3.4423124154910383,-13.217422331008335,-13.888310717773315,25.209982242838816,32.93067925156764","20.926960484758077,8.062497774504022,7.122277979732342,39.825372176349205,13.298489583301066,5.480344238067687,9.373072304663264,35.328398522845596","0","0"
"789","86","text","0","127","1593952","0-0","","","","","","","","","","","","","","","","","","","","","","","","","","","","","","","","","","","","",""
"","","plant-game","0","128","1610112","0-0","","200","180","4","WHEAT CROP","Left","200","190","1","NETTLE WEED","experimental","51","1,2,3,4","180,157.8412234600802,168.14549136025133,192.33881557983364","4,3,2,1","WHEAT CROP,WHEAT CROP,WHEAT CROP,WHEAT CROP","190,170,196.9694665038729,188.4471315159018","1,3,2,1","NETTLE WEED,THISTLE WEED,THISTLE WEED,THISTLE WEED","20,20,20,20","20,20,20,20","10,10,10,10","20,20,20,20","0,0,0,0","20,20,20,20","20,20,20,20","20,20,20,20","10,10,10,10","20,20,20,20","0,0,0,0","20,20,20,20","1,0,1,1","5041,2335,639,472","-22.15877653991981,10.304267900171128,24.193324219582305,-3.498384948777754","-45.977249059011015,26.9694665038729,-8.522334987971107,2.22498424095096","0","0"
"512","86","text","0","129","1610733","0-0","","","","","","","","","","","","","","","","","","","","","","","","","","","","","","","","","","","","",""
"","","plant-game","0","130","1623128","0-0","","200","190","8","CORN CROP","Left","200","180","4","NETTLE WEED","experimental","52","1,2,3,4,5,6,7,8","190,184.32987470962254,175.1992757910576,148.30795669172886,158.41184011135093,163.4788227199376,179.49754517561928,164.14892285577463","8,7,6,5,4,3,2,1","CORN CROP,CORN CROP,CORN CROP,CORN CROP,CORN CROP,CORN CROP,CORN CROP,CORN CROP","180,200.70671205422997,207.7056104826074,229.59652672051817,160,190.73453390113494,173.95613071843403,152.04336490539282","4,3,2,1,4,3,2,1","NETTLE WEED,NETTLE WEED,NETTLE WEED,NETTLE WEED,THISTLE WEED,THISTLE WEED,THISTLE WEED,THISTLE WEED","20,20,20,20,20,20,20,20","20,20,20,20,20,20,20,20","10,10,10,10,10,10,10,10","20,20,20,20,20,20,20,20","0,0,0,0,0,0,0,0","20,20,20,20,20,20,20,20","20,20,20,20,20,20,20,20","20,20,20,20,20,20,20,20","10,10,10,10,10,10,10,10","20,20,20,20,20,20,20,20","0,0,0,0,0,0,0,0","20,20,20,20,20,20,20,20","1,0,1,0,0,1,1,1","1029,591,818,583,955,862,438,629","-5.670125290377467,-9.130598918564942,-26.891319099328726,10.103883419622063,5.066982608586677,16.018722455681683,-15.348622319844637,-16.943215065937945","20.706712054229953,6.9988984283774425,21.890916237910766,15.549420786297965,30.73453390113493,-16.778403182700917,-21.912765813041204,44.11014798837631","0","0"
"688","86","text","0","131","1623936","0-0","","","","","","","","","","","","","","","","","","","","","","","","","","","","","","","","","","","","",""
"","","plant-game","0","132","1633580","0-0","","200","120","1","WHEAT CROP","Right","200","120","2","THISTLE WEED","experimental","53","1,2","120,124.20094344714758","2,1","THISTLE WEED,THISTLE WEED","120,190","1,1","WHEAT CROP,CORN CROP","0,0","20,20","10,10","20,20","20,20","20,20","0,0","20,20","10,10","20,20","20,20","20,20","0,1","623,1903","4.200943447147579,35.61049181096159","21.972320804743788,-8.034617510511431","0","0"
"912","86","text","0","133","1634586","0-0","","","","","","","","","","","","","","","","","","","","","","","","","","","","","","","","","","","","",""
"","","plant-game","0","134","1646305","0-0","","200","160","4","WHEAT CROP","Right","200","180","1","THISTLE WEED","experimental","54","1,2,3,4","180,170,170.85900378963265,189.17419385690505","1,3,2,1","THISTLE WEED,NETTLE WEED,NETTLE WEED,NETTLE WEED","160,162.26890802709545,187.7222972938494,217.10137608742988","4,3,2,1","WHEAT CROP,WHEAT CROP,WHEAT CROP,WHEAT CROP","0,0,0,0","20,20,20,20","10,10,10,10","20,20,20,20","20,20,20,20","20,20,20,20","0,0,0,0","20,20,20,20","10,10,10,10","20,20,20,20","20,20,20,20","20,20,20,20","0,1,1,1","812,1570,815,1920","16.641660750554056,0.8590037896326628,18.3151900672724,43.748676808361175","2.268908027095455,25.453389266753945,29.37907879358047,-2.840305926176711","0","0"
"1011","86","text","0","135","1647448","0-0","","","","","","","","","","","","","","","","","","","","","","","","","","","","","","","","","","","","",""
"","","plant-game","0","136","1661162","0-0","","200","120","8","WHEAT CROP","Right","200","190","4","NETTLE WEED","experimental","55","1,2,3,4,5,6,7,8","190,200.96763038352745,231.77166601020016,276.0554978569424,160,176.63250365227975,193.95429468972748,231.9962297773652","4,3,2,1,4,3,2,1","NETTLE WEED,NETTLE WEED,NETTLE WEED,NETTLE WEED,THISTLE WEED,THISTLE WEED,THISTLE WEED,THISTLE WEED","120,126.01708413279782,152.99254756190467,181.88879520879817,163.9654735094469,174.66275124843196,172.82180725256165,193.73932283240464","8,7,6,5,4,3,2,1","WHEAT CROP,WHEAT CROP,WHEAT CROP,WHEAT CROP,WHEAT CROP,WHEAT CROP,WHEAT CROP,WHEAT CROP","0,0,0,0,0,0,0,0","20,20,20,20,20,20,20,20","10,10,10,10,10,10,10,10","20,20,20,20,20,20,20,20","20,20,20,20,20,20,20,20","20,20,20,20,20,20,20,20","0,0,0,0,0,0,0,0","20,20,20,20,20,20,20,20","10,10,10,10,10,10,10,10","20,20,20,20,20,20,20,20","20,20,20,20,20,20,20,20","20,20,20,20,20,20,20,20","0,1,1,0,1,0,1,1","902,467,696,567,2195,1217,636,637","10.96763038352745,30.80403562667272,44.28383184674222,-2.6990108343655206,16.632503652279762,17.32179103744771,38.04193508763771,21.78180343578665","6.017084132797819,26.97546342910686,28.896247646893514,-17.92332169935127,10.697277738985067,-1.8409439958703133,20.91751557984298,-0.5818717842963466","0","0"
"766","86","text","0","137","1662091","0-0","","","","","","","","","","","","","","","","","","","","","","","","","","","","","","","","","","","","",""
"","","plant-game","0","138","1678011","0-0","","200","160","8","WHEAT CROP","Right","200","190","8","NETTLE WEED","experimental","56","1,2,3,4,5,6,7,8","190,196.79575280975516,249.43235576403086,274.0877683558994,260.0968164417833,295.9152196878789,309.2933883309601,329.6060808343667","8,7,6,5,4,3,2,1","NETTLE WEED,NETTLE WEED,NETTLE WEED,NETTLE WEED,NETTLE WEED,NETTLE WEED,NETTLE WEED,NETTLE WEED","160,142.96041093345326,193.17340437491225,213.93207858543332,182.24687983450414,191.73009815601145,204.79482295201842,229.54476851379198","8,7,6,5,4,3,2,1","WHEAT CROP,WHEAT CROP,WHEAT CROP,WHEAT CROP,WHEAT CROP,WHEAT CROP,WHEAT CROP,WHEAT CROP","0,0,0,0,0,0,0,0","20,20,20,20,20,20,20,20","10,10,10,10,10,10,10,10","20,20,20,20,20,20,20,20","20,20,20,20,20,20,20,20","20,20,20,20,20,20,20,20","0,0,0,0,0,0,0,0","20,20,20,20,20,20,20,20","10,10,10,10,10,10,10,10","20,20,20,20,20,20,20,20","20,20,20,20,20,20,20,20","20,20,20,20,20,20,20,20","0,1,1,0,1,1,1,1","3827,838,825,1474,1316,590,941,420","6.795752809755145,52.63660295427571,24.65541259186854,-13.990951914116135,35.81840324609564,13.378168643081194,20.312692503406574,51.70846083962312","-17.039589066546743,50.212993441458984,20.758674210521075,-31.685198750929167,9.483218321507321,13.06472479600698,24.74994556177355,36.96688862868204","0","0"
"720","86","text","0","139","1678881","0-0","","","","","","","","","","","","","","","","","","","","","","","","","","","","","","","","","","","","",""
"","","plant-game","0","140","1689140","0-0","","200","120","8","CORN CROP","Left","200","190","8","NETTLE WEED","experimental","57","1,2,3,4,5,6,7,8","120,123.84937395111324,132.76737484436842,171.71789276707437,205.8801768251213,208.34577289819828,222.35613984755133,245.8449623286294","8,7,6,5,4,3,2,1","CORN CROP,CORN CROP,CORN CROP,CORN CROP,CORN CROP,CORN CROP,CORN CROP,CORN CROP","190,206.89685897465097,228.07232886188834,226.8925805953989,216.2364920967812,201.79436986556018,244.96879976324362,308.37496041452573","8,7,6,5,4,3,2,1","NETTLE WEED,NETTLE WEED,NETTLE WEED,NETTLE WEED,NETTLE WEED,NETTLE WEED,NETTLE WEED,NETTLE WEED","20,20,20,20,20,20,20,20","20,20,20,20,20,20,20,20","10,10,10,10,10,10,10,10","20,20,20,20,20,20,20,20","0,0,0,0,0,0,0,0","20,20,20,20,20,20,20,20","20,20,20,20,20,20,20,20","20,20,20,20,20,20,20,20","10,10,10,10,10,10,10,10","20,20,20,20,20,20,20,20","0,0,0,0,0,0,0,0","20,20,20,20,20,20,20,20","0,1,0,1,1,1,0,1","825,970,784,481,1120,463,716,613","3.849373951113236,8.91800089325519,38.95051792270595,34.16228405804694,2.465596073076957,14.010366949353063,23.488822481078074,0.18499092487160765","16.89685897465097,21.175469887237366,-1.179748266489426,-10.656088498617704,-14.44212223122101,43.174429897683446,63.40616065128212,-10.869314079351195","0","0"
"699","86","text","0","141","1689989","0-0","","","","","","","","","","","","","","","","","","","","","","","","","","","","","","","","","","","","",""
"","","plant-game","0","142","1694085","0-0","","200","190","1","CORN CROP","Left","200","120","1","NETTLE WEED","experimental","58","1","190","1","CORN CROP","120","1","NETTLE WEED","20","20","10","20","0","20","20","20","10","20","0","20","0","597","11.760423424187959","34.730913786165","0","0"
"679","86","text","0","143","1694879","0-0","","","","","","","","","","","","","","","","","","","","","","","","","","","","","","","","","","","","",""
"","","plant-game","0","144","1707077","0-0","","200","160","1","WHEAT CROP","Left","200","160","8","NETTLE WEED","experimental","59","1,2,3,4,5,6,7,8","160,130,138.76215970118693,137.78803952587495,158.22516537198598,170.61178683520512,179.02239704071843,153.72179281484168","1,7,6,5,4,3,2,1","WHEAT CROP,CORN CROP,CORN CROP,CORN CROP,CORN CROP,CORN CROP,CORN CROP,CORN CROP","160,144.79146671566215,159.8891517213425,155.18379383162073,145.46554962468855,168.34380938108723,200.12497324837128,240.25721175245346","8,7,6,5,4,3,2,1","NETTLE WEED,NETTLE WEED,NETTLE WEED,NETTLE WEED,NETTLE WEED,NETTLE WEED,NETTLE WEED,NETTLE WEED","20,20,20,20,20,20,20,20","20,20,20,20,20,20,20,20","10,10,10,10,10,10,10,10","20,20,20,20,20,20,20,20","0,0,0,0,0,0,0,0","20,20,20,20,20,20,20,20","20,20,20,20,20,20,20,20","20,20,20,20,20,20,20,20","10,10,10,10,10,10,10,10","20,20,20,20,20,20,20,20","0,0,0,0,0,0,0,0","20,20,20,20,20,20,20,20","0,0,1,1,1,1,0,1","808,1130,868,648,439,345,555,458","9.608695884022477,8.762159701186931,-0.9741201753119865,20.437125846111037,12.386621463219136,8.410610205513297,-25.300604225876754,-10.030673550799026","-15.208533284337854,15.097685005680354,-4.705357889721759,-9.71824420693219,22.878259756398688,31.78116386728405,40.132238504082174,-9.472478445218329","0","0"
"450","86","text","0","145","1707617","0-0","","","","","","","","","","","","","","","","","","","","","","","","","","","","","","","","","","","","",""
"","","plant-game","0","146","1716695","0-0","","200","160","2","CORN CROP","Right","200","160","4","NETTLE WEED","experimental","60","1,2,3,4","160,171.84770083185424,176.6384998347259,193.4206457962427","4,3,2,1","NETTLE WEED,NETTLE WEED,NETTLE WEED,NETTLE WEED","160,138.54912850644024,180,155.21877925568938","2,1,2,1","CORN CROP,CORN CROP,WHEAT CROP,WHEAT CROP","0,0,0,0","20,20,20,20","10,10,10,10","20,20,20,20","20,20,20,20","20,20,20,20","0,0,0,0","20,20,20,20","10,10,10,10","20,20,20,20","20,20,20,20","20,20,20,20","0,1,0,1","502,915,906,502","11.847700831854226,4.79079900287168,16.78214596151679,34.72330940406945","-21.450871493559763,8.272193972400144,-24.78122074431061,20.9119742160554","0","0"
"203","86","text","0","147","1716978","0-0","","","","","","","","","","","","","","","","","","","","","","","","","","","","","","","","","","","","",""
"","","plant-game","0","148","1731375","0-0","","200","180","8","CORN CROP","Right","200","160","2","THISTLE WEED","experimental","61","1,2,3,4,5,6,7,8","160,173.4745649463656,140,157.11802842189095,195.51218220160527,214.97200265654652,231.7320346734913,258.6340762454968","2,1,6,5,4,3,2,1","THISTLE WEED,THISTLE WEED,NETTLE WEED,NETTLE WEED,NETTLE WEED,NETTLE WEED,NETTLE WEED,NETTLE WEED","180,200.36848224247086,214.67179443440767,211.79653282668548,202.25957172827938,212.26947177144905,193.2725433564935,207.29855082582498","8,7,6,5,4,3,2,1","CORN CROP,CORN CROP,CORN CROP,CORN CROP,CORN CROP,CORN CROP,CORN CROP,CORN CROP","0,0,0,0,0,0,0,0","20,20,20,20,20,20,20,20","10,10,10,10,10,10,10,10","20,20,20,20,20,20,20,20","20,20,20,20,20,20,20,20","20,20,20,20,20,20,20,20","0,0,0,0,0,0,0,0","20,20,20,20,20,20,20,20","10,10,10,10,10,10,10,10","20,20,20,20,20,20,20,20","20,20,20,20,20,20,20,20","20,20,20,20,20,20,20,20","1,1,1,1,0,1,1,1","719,1900,1452,936,613,499,717,764","13.474564946365614,61.95425215364905,17.11802842189096,38.39415377971432,19.459820454941237,16.760032016944802,26.90204157200543,20.594511080143576","20.36848224247086,14.303312191936811,-2.875261607722198,-9.536961098406103,10.009900043169655,-18.996928414955548,14.026007469331491,-1.79602514384678","0","0"
"647","86","text","0","149","1732137","0-0","","","","","","","","","","","","","","","","","","","","","","","","","","","","","","","","","","","","",""
"","","plant-game","0","150","1745824","0-0","","200","180","2","WHEAT CROP","Left","200","190","8","NETTLE WEED","experimental","62","1,2,3,4,5,6,7,8","180,166.66002375109943,140,184.64722436645417,211.3513564755157,171.979063662655,158.65801990234218,229.39392270127007","2,1,6,5,4,3,2,1","WHEAT CROP,WHEAT CROP,CORN CROP,CORN CROP,CORN CROP,CORN CROP,CORN CROP,CORN CROP","190,205.16208013291836,200.3820453999849,200.63393093922411,209.13136346766794,228.19068632412458,221.48759111978157,230.14890359688536","8,7,6,5,4,3,2,1","NETTLE WEED,NETTLE WEED,NETTLE WEED,NETTLE WEED,NETTLE WEED,NETTLE WEED,NETTLE WEED,NETTLE WEED","20,20,20,20,20,20,20,20","20,20,20,20,20,20,20,20","10,10,10,10,10,10,10,10","20,20,20,20,20,20,20,20","0,0,0,0,0,0,0,0","20,20,20,20,20,20,20,20","20,20,20,20,20,20,20,20","20,20,20,20,20,20,20,20","10,10,10,10,10,10,10,10","20,20,20,20,20,20,20,20","0,0,0,0,0,0,0,0","20,20,20,20,20,20,20,20","0,1,0,0,0,1,0,1","639,681,723,708,1399,1255,430,1077","-13.33997624890057,-4.058378161664361,44.64722436645417,26.704132109061533,-39.37229281286072,-13.321043760312804,70.7359027989279,8.478252286924345","15.162080132918355,-4.7800347329334745,0.2518855392392112,8.497432528443822,19.05932285645665,-6.703095204343023,8.66131247710378,-1.2983100625464248","0","0"
"816","86","text","0","151","1746770","0-0","","","","","","","","","","","","","","","","","","","","","","","","","","","","","","","","","","","","",""
"","","plant-game","0","152","1759273","0-0","","200","120","8","CORN CROP","Right","200","190","1","NETTLE WEED","experimental","63","1,2,3,4,5,6,7,8","190,130,191.23133014913032,190.10217360108854,182.48732845713087,193.0969256881959,188.07665210511595,173.38931240688675","1,7,6,5,4,3,2,1","NETTLE WEED,THISTLE WEED,THISTLE WEED,THISTLE WEED,THISTLE WEED,THISTLE WEED,THISTLE WEED,THISTLE WEED","120,133.3045165082909,144.31001412823713,158.93224743509734,165.1868945814358,148.74674688094458,163.12410473340123,174.95804463533202","8,7,6,5,4,3,2,1","CORN CROP,CORN CROP,CORN CROP,CORN CROP,CORN CROP,CORN CROP,CORN CROP,CORN CROP","0,0,0,0,0,0,0,0","20,20,20,20,20,20,20,20","10,10,10,10,10,10,10,10","20,20,20,20,20,20,20,20","20,20,20,20,20,20,20,20","20,20,20,20,20,20,20,20","0,0,0,0,0,0,0,0","20,20,20,20,20,20,20,20","10,10,10,10,10,10,10,10","20,20,20,20,20,20,20,20","20,20,20,20,20,20,20,20","20,20,20,20,20,20,20,20","0,1,0,0,0,0,0,0","674,1055,646,523,383,640,671,473","22.250607180877612,61.23133014913031,-1.1291565480417831,-7.614845143957654,10.609597231065035,-5.020273583079948,-14.687339698229195,-4.494175608030941","13.304516508290895,11.005497619946226,14.622233306860217,6.254647146338462,-16.44014770049123,14.377357852456633,11.833939901930787,-13.00840092910863","0","0"
"580","86","text","0","153","1759943","0-0","","","","","","","","","","","","","","","","","","","","","","","","","","","","","","","","","","","","",""
"","","plant-game","0","154","1770510","0-0","","200","160","8","CORN CROP","Left","200","180","8","THISTLE WEED","experimental","64","1,2,3,4,5,6,7,8","160,215.52976547767085,221.14263778183482,244.77660272289415,289.60539759051153,316.73174132088945,308.5875217912249,291.46333663614354","8,7,6,5,4,3,2,1","CORN CROP,CORN CROP,CORN CROP,CORN CROP,CORN CROP,CORN CROP,CORN CROP,CORN CROP","180,226.28345529750123,251.37242315917484,287.8482438835065,329.99213444688434,319.72516643486347,339.96290249200615,343.058603318917","8,7,6,5,4,3,2,1","THISTLE WEED,THISTLE WEED,THISTLE WEED,THISTLE WEED,THISTLE WEED,THISTLE WEED,THISTLE WEED,THISTLE WEED","20,20,20,20,20,20,20,20","20,20,20,20,20,20,20,20","10,10,10,10,10,10,10,10","20,20,20,20,20,20,20,20","0,0,0,0,0,0,0,0","20,20,20,20,20,20,20,20","20,20,20,20,20,20,20,20","20,20,20,20,20,20,20,20","10,10,10,10,10,10,10,10","20,20,20,20,20,20,20,20","0,0,0,0,0,0,0,0","20,20,20,20,20,20,20,20","0,1,0,0,1,1,1,0","513,1232,581,934,571,450,455,478","55.52976547767086,5.612872304163979,23.633964941059336,44.82879486761735,27.126343730377904,-8.144219529664548,-17.12418515508136,51.16634626533132","46.283455297501234,25.088967861673595,36.47582072433165,42.14389056337783,-10.26696801202089,20.237736057142676,3.0957008269108237,18.11151695970031","0","0"
"1065","86","text","0","155","1771735","0-0","","","","","","","","","","","","","","","","","","","","","","","","","","","","","","","","","","","","",""
"","","plant-game","0","156","1781488","0-0","","200","180","8","WHEAT CROP","Right","200","120","8","THISTLE WEED","experimental","65","1,2,3,4,5,6,7,8","120,108.87579179400765,124.78295841513203,141.13177749944802,165.68888444568373,163.85048110443157,216.05363132676,219.33961759348577","8,7,6,5,4,3,2,1","THISTLE WEED,THISTLE WEED,THISTLE WEED,THISTLE WEED,THISTLE WEED,THISTLE WEED,THISTLE WEED,THISTLE WEED","180,196.13893891939318,217.09687812912244,244.3164834778721,252.64106529438178,269.2039250745395,326.68824553813636,334.10681499970076","8,7,6,5,4,3,2,1","WHEAT CROP,WHEAT CROP,WHEAT CROP,WHEAT CROP,WHEAT CROP,WHEAT CROP,WHEAT CROP,WHEAT CROP","0,0,0,0,0,0,0,0","20,20,20,20,20,20,20,20","10,10,10,10,10,10,10,10","20,20,20,20,20,20,20,20","20,20,20,20,20,20,20,20","20,20,20,20,20,20,20,20","0,0,0,0,0,0,0,0","20,20,20,20,20,20,20,20","10,10,10,10,10,10,10,10","20,20,20,20,20,20,20,20","20,20,20,20,20,20,20,20","20,20,20,20,20,20,20,20","0,0,1,1,0,1,1,1","718,566,1531,684,456,414,675,440","-11.124208205992339,15.90716662112438,16.348819084316,24.557106946235713,-1.8384033412521474,52.20315022232843,3.285986266725754,-13.21793845219154","16.13893891939317,20.95793920972926,27.21960534874968,8.324581816509662,16.562859780157712,57.484320463596895,7.4185694615643865,-14.645982146304021","0","0"
"1475","86","text","0","157","1783073","0-0","","","","","","","","","","","","","","","","","","","","","","","","","","","","","","","","","","","","",""
"","","plant-game","0","158","1801994","0-0","","200","160","4","CORN CROP","Right","200","190","8","THISTLE WEED","experimental","66","1,2,3,4,5,6,7,8","190,195.96393698813952,209.45591756797953,254.26028552970433,313.99998092479495,326.9368774552959,360.82222889816103,373.75297634827615","8,7,6,5,4,3,2,1","THISTLE WEED,THISTLE WEED,THISTLE WEED,THISTLE WEED,THISTLE WEED,THISTLE WEED,THISTLE WEED,THISTLE WEED","160,155.97426207896046,146.618199129582,185.47664591121048,160,135.32219635461368,161.6761190568799,152.74979796954472","4,3,2,1,4,3,2,1","CORN CROP,CORN CROP,CORN CROP,CORN CROP,WHEAT CROP,WHEAT CROP,WHEAT CROP,WHEAT CROP","0,0,0,0,0,0,0,0","20,20,20,20,20,20,20,20","10,10,10,10,10,10,10,10","20,20,20,20,20,20,20,20","20,20,20,20,20,20,20,20","20,20,20,20,20,20,20,20","0,0,0,0,0,0,0,0","20,20,20,20,20,20,20,20","10,10,10,10,10,10,10,10","20,20,20,20,20,20,20,20","20,20,20,20,20,20,20,20","20,20,20,20,20,20,20,20","0,0,1,1,0,1,1,0","3093,587,849,681,3512,439,268,706","5.96393698813953,13.491980579839991,44.80436796172481,59.73969539509065,12.936896530500983,33.885351442865094,12.9307474501151,-12.356708671292875","-4.025737921039546,-9.356062949378462,38.85844678162847,25.59909225093436,-24.677803645386312,26.353922702266225,-8.926321087335193,-12.019952020081153","0","0"
"253","86","text","0","159","1802337","0-0","","","","","","","","","","","","","","","","","","","","","","","","","","","","","","","","","","","","",""
"","","plant-game","0","160","1815879","0-0","","200","120","8","WHEAT CROP","Left","200","180","2","THISTLE WEED","experimental","67","1,2,3,4,5,6,7,8","120,117.43553851473462,120.41484177651627,159.56452028761817,153.1285870473092,175.68479223853177,183.56161117712898,171.0329023400401","8,7,6,5,4,3,2,1","WHEAT CROP,WHEAT CROP,WHEAT CROP,WHEAT CROP,WHEAT CROP,WHEAT CROP,WHEAT CROP,WHEAT CROP","180,225.57834150123125,140,170.38463614529152,174.15809075678484,202.49328383832434,161.65327583833988,163.23042054862265","2,1,6,5,4,3,2,1","THISTLE WEED,THISTLE WEED,NETTLE WEED,NETTLE WEED,NETTLE WEED,NETTLE WEED,NETTLE WEED,NETTLE WEED","20,20,20,20,20,20,20,20","20,20,20,20,20,20,20,20","10,10,10,10,10,10,10,10","20,20,20,20,20,20,20,20","0,0,0,0,0,0,0,0","20,20,20,20,20,20,20,20","20,20,20,20,20,20,20,20","20,20,20,20,20,20,20,20","10,10,10,10,10,10,10,10","20,20,20,20,20,20,20,20","0,0,0,0,0,0,0,0","20,20,20,20,20,20,20,20","0,1,0,1,0,1,1,0","956,734,863,937,498,1375,500,697","-2.56446148526539,2.9793032617816544,39.14967851110189,-6.435933240308977,22.55620519122259,7.876818938597216,-12.528708837088873,-10.046903132440022","45.57834150123125,-21.328694924540827,30.384636145291516,3.773454611493308,28.3351930815395,-40.84000799998448,1.577144710282775,-12.864326148294708","0","0"
"701","86","text","0","161","1816720","0-0","","","","","","","","","","","","","","","","","","","","","","","","","","","","","","","","","","","","",""
"","","plant-game","0","162","1820990","0-0","","200","180","1","WHEAT CROP","Right","200","190","1","NETTLE WEED","experimental","68","1","190","1","NETTLE WEED","180","1","WHEAT CROP","0","20","10","20","20","20","0","20","10","20","20","20","0","571","-10.152005304798957","5.222978816898191","0","0"
"685","86","text","0","163","1821785","0-0","","","","","","","","","","","","","","","","","","","","","","","","","","","","","","","","","","","","",""
"","","plant-game","0","164","1826917","0-0","","200","180","2","CORN CROP","Left","200","180","2","THISTLE WEED","experimental","69","1,2","180,230.26046280413874","2,1","CORN CROP,CORN CROP","180,212.39018270224702","2,1","THISTLE WEED,THISTLE WEED","20,20","20,20","10,10","20,20","0,0","20,20","20,20","20,20","10,10","20,20","0,0","20,20","0,1","882,1225","50.260462804138726,13.808829597188964","32.39018270224701,3.9010920316760185","0","0"
"427","86","text","0","165","1827431","0-0","","","","","","","","","","","","","","","","","","","","","","","","","","","","","","","","","","","","",""
"","","plant-game","0","166","1831781","0-0","","200","120","2","CORN CROP","Right","200","190","2","THISTLE WEED","experimental","70","1,2","190,170.31052012292477","2,1","THISTLE WEED,THISTLE WEED","120,157.55910160700736","2,1","CORN CROP,CORN CROP","0,0","20,20","10,10","20,20","20,20","20,20","0,0","20,20","10,10","20,20","20,20","20,20","0,0","633,614","-19.68947987707522,-11.447005031472294","37.55910160700737,-27.087967143854577","0","0"
"116","86","text","0","167","1831977","0-0","","","","","","","","","","","","","","","","","","","","","","","","","","","","","","","","","","","","",""
"","","plant-game","0","168","1845921","0-0","","200","190","1","WHEAT CROP","Left","200","180","8","THISTLE WEED","experimental","71","1,2,3,4,5,6,7,8","190,130,162.61988798492231,180.05772965812355,201.48066061748736,227.55188454721468,204.2004318118177,234.5696990355887","1,7,6,5,4,3,2,1","WHEAT CROP,CORN CROP,CORN CROP,CORN CROP,CORN CROP,CORN CROP,CORN CROP,CORN CROP","180,216.62655533422333,242.55493064800112,242.8576390899691,223.7795514982532,201.9470566998884,199.6761976418361,186.3023920100065","8,7,6,5,4,3,2,1","THISTLE WEED,THISTLE WEED,THISTLE WEED,THISTLE WEED,THISTLE WEED,THISTLE WEED,THISTLE WEED,THISTLE WEED","20,20,20,20,20,20,20,20","20,20,20,20,20,20,20,20","10,10,10,10,10,10,10,10","20,20,20,20,20,20,20,20","0,0,0,0,0,0,0,0","20,20,20,20,20,20,20,20","20,20,20,20,20,20,20,20","20,20,20,20,20,20,20,20","10,10,10,10,10,10,10,10","20,20,20,20,20,20,20,20","0,0,0,0,0,0,0,0","20,20,20,20,20,20,20,20","0,0,1,1,1,1,1,1","3468,1131,703,464,599,453,425,475","33.07513436173231,32.619887984922315,17.437841673201227,21.422930959363818,26.07122392972733,-23.35145273539697,30.369267223770997,13.183743270919868","36.62655533422332,25.928375313777806,0.30270844196798574,-19.078087591715896,-21.832494798364802,-2.2708590580523134,-13.373805631829576,-24.389536458843605","0","0"
"579","86","text","0","169","1846620","0-0","","","","","","","","","","","","","","","","","","","","","","","","","","","","","","","","","","","","",""
"","","plant-game","0","170","1861720","0-0","","200","190","8","WHEAT CROP","Right","200","160","8","THISTLE WEED","experimental","72","1,2,3,4,5,6,7,8","160,167.58136413998614,190.42947333029065,205.33985284111736,238.91259569928445,246.7591689487581,274.5899625967114,297.4507960417673","8,7,6,5,4,3,2,1","THISTLE WEED,THISTLE WEED,THISTLE WEED,THISTLE WEED,THISTLE WEED,THISTLE WEED,THISTLE WEED,THISTLE WEED","190,237.22564499215594,280.9519715298409,309.2191808637943,308.2641244766366,318.5700868948692,323.93220523616105,348.450448569755","8,7,6,5,4,3,2,1","WHEAT CROP,WHEAT CROP,WHEAT CROP,WHEAT CROP,WHEAT CROP,WHEAT CROP,WHEAT CROP,WHEAT CROP","0,0,0,0,0,0,0,0","20,20,20,20,20,20,20,20","10,10,10,10,10,10,10,10","20,20,20,20,20,20,20,20","20,20,20,20,20,20,20,20","20,20,20,20,20,20,20,20","0,0,0,0,0,0,0,0","20,20,20,20,20,20,20,20","10,10,10,10,10,10,10,10","20,20,20,20,20,20,20,20","20,20,20,20,20,20,20,20","20,20,20,20,20,20,20,20","1,1,0,0,0,1,1,1","3766,2404,576,827,612,430,451,326","7.5813641399861496,22.848109190304505,14.910379510826708,33.57274285816708,7.8465732494736296,27.830793647953318,22.86083344505591,20.91585606133289","47.22564499215595,43.72632653768497,28.26720933395343,-0.955056387157675,10.305962418232596,5.362118341291904,24.51824333359395,31.84701494958247","1","0"
"185","86","text","0","171","1862015","0-0","","","","","","","","","","","","","","","","","","","","","","","","","","","","","","","","","","","","",""
"","","plant-game","0","172","1875943","0-0","","200","120","2","WHEAT CROP","Left","200","180","8","THISTLE WEED","experimental","73","1,2,3,4,5,6,7,8","120,146.52216559523262,140,146.0785029433209,164.31445162344772,188.49824732723116,222.5778360682339,236.07125315707592","2,1,6,5,4,3,2,1","WHEAT CROP,WHEAT CROP,CORN CROP,CORN CROP,CORN CROP,CORN CROP,CORN CROP,CORN CROP","180,176.60993071941527,178.23022540180332,160.65266121083357,169.0465381465097,163.30659528037808,180.69912520340299,158.29963512385407","8,7,6,5,4,3,2,1","THISTLE WEED,THISTLE WEED,THISTLE WEED,THISTLE WEED,THISTLE WEED,THISTLE WEED,THISTLE WEED,THISTLE WEED","20,20,20,20,20,20,20,20","20,20,20,20,20,20,20,20","10,10,10,10,10,10,10,10","20,20,20,20,20,20,20,20","0,0,0,0,0,0,0,0","20,20,20,20,20,20,20,20","20,20,20,20,20,20,20,20","20,20,20,20,20,20,20,20","10,10,10,10,10,10,10,10","20,20,20,20,20,20,20,20","0,0,0,0,0,0,0,0","20,20,20,20,20,20,20,20","0,0,1,1,1,1,1,1","653,1174,1090,503,644,531,1151,485","26.52216559523261,16.263889187785406,6.078502943320897,18.23594868012681,24.18379570378343,34.079588741002745,13.493417088842028,-1.2158281744877943","-3.390069280584733,1.6202946823880424,-17.577564190969767,8.393876935676133,-5.739942866131632,17.392529923024902,-22.399490079548904,0.6265557948163952","0","0"
"1119","86","text","0","173","1877232","0-0","","","","","","","","","","","","","","","","","","","","","","","","","","","","","","","","","","","","",""
"","","plant-game","0","174","1886188","0-0","","200","190","2","CORN CROP","Right","200","180","4","NETTLE WEED","experimental","74","1,2,3,4","180,162.0225330886344,181.6357563929346,183.47329824336106","4,3,2,1","NETTLE WEED,NETTLE WEED,NETTLE WEED,NETTLE WEED","190,181.09563343017356,180,185.94994407575416","2,1,2,1","CORN CROP,CORN CROP,WHEAT CROP,WHEAT CROP","0,0,0,0","20,20,20,20","10,10,10,10","20,20,20,20","20,20,20,20","20,20,20,20","0,0,0,0","20,20,20,20","10,10,10,10","20,20,20,20","20,20,20,20","20,20,20,20","0,1,0,1","897,414,668,793","-17.977466911365607,19.613223304300224,1.8375418504264371,31.642037299487","-8.90436656982645,17.111078688045154,5.9499440757541535,33.0236215681642","0","0"
"155","86","text","0","175","1886493","0-0","","","","","","","","","","","","","","","","","","","","","","","","","","","","","","","","","","","","",""
"","","plant-game","0","176","1899503","0-0","","200","160","8","WHEAT CROP","Left","200","120","1","THISTLE WEED","experimental","75","1,2,3,4,5,6,7,8","160,183.52083842617725,227.28825822026946,254.65091720945216,293.0105903941366,325.8709878843785,303.73317790463517,300.80818595678045","8,7,6,5,4,3,2,1","WHEAT CROP,WHEAT CROP,WHEAT CROP,WHEAT CROP,WHEAT CROP,WHEAT CROP,WHEAT CROP,WHEAT CROP","120,130,171.29181535599105,194.84338277029107,211.2089547502545,199.7507069327845,185.8586977776589,154.47471774434518","1,7,6,5,4,3,2,1","THISTLE WEED,NETTLE WEED,NETTLE WEED,NETTLE WEED,NETTLE WEED,NETTLE WEED,NETTLE WEED,NETTLE WEED","20,20,20,20,20,20,20,20","20,20,20,20,20,20,20,20","10,10,10,10,10,10,10,10","20,20,20,20,20,20,20,20","0,0,0,0,0,0,0,0","20,20,20,20,20,20,20,20","20,20,20,20,20,20,20,20","20,20,20,20,20,20,20,20","10,10,10,10,10,10,10,10","20,20,20,20,20,20,20,20","0,0,0,0,0,0,0,0","20,20,20,20,20,20,20,20","0,0,1,0,1,1,1,1","802,764,1021,1311,948,401,620,665","23.520838426177264,43.767419794092206,27.362658989182695,38.35967318468444,32.8603974902419,-22.137809979743345,-2.9249919478547195,6.204226080465433","41.98593382548482,41.291815355991034,23.55156741430003,16.36557197996342,-11.458247817469982,-13.892009155125615,-31.38398003331372,-12.892607567360342","0","0"
"497","86","text","0","177","1900080","0-0","","","","","","","","","","","","","","","","","","","","","","","","","","","","","","","","","","","","",""
"","","plant-game","0","178","1910207","0-0","","200","120","1","CORN CROP","Right","200","120","4","NETTLE WEED","experimental","76","1,2,3,4","120,105.02297590804059,103.82705015438405,132.22554426696115","4,3,2,1","NETTLE WEED,NETTLE WEED,NETTLE WEED,NETTLE WEED","120,170,218.05555126416613,271.74907335737834","1,3,2,1","CORN CROP,WHEAT CROP,WHEAT CROP,WHEAT CROP","0,0,0,0","20,20,20,20","10,10,10,10","20,20,20,20","20,20,20,20","20,20,20,20","0,0,0,0","20,20,20,20","10,10,10,10","20,20,20,20","20,20,20,20","20,20,20,20","0,1,1,1","517,2704,587,457","-14.977024091959414,-1.1959257536565424,28.398494112577083,13.53478863557801","-50.88886338676865,48.05555126416611,53.693522093212195,-4.6293813890812565","0","0"
"126","86","text","0","179","1910443","0-0","","","","","","","","","","","","","","","","","","","","","","","","","","","","","","","","","","","","",""
"","","plant-game","0","180","1920468","0-0","","200","190","4","CORN CROP","Right","200","190","4","THISTLE WEED","experimental","77","1,2,3,4","190,200.7199148115162,215.00612568691582,237.86871137391648","4,3,2,1","THISTLE WEED,THISTLE WEED,THISTLE WEED,THISTLE WEED","190,204.46116532751316,190.31959883235155,162.95717954106067","4,3,2,1","CORN CROP,CORN CROP,CORN CROP,CORN CROP","0,0,0,0","20,20,20,20","10,10,10,10","20,20,20,20","20,20,20,20","20,20,20,20","0,0,0,0","20,20,20,20","10,10,10,10","20,20,20,20","20,20,20,20","20,20,20,20","1,0,0,0","703,570,4598,720","10.719914811516178,14.28621087539964,22.86258568700067,-31.465188119292865","14.46116532751316,-14.14156649516162,-27.362419291290863,17.51925025663432","1","0"
"119","86","text","0","181","1920647","0-0","","","","","","","","","","","","","","","","","","","","","","","","","","","","","","","","","","","","",""
"","","plant-game","0","182","1929380","0-0","","200","160","2","CORN CROP","Right","200","160","1","NETTLE WEED","experimental","78","1,2","160,190","1,1","NETTLE WEED,THISTLE WEED","160,174.12319176055396","2,1","CORN CROP,CORN CROP","0,0","20,20","10,10","20,20","20,20","20,20","0,0","20,20","10,10","20,20","20,20","20,20","0,0","1629,786","50.66577198036651,2.0731669585713015","14.123191760553958,-7.390486087149855","0","0"
"137","86","text","0","183","1929617","0-0","","","","","","","","","","","","","","","","","","","","","","","","","","","","","","","","","","","","",""
"","","plant-game","0","184","1935814","0-0","","200","120","2","WHEAT CROP","Left","200","180","1","NETTLE WEED","experimental","79","1,2","120,156.331774195178","2,1","WHEAT CROP,WHEAT CROP","180,190","1,1","NETTLE WEED,THISTLE WEED","20,20","20,20","10,10","20,20","0,0","20,20","20,20","20,20","10,10","20,20","0,0","20,20","0,0","751,386","36.33177419517803,55.4287270464477","15.858787771727808,19.144431448695915","0","0"
"123","86","text","0","185","1936037","0-0","","","","","","","","","","","","","","","","","","","","","","","","","","","","","","","","","","","","",""
"","","plant-game","0","186","1940442","0-0","","200","180","1","CORN CROP","Right","200","120","1","NETTLE WEED","experimental","80","1","120","1","NETTLE WEED","180","1","CORN CROP","0","20","10","20","20","20","0","20","10","20","20","20","0","696","32.439310213142726","-31.051527505274365","0","0"
"130","86","text","0","187","1940682","0-0","","","","","","","","","","","","","","","","","","","","","","","","","","","","","","","","","","","","",""
