"rt","key_press","trial_type","trial_index","trial_index_global","time_elapsed","internal_chunk_id","responses","experimental_goal_height","experimental_start_height","experimental_weeks_total","experimental_crop_type","experimental_crop_side","fixed_goal_height","fixed_start_height","fixed_weeks_total","fixed_crop_type","trial_kind","trial_number","stage","left_current_height","left_weeks_remaining","left_crop_type","right_current_height","right_weeks_remaining","right_crop_type","mean_left_growth_given_left","sd_left_growth_given_left","mean_left_growth_given_middle","sd_left_growth_given_middle","mean_left_growth_given_right","sd_left_growth_given_right","mean_right_growth_given_left","sd_right_growth_given_left","mean_right_growth_given_middle","sd_right_growth_given_middle","mean_right_growth_given_right","sd_right_growth_given_right","response","response_time","left_growth","right_growth","other_key_pressed","mouse_clicked"
"9674553","87","text","0","0","9674649","0-0","","","","","","","","","","","","","","","","","","","","","","","","","","","","","","","","","","","","",""
"4956","","survey-text","0","1","9680653","0-0","{""Q0"":""18""}","","","","","","","","","","","","","","","","","","","","","","","","","","","","","","","","","","","",""
"4268","86","text","0","2","4361","0-0","","","","","","","","","","","","","","","","","","","","","","","","","","","","","","","","","","","","",""
"","","plant-game","0","3","86631","0-0","","200","120","8","WHEAT CROP","Left","200","120","8","THISTLE WEED","practice","1","1,2,3,4,5,6,7,8","120,140.25720272196648,152.55108726854084,129.27488551297085,137.9271115371514,118.41215446568981,142.9979407391303,136.00899613633914","8,7,6,5,4,3,2,1","WHEAT CROP,WHEAT CROP,WHEAT CROP,WHEAT CROP,WHEAT CROP,WHEAT CROP,WHEAT CROP,WHEAT CROP","120,97.52402423777258,101.47219063188751,158.9314921986821,146.33304323930867,151.8857145424898,183.242665078218,210.42999754895084","8,7,6,5,4,3,2,1","THISTLE WEED,THISTLE WEED,THISTLE WEED,THISTLE WEED,THISTLE WEED,THISTLE WEED,THISTLE WEED,THISTLE WEED","20,20,20,20,20,20,20,20","20,20,20,20,20,20,20,20","10,10,10,10,10,10,10,10","20,20,20,20,20,20,20,20","0,0,0,0,0,0,0,0","20,20,20,20,20,20,20,20","20,20,20,20,20,20,20,20","20,20,20,20,20,20,20,20","10,10,10,10,10,10,10,10","20,20,20,20,20,20,20,20","0,0,0,0,0,0,0,0","20,20,20,20,20,20,20,20","0,0,0,1,1,1,1,1","8271,6152,2161,2109,1105,951,2203,1400","20.257202721966486,12.293884546574358,-23.27620175557,8.652226024180553,-19.514957071461595,24.585786273440494,-6.9889446027911735,-23.464342869162238","-22.475975762227414,3.948166394114935,57.459301566794586,-12.598448959373425,5.552671303181147,31.356950535728195,27.18733247073282,0.7514996707421371","0","0"
"930","86","text","0","4","87631","0-0","","","","","","","","","","","","","","","","","","","","","","","","","","","","","","","","","","","","",""
"","","plant-game","0","5","101847","0-0","","200","160","4","WHEAT CROP","Left","200","160","4","NETTLE WEED","practice","2","1,2,3,4","160,173.7027889395871,140.8077635923738,163.43999531668385","4,3,2,1","WHEAT CROP,WHEAT CROP,WHEAT CROP,WHEAT CROP","160,189.9322259578505,201.00718722118899,234.01948247378144","4,3,2,1","NETTLE WEED,NETTLE WEED,NETTLE WEED,NETTLE WEED","20,20,20,20","20,20,20,20","10,10,10,10","20,20,20,20","0,0,0,0","20,20,20,20","20,20,20,20","20,20,20,20","10,10,10,10","20,20,20,20","0,0,0,0","20,20,20,20","0,1,1,1","1747,993,2848,393","13.702788939587093,-32.895025347213306,22.63223172431006,11.387110269904797","29.932225957850505,11.074961263338484,33.01229525259245,5.438565952051024","1","0"
"810","86","text","0","6","102817","0-0","","","","","","","","","","","","","","","","","","","","","","","","","","","","","","","","","","","","",""
"","","plant-game","0","7","114883","0-0","","200","180","2","CORN CROP","Left","200","180","2","NETTLE WEED","practice","3","1,2","180,188.98756340151294","2,1","CORN CROP,CORN CROP","180,222.81279435550482","2,1","NETTLE WEED,NETTLE WEED","20,20","20,20","10,10","20,20","0,0","20,20","20,20","20,20","10,10","20,20","0,0","20,20","0,1","2902,2085","8.987563401512952,-23.19719832898653","42.812794355504806,-4.8171762581859765","1","0"
"127","86","text","0","8","115100","0-0","","","","","","","","","","","","","","","","","","","","","","","","","","","","","","","","","","","","",""
"","","plant-game","0","9","127068","0-0","","200","190","1","CORN CROP","Left","200","190","1","NETTLE WEED","practice","4","1","190","1","CORN CROP","190","1","NETTLE WEED","20","20","10","20","0","20","20","20","10","20","0","20","1","4070","-5.190841526861146","21.424171951747645","0","0"
"120","86","text","0","10","127267","0-0","","","","","","","","","","","","","","","","","","","","","","","","","","","","","","","","","","","","",""
"","","plant-game","0","11","152440","0-0","","200","120","8","CORN CROP","Left","200","160","8","NETTLE WEED","practice","5","1,2,3,4,5,6,7,8","120,105.1090889006455,95.4022975262005,66.6870764962128,72.96824877193106,80.53929866107248,65.19799752016601,68.47790697907288","8,7,6,5,4,3,2,1","CORN CROP,CORN CROP,CORN CROP,CORN CROP,CORN CROP,CORN CROP,CORN CROP,CORN CROP","160,144.90855855310286,131.2639791273671,144.06138567942565,180.41472296199882,185.1764425116816,188.88276388420044,194.62010513647624","8,7,6,5,4,3,2,1","NETTLE WEED,NETTLE WEED,NETTLE WEED,NETTLE WEED,NETTLE WEED,NETTLE WEED,NETTLE WEED,NETTLE WEED","20,20,20,20,20,20,20,20","20,20,20,20,20,20,20,20","10,10,10,10,10,10,10,10","20,20,20,20,20,20,20,20","0,0,0,0,0,0,0,0","20,20,20,20,20,20,20,20","20,20,20,20,20,20,20,20","20,20,20,20,20,20,20,20","10,10,10,10,10,10,10,10","20,20,20,20,20,20,20,20","0,0,0,0,0,0,0,0","20,20,20,20,20,20,20,20","1,1,1,0,1,1,1,0","6553,493,449,878,1140,1787,1238,4629","-14.89091109935449,-9.706791374445011,-28.71522102998771,6.281172275718259,7.571049889141418,-15.34130114090646,3.279909458906878,40.8627237622855","-15.091441446897125,-13.64457942573576,12.797406552058572,36.35333728257316,4.761719549682782,3.7063213725188247,5.737341252275797,26.352837785067358","0","0"
"100","86","text","0","12","152600","0-0","","","","","","","","","","","","","","","","","","","","","","","","","","","","","","","","","","","","",""
"","","plant-game","0","13","179986","0-0","","200","180","4","CORN CROP","Left","200","160","4","THISTLE WEED","practice","6","1,2,3,4","180,221.70972767537572,237.79370583886015,253.3518535454884","4,3,2,1","CORN CROP,CORN CROP,CORN CROP,CORN CROP","160,195.9180545329639,211.07067439794795,214.86097658900638","4,3,2,1","THISTLE WEED,THISTLE WEED,THISTLE WEED,THISTLE WEED","20,20,20,20","20,20,20,20","10,10,10,10","20,20,20,20","0,0,0,0","20,20,20,20","20,20,20,20","20,20,20,20","10,10,10,10","20,20,20,20","0,0,0,0","20,20,20,20","0,1,1,1","2796,13891,713,298","41.70972767537572,16.083978163484428,15.558147706628272,27.521512202326925","35.91805453296391,15.152619864984057,3.790302191058425,26.586509102439592","0","0"
"876","86","text","0","14","180932","0-0","","","","","","","","","","","","","","","","","","","","","","","","","","","","","","","","","","","","",""
"","","plant-game","0","15","191938","0-0","","200","180","2","WHEAT CROP","Left","200","190","2","THISTLE WEED","practice","7","1,2","180,170.48225600373462","2,1","WHEAT CROP,WHEAT CROP","190,151.54644431424953","2,1","THISTLE WEED,THISTLE WEED","20,20","20,20","10,10","20,20","0,0","20,20","20,20","20,20","10,10","20,20","0,0","20,20","1,0","2076,644","-9.517743996265386,19.290841194263358","-38.45355568575048,20.77018472669067","0","0"
"965","86","text","0","16","193028","0-0","","","","","","","","","","","","","","","","","","","","","","","","","","","","","","","","","","","","",""
"","","plant-game","0","17","210530","0-0","","200","120","4","CORN CROP","Left","200","120","8","THISTLE WEED","practice","8","1,2,3,4,5,6,7,8","120,158.98465311937645,143.52470316757967,145.21383181199448,160,216.79078720222458,239.16466871816442,274.95624360688856","4,3,2,1,4,3,2,1","CORN CROP,CORN CROP,CORN CROP,CORN CROP,WHEAT CROP,WHEAT CROP,WHEAT CROP,WHEAT CROP","120,135.04312322658456,161.35406293329595,192.2816884547415,229.45670823250245,243.6311443064477,230.19708087332504,250.95391248225786","8,7,6,5,4,3,2,1","THISTLE WEED,THISTLE WEED,THISTLE WEED,THISTLE WEED,THISTLE WEED,THISTLE WEED,THISTLE WEED,THISTLE WEED","20,20,20,20,20,20,20,20","20,20,20,20,20,20,20,20","10,10,10,10,10,10,10,10","20,20,20,20,20,20,20,20","0,0,0,0,0,0,0,0","20,20,20,20,20,20,20,20","20,20,20,20,20,20,20,20","20,20,20,20,20,20,20,20","10,10,10,10,10,10,10,10","20,20,20,20,20,20,20,20","0,0,0,0,0,0,0,0","20,20,20,20,20,20,20,20","0,0,1,0,0,0,0,0","2225,293,620,608,3303,999,393,352","38.984653119376446,-15.459949951796787,1.6891286444148217,21.677358466696347,56.790787202224564,22.373881515939853,35.791574888724156,34.60054430976341","15.04312322658455,26.310939706711405,30.927625521445556,37.17501977776096,14.17443607394526,-13.434063433122688,20.756831608932814,21.685702250830946","0","0"
"692","86","text","0","18","211292","0-0","","","","","","","","","","","","","","","","","","","","","","","","","","","","","","","","","","","","",""
"","","plant-game","0","19","225390","0-0","","200","160","4","WHEAT CROP","Right","200","160","2","THISTLE WEED","practice","9","1,2,3,4","160,178.2509953033213,180,190.5752588196309","2,1,2,1","THISTLE WEED,THISTLE WEED,NETTLE WEED,NETTLE WEED","160,185.83641676986613,195.221294358214,213.91550060510846","4,3,2,1","WHEAT CROP,WHEAT CROP,WHEAT CROP,WHEAT CROP","0,0,0,0","20,20,20,20","10,10,10,10","20,20,20,20","20,20,20,20","20,20,20,20","0,0,0,0","20,20,20,20","10,10,10,10","20,20,20,20","20,20,20,20","20,20,20,20","0,1,0,1","1634,1067,2503,92","18.250995303321297,23.53425204844279,10.575258819630903,12.294781611487005","25.836416769866144,9.384877588347873,18.694206246894463,27.95246071242682","1","0"
"83","86","text","0","20","225533","0-0","","","","","","","","","","","","","","","","","","","","","","","","","","","","","","","","","","","","",""
"","","plant-game","0","21","241346","0-0","","200","180","2","CORN CROP","Left","200","180","1","THISTLE WEED","practice","10","1,2","180,216.19003397832648","2,1","CORN CROP,CORN CROP","180,190","1,1","THISTLE WEED,NETTLE WEED","20,20","20,20","10,10","20,20","0,0","20,20","20,20","20,20","10,10","20,20","0,0","20,20","0,1","281,6380","36.1900339783265,14.056665390743138","-21.375269786255593,29.648929496230515","2","0"
"154","86","text","0","22","241550","0-0","","","","","","","","","","","","","","","","","","","","","","","","","","","","","","","","","","","","",""
"","","plant-game","0","23","261240","0-0","","200","120","8","CORN CROP","Right","200","160","4","NETTLE WEED","practice","11","1,2,3,4,5,6,7,8","160,154.50314359710202,123.69070788623216,129.6698209491326,160,210.93094854773733,246.70328654056289,248.14551146164564","4,3,2,1,4,3,2,1","NETTLE WEED,NETTLE WEED,NETTLE WEED,NETTLE WEED,THISTLE WEED,THISTLE WEED,THISTLE WEED,THISTLE WEED","120,109.92535582117394,138.9025362385956,177.78538074557952,190.66802367641648,195.0514971117466,189.88031318623678,172.19423257618587","8,7,6,5,4,3,2,1","CORN CROP,CORN CROP,CORN CROP,CORN CROP,CORN CROP,CORN CROP,CORN CROP,CORN CROP","0,0,0,0,0,0,0,0","20,20,20,20,20,20,20,20","10,10,10,10,10,10,10,10","20,20,20,20,20,20,20,20","20,20,20,20,20,20,20,20","20,20,20,20,20,20,20,20","0,0,0,0,0,0,0,0","20,20,20,20,20,20,20,20","10,10,10,10,10,10,10,10","20,20,20,20,20,20,20,20","20,20,20,20,20,20,20,20","20,20,20,20,20,20,20,20","0,0,1,0,1,1,0,0","1285,389,1948,685,4209,1087,1043,73","-5.496856402897965,-30.81243571086987,5.97911306290043,10.499260635029472,50.93094854773733,35.77233799282557,1.4422249210827625,41.22153569761531","-10.074644178826064,28.97718041742166,38.88284450698394,12.882642930836962,4.3834734353301315,-5.17118392550984,-17.6860806100509,2.7368220845417057","0","0"
"236","86","text","0","24","261536","0-0","","","","","","","","","","","","","","","","","","","","","","","","","","","","","","","","","","","","",""
"","","plant-game","0","25","272846","0-0","","200","180","2","WHEAT CROP","Right","200","160","4","THISTLE WEED","practice","12","1,2,3,4","160,138.66447910196857,113.2584734200934,110.66228689667042","4,3,2,1","THISTLE WEED,THISTLE WEED,THISTLE WEED,THISTLE WEED","180,151.04261197797643,180,203.37532559264605","2,1,2,1","WHEAT CROP,WHEAT CROP,CORN CROP,CORN CROP","0,0,0,0","20,20,20,20","10,10,10,10","20,20,20,20","20,20,20,20","20,20,20,20","0,0,0,0","20,20,20,20","10,10,10,10","20,20,20,20","20,20,20,20","20,20,20,20","0,0,1,1","806,82,1576,346","-21.335520898031433,-25.406005681875165,-2.596186523422979,45.766314868004514","-28.957388022023572,-29.032241687627728,23.375325592646064,25.00416591477329","0","0"
"1860","86","text","0","26","274766","0-0","","","","","","","","","","","","","","","","","","","","","","","","","","","","","","","","","","","","",""
"13683","86","text","0","27","289573","0-0","","","","","","","","","","","","","","","","","","","","","","","","","","","","","","","","","","","","",""
"","","plant-game","0","28","294821","0-0","","200","120","1","CORN CROP","Left","200","160","1","NETTLE WEED","experimental","1","1","120","1","CORN CROP","160","1","NETTLE WEED","20","20","10","20","0","20","20","20","10","20","0","20","0","2058","0.22853873130714675","47.87070933921863","0","0"
"79","86","text","0","29","294970","0-0","","","","","","","","","","","","","","","","","","","","","","","","","","","","","","","","","","","","",""
"","","plant-game","0","30","311592","0-0","","200","190","8","CORN CROP","Right","200","160","2","NETTLE WEED","experimental","2","1,2,3,4,5,6,7,8","160,161.36160271323567,140,170.604338862691,212.7609890304122,246.15133269322956,257.8692083500468,301.72801851274943","2,1,6,5,4,3,2,1","NETTLE WEED,NETTLE WEED,THISTLE WEED,THISTLE WEED,THISTLE WEED,THISTLE WEED,THISTLE WEED,THISTLE WEED","190,210.29407534713158,222.0667847517119,214.5707034088869,224.99008745932457,254.52822883914763,260.1750489116119,280.278037761151","8,7,6,5,4,3,2,1","CORN CROP,CORN CROP,CORN CROP,CORN CROP,CORN CROP,CORN CROP,CORN CROP,CORN CROP","0,0,0,0,0,0,0,0","20,20,20,20,20,20,20,20","10,10,10,10,10,10,10,10","20,20,20,20,20,20,20,20","20,20,20,20,20,20,20,20","20,20,20,20,20,20,20,20","0,0,0,0,0,0,0,0","20,20,20,20,20,20,20,20","10,10,10,10,10,10,10,10","20,20,20,20,20,20,20,20","20,20,20,20,20,20,20,20","20,20,20,20,20,20,20,20","1,1,1,1,1,1,1,1","3948,2128,791,581,160,169,385,112","1.3616027132356798,41.813850093521964,30.604338862690998,42.156650167721196,33.39034366281737,11.717875656817244,43.85881016270262,27.570922986224932","20.294075347131574,11.772709404580311,-7.496081342824997,10.419384050437671,29.538141379823063,5.64682007246428,20.102988849539077,3.4189839615911595","0","0"
"98","86","text","0","31","311785","0-0","","","","","","","","","","","","","","","","","","","","","","","","","","","","","","","","","","","","",""
"","","plant-game","0","32","315131","0-0","","200","190","2","WHEAT CROP","Left","200","190","2","NETTLE WEED","experimental","3","1,2","190,167.77068185372417","2,1","WHEAT CROP,WHEAT CROP","190,222.76368180463123","2,1","NETTLE WEED,NETTLE WEED","20,20","20,20","10,10","20,20","0,0","20,20","20,20","20,20","10,10","20,20","0,0","20,20","0,1","587,25","-22.22931814627583,-4.722462033095098","32.763681804631226,-19.67458303058764","0","0"
"255","86","text","0","33","315456","0-0","","","","","","","","","","","","","","","","","","","","","","","","","","","","","","","","","","","","",""
"","","plant-game","0","34","323139","0-0","","200","180","8","WHEAT CROP","Left","200","120","8","NETTLE WEED","experimental","4","1,2,3,4,5,6,7,8","180,198.10853126932818,185.62952619361772,203.31324593000838,259.064305377322,236.2020722793244,268.1926986105761,293.61424357049316","8,7,6,5,4,3,2,1","WHEAT CROP,WHEAT CROP,WHEAT CROP,WHEAT CROP,WHEAT CROP,WHEAT CROP,WHEAT CROP,WHEAT CROP","120,141.96235278896083,153.67318347479906,151.31137167327722,172.56343989079807,162.75972010278127,135.1414251568458,105.85424666604472","8,7,6,5,4,3,2,1","NETTLE WEED,NETTLE WEED,NETTLE WEED,NETTLE WEED,NETTLE WEED,NETTLE WEED,NETTLE WEED,NETTLE WEED","20,20,20,20,20,20,20,20","20,20,20,20,20,20,20,20","10,10,10,10,10,10,10,10","20,20,20,20,20,20,20,20","0,0,0,0,0,0,0,0","20,20,20,20,20,20,20,20","20,20,20,20,20,20,20,20","20,20,20,20,20,20,20,20","10,10,10,10,10,10,10,10","20,20,20,20,20,20,20,20","0,0,0,0,0,0,0,0","20,20,20,20,20,20,20,20","0,0,0,0,1,1,1,1","612,91,105,447,2450,46,60,53","18.108531269328175,-12.479005075710447,17.683719736390657,55.751059447313644,-22.86223309799759,31.99062633125167,25.42154495991707,34.0353666073909","21.962352788960835,11.710830685838223,-2.361811801521828,21.252068217520847,-9.803719788016789,-27.61829494593547,-29.287178490801086,9.301888616915463","1","0"
"110","86","text","0","35","323299","0-0","","","","","","","","","","","","","","","","","","","","","","","","","","","","","","","","","","","","",""
"","","plant-game","0","36","338750","0-0","","200","190","4","WHEAT CROP","Left","200","120","8","THISTLE WEED","experimental","5","1,2,3,4,5,6,7,8","190,236.47720126691414,248.5617909821122,294.0015016148958,160,164.28032530090996,160.4198837291928,152.92822494671336","4,3,2,1,4,3,2,1","WHEAT CROP,WHEAT CROP,WHEAT CROP,WHEAT CROP,CORN CROP,CORN CROP,CORN CROP,CORN CROP","120,131.4861078898647,139.3805767911157,144.38892632940062,153.26007660060125,194.39767968888202,199.19267181101324,235.23760070714775","8,7,6,5,4,3,2,1","THISTLE WEED,THISTLE WEED,THISTLE WEED,THISTLE WEED,THISTLE WEED,THISTLE WEED,THISTLE WEED,THISTLE WEED","20,20,20,20,20,20,20,20","20,20,20,20,20,20,20,20","10,10,10,10,10,10,10,10","20,20,20,20,20,20,20,20","0,0,0,0,0,0,0,0","20,20,20,20,20,20,20,20","20,20,20,20,20,20,20,20","20,20,20,20,20,20,20,20","10,10,10,10,10,10,10,10","20,20,20,20,20,20,20,20","0,0,0,0,0,0,0,0","20,20,20,20,20,20,20,20","0,1,1,1,0,1,1,1","2969,2035,319,74,1986,1274,62,84","46.477201266914136,12.084589715198078,45.4397106327836,6.4903568223124495,4.280325300909951,-3.8604415717171667,-7.491658782479446,-30.067324472540573","11.486107889864723,7.894468901250983,5.0083495382849454,8.871150271200625,41.137603088280784,4.794992122131224,36.04492889613451,-31.208047726628912","0","0"
"91","86","text","0","37","338901","0-0","","","","","","","","","","","","","","","","","","","","","","","","","","","","","","","","","","","","",""
"","","plant-game","0","38","343458","0-0","","200","180","2","CORN CROP","Left","200","180","2","THISTLE WEED","experimental","6","1,2","180,239.5764822761626","2,1","CORN CROP,CORN CROP","180,196.29572517891216","2,1","THISTLE WEED,THISTLE WEED","20,20","20,20","10,10","20,20","0,0","20,20","20,20","20,20","10,10","20,20","0,0","20,20","0,0","971,74","59.57648227616262,10.24032574271066","16.29572517891217,29.83220573884331","2","0"
"119","86","text","0","39","343637","0-0","","","","","","","","","","","","","","","","","","","","","","","","","","","","","","","","","","","","",""
"","","plant-game","0","40","351947","0-0","","200","180","8","WHEAT CROP","Right","200","190","8","THISTLE WEED","experimental","7","1,2,3,4,5,6,7,8","190,212.94047176317116,236.00689344782276,213.1728432031527,224.95726692833833,211.59881375332526,213.39819765072798,205.1766339589541","8,7,6,5,4,3,2,1","THISTLE WEED,THISTLE WEED,THISTLE WEED,THISTLE WEED,THISTLE WEED,THISTLE WEED,THISTLE WEED,THISTLE WEED","180,185.77111659765725,175.3309854218672,142.96301921151064,178.8105553912559,199.98518955900238,200.9965656502964,210.86553083147518","8,7,6,5,4,3,2,1","WHEAT CROP,WHEAT CROP,WHEAT CROP,WHEAT CROP,WHEAT CROP,WHEAT CROP,WHEAT CROP,WHEAT CROP","0,0,0,0,0,0,0,0","20,20,20,20,20,20,20,20","10,10,10,10,10,10,10,10","20,20,20,20,20,20,20,20","20,20,20,20,20,20,20,20","20,20,20,20,20,20,20,20","0,0,0,0,0,0,0,0","20,20,20,20,20,20,20,20","10,10,10,10,10,10,10,10","20,20,20,20,20,20,20,20","20,20,20,20,20,20,20,20","20,20,20,20,20,20,20,20","0,1,0,0,0,1,1,1","4272,59,172,79,101,1,68,51","22.940471763171175,23.066421684651612,-22.834050244670067,11.784423725185622,-13.358453175013054,1.7993838974027234,-8.221563691773866,-13.265830452349562","5.771116597657249,-10.44013117579005,-32.36796621035656,35.84753617974526,21.17463416774649,1.0113760912940037,9.8689651811788,15.582175740832966","0","0"
"87","86","text","0","41","352094","0-0","","","","","","","","","","","","","","","","","","","","","","","","","","","","","","","","","","","","",""
"","","plant-game","0","42","361849","0-0","","200","160","4","CORN CROP","Left","200","180","8","THISTLE WEED","experimental","8","1,2,3,4,5,6,7,8","160,174.69272208494783,189.36078443062257,198.9873945141133,160,199.54107734492314,163.45142983969427,197.68515490566062","4,3,2,1,4,3,2,1","CORN CROP,CORN CROP,CORN CROP,CORN CROP,WHEAT CROP,WHEAT CROP,WHEAT CROP,WHEAT CROP","180,213.74027786294988,238.12174862996096,264.4988611455207,258.6982871724432,268.8502167745833,304.57444125984983,336.3735010858848","8,7,6,5,4,3,2,1","THISTLE WEED,THISTLE WEED,THISTLE WEED,THISTLE WEED,THISTLE WEED,THISTLE WEED,THISTLE WEED,THISTLE WEED","20,20,20,20,20,20,20,20","20,20,20,20,20,20,20,20","10,10,10,10,10,10,10,10","20,20,20,20,20,20,20,20","0,0,0,0,0,0,0,0","20,20,20,20,20,20,20,20","20,20,20,20,20,20,20,20","20,20,20,20,20,20,20,20","10,10,10,10,10,10,10,10","20,20,20,20,20,20,20,20","0,0,0,0,0,0,0,0","20,20,20,20,20,20,20,20","0,0,0,1,0,0,0,0","656,77,137,180,1418,69,87,118","14.692722084947839,14.668062345674747,9.626610083490721,0.3736939739085302,39.54107734492313,-36.089647505228875,34.233725065966354,27.072598937023848","33.740277862949895,24.381470767011095,26.37711251555974,-5.8005739730775305,10.1519296021401,35.72422448526652,31.79905982603496,0.008025804561878402","0","0"
"1191","86","text","0","43","363104","0-0","","","","","","","","","","","","","","","","","","","","","","","","","","","","","","","","","","","","",""
"","","plant-game","0","44","374069","0-0","","200","180","1","CORN CROP","Left","200","120","8","THISTLE WEED","experimental","9","1,2,3,4,5,6,7,8","180,130,122.62800388024968,113.78738900383733,132.36380146157103,146.89148172783288,147.12670550542575,130.05759561025837","1,7,6,5,4,3,2,1","CORN CROP,WHEAT CROP,WHEAT CROP,WHEAT CROP,WHEAT CROP,WHEAT CROP,WHEAT CROP,WHEAT CROP","120,140.82074469216116,124.71949222775247,166.77094503462456,195.22315129587554,202.8897477525339,182.88097479174007,187.2542870795137","8,7,6,5,4,3,2,1","THISTLE WEED,THISTLE WEED,THISTLE WEED,THISTLE WEED,THISTLE WEED,THISTLE WEED,THISTLE WEED,THISTLE WEED","20,20,20,20,20,20,20,20","20,20,20,20,20,20,20,20","10,10,10,10,10,10,10,10","20,20,20,20,20,20,20,20","0,0,0,0,0,0,0,0","20,20,20,20,20,20,20,20","20,20,20,20,20,20,20,20","20,20,20,20,20,20,20,20","10,10,10,10,10,10,10,10","20,20,20,20,20,20,20,20","0,0,0,0,0,0,0,0","20,20,20,20,20,20,20,20","0,0,0,0,1,1,1,0","55,2771,388,282,664,416,81,28","-3.2968421498382128,-7.3719961197503245,-8.840614876412346,18.57641245773369,14.52768026626186,0.23522377759285049,-17.06910989516737,43.47349900750807","20.820744692161156,-16.101252464408688,42.05145280687208,28.452206261250982,7.666596456658378,-20.00877296079384,4.3733122877736115,-13.158301612399043","1","0"
"124","86","text","0","45","374259","0-0","","","","","","","","","","","","","","","","","","","","","","","","","","","","","","","","","","","","",""
"","","plant-game","0","46","378683","0-0","","200","120","4","CORN CROP","Left","200","190","4","NETTLE WEED","experimental","10","1,2,3,4","120,139.75869963914505,174.0333824311727,180.49343206286514","4,3,2,1","CORN CROP,CORN CROP,CORN CROP,CORN CROP","190,224.85923758456238,213.15243824924463,204.44419452373586","4,3,2,1","NETTLE WEED,NETTLE WEED,NETTLE WEED,NETTLE WEED","20,20,20,20","20,20,20,20","10,10,10,10","20,20,20,20","0,0,0,0","20,20,20,20","20,20,20,20","20,20,20,20","10,10,10,10","20,20,20,20","0,0,0,0","20,20,20,20","0,0,1,0","867,67,11,1","19.758699639145064,34.27468279202763,6.460049631692444,53.198782420375764","34.85923758456238,-11.706799335317747,-8.708243725508765,8.601322801975776","1","0"
"92","86","text","0","47","378845","0-0","","","","","","","","","","","","","","","","","","","","","","","","","","","","","","","","","","","","",""
"","","plant-game","0","48","388193","0-0","","200","120","2","CORN CROP","Left","200","120","4","THISTLE WEED","experimental","11","1,2,3,4","120,141.82612933174403,180,207.04070198771078","2,1,2,1","CORN CROP,CORN CROP,WHEAT CROP,WHEAT CROP","120,139.1526296230186,128.70802096941594,137.49175576570943","4,3,2,1","THISTLE WEED,THISTLE WEED,THISTLE WEED,THISTLE WEED","20,20,20,20","20,20,20,20","10,10,10,10","20,20,20,20","0,0,0,0","20,20,20,20","20,20,20,20","20,20,20,20","10,10,10,10","20,20,20,20","0,0,0,0","20,20,20,20","0,0,0,0","5,102,1290,122","21.826129331744042,13.188720038168995,27.040701987710776,0.07950059769828499","19.152629623018615,-10.444608653602664,8.783734796293476,-7.096943364958136","0","0"
"703","86","text","0","49","388976","0-0","","","","","","","","","","","","","","","","","","","","","","","","","","","","","","","","","","","","",""
"","","plant-game","0","50","400531","0-0","","200","160","8","WHEAT CROP","Left","200","180","4","THISTLE WEED","experimental","12","1,2,3,4,5,6,7,8","160,167.97233418164575,185.38828799299307,232.53808979329546,235.63140847230898,258.91259880605537,259.6072901771821,264.6194252277571","8,7,6,5,4,3,2,1","WHEAT CROP,WHEAT CROP,WHEAT CROP,WHEAT CROP,WHEAT CROP,WHEAT CROP,WHEAT CROP,WHEAT CROP","180,190.33559768126213,154.72782784460946,164.44289703984788,160,170.76330366892486,177.70476246148803,233.49908498418156","4,3,2,1,4,3,2,1","THISTLE WEED,THISTLE WEED,THISTLE WEED,THISTLE WEED,NETTLE WEED,NETTLE WEED,NETTLE WEED,NETTLE WEED","20,20,20,20,20,20,20,20","20,20,20,20,20,20,20,20","10,10,10,10,10,10,10,10","20,20,20,20,20,20,20,20","0,0,0,0,0,0,0,0","20,20,20,20,20,20,20,20","20,20,20,20,20,20,20,20","20,20,20,20,20,20,20,20","10,10,10,10,10,10,10,10","20,20,20,20,20,20,20,20","0,0,0,0,0,0,0,0","20,20,20,20,20,20,20,20","0,1,0,0,0,1,0,0","961,1549,885,41,2195,18,1,192","7.972334181645744,17.415953811347325,47.1498018003024,3.0933186790135174,23.2811903337464,0.6946913711267135,5.012135050575033,56.350886314745104","10.335597681262128,-35.60776983665266,9.715069195238424,43.1536837261059,10.76330366892486,6.941458792563169,55.79432252269353,6.719854765743868","1","0"
"109","86","text","0","51","400720","0-0","","","","","","","","","","","","","","","","","","","","","","","","","","","","","","","","","","","","",""
"","","plant-game","0","52","407913","0-0","","200","160","2","WHEAT CROP","Left","200","120","1","THISTLE WEED","experimental","13","1,2","160,178.29460256323063","2,1","WHEAT CROP,WHEAT CROP","120,190","1,1","THISTLE WEED,NETTLE WEED","20,20","20,20","10,10","20,20","0,0","20,20","20,20","20,20","10,10","20,20","0,0","20,20","0,0","164,531","18.294602563230633,2.5547872294772134","45.125976816594196,18.748044687860165","0","0"
"146","86","text","0","53","408119","0-0","","","","","","","","","","","","","","","","","","","","","","","","","","","","","","","","","","","","",""
"","","plant-game","0","54","415533","0-0","","200","160","2","WHEAT CROP","Right","200","190","1","NETTLE WEED","experimental","14","1,2","190,190","1,1","NETTLE WEED,THISTLE WEED","160,198.06337076846938","2,1","WHEAT CROP,WHEAT CROP","0,0","20,20","10,10","20,20","20,20","20,20","0,0","20,20","10,10","20,20","20,20","20,20","0,0","220,1669","-37.26482761152933,28.61059031348482","38.0633707684694,4.8578997421730765","0","0"
"111","86","text","0","55","415694","0-0","","","","","","","","","","","","","","","","","","","","","","","","","","","","","","","","","","","","",""
"","","plant-game","0","56","423447","0-0","","200","180","8","CORN CROP","Right","200","160","8","THISTLE WEED","experimental","15","1,2,3,4,5,6,7,8","160,166.2785035520524,166.59615763309634,163.50650617296304,170.4527001594044,142.48328905557392,145.26429799411184,118.44813243654716","8,7,6,5,4,3,2,1","THISTLE WEED,THISTLE WEED,THISTLE WEED,THISTLE WEED,THISTLE WEED,THISTLE WEED,THISTLE WEED,THISTLE WEED","180,204.11408457556593,209.72243210834876,190.72330669191362,203.60295069294028,204.42208883875713,234.98179886013253,232.74443774721544","8,7,6,5,4,3,2,1","CORN CROP,CORN CROP,CORN CROP,CORN CROP,CORN CROP,CORN CROP,CORN CROP,CORN CROP","0,0,0,0,0,0,0,0","20,20,20,20,20,20,20,20","10,10,10,10,10,10,10,10","20,20,20,20,20,20,20,20","20,20,20,20,20,20,20,20","20,20,20,20,20,20,20,20","0,0,0,0,0,0,0,0","20,20,20,20,20,20,20,20","10,10,10,10,10,10,10,10","20,20,20,20,20,20,20,20","20,20,20,20,20,20,20,20","20,20,20,20,20,20,20,20","0,0,0,0,0,0,0,0","367,983,741,106,624,446,389,104","6.278503552052401,0.31765408104394605,-3.0896514601332967,6.946193986441345,-27.96941110383047,2.781008938537925,-26.816165557564684,-13.034521051288209","24.114084575565926,5.6083475327828385,-18.99912541643514,12.879644001026673,0.8191381458168543,30.559710021375395,-2.2373611129170756,-0.3708379505397049","0","0"
"105","86","text","0","57","423652","0-0","","","","","","","","","","","","","","","","","","","","","","","","","","","","","","","","","","","","",""
"","","plant-game","0","58","439549","0-0","","200","160","4","CORN CROP","Right","200","160","8","THISTLE WEED","experimental","16","1,2,3,4,5,6,7,8","160,183.81238588976368,207.90506163099406,213.7381450985668,213.37689945646963,236.38088124612565,208.88283727423595,192.97040087444745","8,7,6,5,4,3,2,1","THISTLE WEED,THISTLE WEED,THISTLE WEED,THISTLE WEED,THISTLE WEED,THISTLE WEED,THISTLE WEED,THISTLE WEED","160,189.8790099981685,214.56409070141362,191.58370674801972,160,146.69902067444238,144.8967748622934,158.95113259720696","4,3,2,1,4,3,2,1","CORN CROP,CORN CROP,CORN CROP,CORN CROP,WHEAT CROP,WHEAT CROP,WHEAT CROP,WHEAT CROP","0,0,0,0,0,0,0,0","20,20,20,20,20,20,20,20","10,10,10,10,10,10,10,10","20,20,20,20,20,20,20,20","20,20,20,20,20,20,20,20","20,20,20,20,20,20,20,20","0,0,0,0,0,0,0,0","20,20,20,20,20,20,20,20","10,10,10,10,10,10,10,10","20,20,20,20,20,20,20,20","20,20,20,20,20,20,20,20","20,20,20,20,20,20,20,20","0,1,0,0,0,0,0,0","9649,86,65,325,1173,1,76,55","23.812385889763668,24.092675741230387,5.833083467572746,-0.3612456420971628,23.003981789656024,-27.498043971889707,-15.912436399788499,14.399013838241379","29.879009998168485,24.68508070324512,-22.980383953393893,0.035174109893729114,-13.300979325557623,-1.8022458121489937,14.054357734913566,-5.5404688745128805","1","0"
"104","86","text","0","59","439854","0-0","","","","","","","","","","","","","","","","","","","","","","","","","","","","","","","","","","","","",""
"","","plant-game","0","60","447393","0-0","","200","190","4","WHEAT CROP","Right","200","180","2","NETTLE WEED","experimental","17","1,2,3,4","180,196.4340730989739,180,199.697198131388","2,1,2,1","NETTLE WEED,NETTLE WEED,THISTLE WEED,THISTLE WEED","190,191.92612306064885,178.904865776319,219.75738198166556","4,3,2,1","WHEAT CROP,WHEAT CROP,WHEAT CROP,WHEAT CROP","0,0,0,0","20,20,20,20","10,10,10,10","20,20,20,20","20,20,20,20","20,20,20,20","0,0,0,0","20,20,20,20","10,10,10,10","20,20,20,20","20,20,20,20","20,20,20,20","0,0,1,1","1062,91,1180,83","16.434073098973894,2.3172491824137547,19.697198131388,-22.82283965480402","1.92612306064886,-13.021257284329826,40.85251620534656,20.76849085478799","0","0"
"88","86","text","0","61","447571","0-0","","","","","","","","","","","","","","","","","","","","","","","","","","","","","","","","","","","","",""
"","","plant-game","0","62","455836","0-0","","200","120","1","WHEAT CROP","Right","200","180","8","THISTLE WEED","experimental","18","1,2,3,4,5,6,7,8","180,153.22217213595184,192.66440973538937,225.60592257407797,208.12758715364993,204.4225011457591,175.94279215770234,211.20113654933058","8,7,6,5,4,3,2,1","THISTLE WEED,THISTLE WEED,THISTLE WEED,THISTLE WEED,THISTLE WEED,THISTLE WEED,THISTLE WEED,THISTLE WEED","120,130,133.07541086545575,149.86299584217588,160.44240253888938,175.2709263554711,117.8556047871387,124.20153131719874","1,7,6,5,4,3,2,1","WHEAT CROP,CORN CROP,CORN CROP,CORN CROP,CORN CROP,CORN CROP,CORN CROP,CORN CROP","0,0,0,0,0,0,0,0","20,20,20,20,20,20,20,20","10,10,10,10,10,10,10,10","20,20,20,20,20,20,20,20","20,20,20,20,20,20,20,20","20,20,20,20,20,20,20,20","0,0,0,0,0,0,0,0","20,20,20,20,20,20,20,20","10,10,10,10,10,10,10,10","20,20,20,20,20,20,20,20","20,20,20,20,20,20,20,20","20,20,20,20,20,20,20,20","0,1,1,1,0,0,1,1","344,725,92,505,156,53,724,77","-26.77782786404817,39.44223759943752,32.94151283868858,-17.478335420428046,-3.7050860078908188,-28.47970898805675,35.25834439162824,25.366196842919365","16.884364063108457,3.075410865455737,16.787584976720133,10.579406696713514,14.8285238165817,-57.41532156833239,6.345926530060044,4.5723250356183485","0","0"
"208","86","text","0","63","456150","0-0","","","","","","","","","","","","","","","","","","","","","","","","","","","","","","","","","","","","",""
"","","plant-game","0","64","459469","0-0","","200","190","1","WHEAT CROP","Left","200","190","1","THISTLE WEED","experimental","19","1","190","1","WHEAT CROP","190","1","THISTLE WEED","20","20","10","20","0","20","20","20","10","20","0","20","0","564","35.16938770260671","25.343996477344678","0","0"
"110","86","text","0","65","459659","0-0","","","","","","","","","","","","","","","","","","","","","","","","","","","","","","","","","","","","",""
"","","plant-game","0","66","469993","0-0","","200","180","4","CORN CROP","Left","200","190","8","NETTLE WEED","experimental","20","1,2,3,4,5,6,7,8","180,191.97301442406211,237.24725277456815,269.8651824346544,160,160.0854692277276,177.4749787716408,175.59271411932528","4,3,2,1,4,3,2,1","CORN CROP,CORN CROP,CORN CROP,CORN CROP,WHEAT CROP,WHEAT CROP,WHEAT CROP,WHEAT CROP","190,222.97546899228067,265.89414640298537,327.9381241527226,337.4546085061907,373.9361862779401,402.36424914907604,446.3302596565733","8,7,6,5,4,3,2,1","NETTLE WEED,NETTLE WEED,NETTLE WEED,NETTLE WEED,NETTLE WEED,NETTLE WEED,NETTLE WEED,NETTLE WEED","20,20,20,20,20,20,20,20","20,20,20,20,20,20,20,20","10,10,10,10,10,10,10,10","20,20,20,20,20,20,20,20","0,0,0,0,0,0,0,0","20,20,20,20,20,20,20,20","20,20,20,20,20,20,20,20","20,20,20,20,20,20,20,20","10,10,10,10,10,10,10,10","20,20,20,20,20,20,20,20","0,0,0,0,0,0,0,0","20,20,20,20,20,20,20,20","0,0,0,0,0,0,0,0","90,204,73,3731,690,37,74,212","11.973014424062113,45.27423835050605,32.617929660086226,31.934326899725153,0.08546922772760723,17.389509543913196,-1.8822646523155058,25.22226170449013","32.975468992280675,42.91867741070471,62.04397774973724,9.516484353468115,36.48157777174944,28.42806287113595,43.96601050749724,15.84821580713789","0","0"
"110","86","text","0","67","470173","0-0","","","","","","","","","","","","","","","","","","","","","","","","","","","","","","","","","","","","",""
"","","plant-game","0","68","473486","0-0","","200","180","4","WHEAT CROP","Left","200","120","4","THISTLE WEED","experimental","21","1,2,3,4","180,190.7204606574519,217.4383990711967,226.96540672279062","4,3,2,1","WHEAT CROP,WHEAT CROP,WHEAT CROP,WHEAT CROP","120,155.73942534856724,189.18245432341524,205.20626938439133","4,3,2,1","THISTLE WEED,THISTLE WEED,THISTLE WEED,THISTLE WEED","20,20,20,20","20,20,20,20","10,10,10,10","20,20,20,20","0,0,0,0","20,20,20,20","20,20,20,20","20,20,20,20","10,10,10,10","20,20,20,20","0,0,0,0","20,20,20,20","0,0,0,0","73,63,286,71","10.720460657451891,26.717938413744804,9.52700765159391,35.1350426551772","35.73942534856723,33.44302897484802,16.023815060976084,20.42338088040929","0","0"
"99","86","text","0","69","473835","0-0","","","","","","","","","","","","","","","","","","","","","","","","","","","","","","","","","","","","",""
"","","plant-game","0","70","479611","0-0","","200","190","2","WHEAT CROP","Right","200","190","1","THISTLE WEED","experimental","22","1,2","190,190","1,1","THISTLE WEED,NETTLE WEED","190,180.7080605462174","2,1","WHEAT CROP,WHEAT CROP","0,0","20,20","10,10","20,20","20,20","20,20","0,0","20,20","10,10","20,20","20,20","20,20","0,1","34,887","-13.724994387128573,20.824917920868035","-9.291939453782577,15.203089860589964","0","0"
"86","86","text","0","71","479777","0-0","","","","","","","","","","","","","","","","","","","","","","","","","","","","","","","","","","","","",""
"","","plant-game","0","72","488397","0-0","","200","160","8","WHEAT CROP","Left","200","120","2","NETTLE WEED","experimental","23","1,2,3,4,5,6,7,8","160,160.62013920220733,160.45220461630194,153.33053853314092,157.3279751824765,148.43165467278513,154.72807604490026,194.68252384967388","8,7,6,5,4,3,2,1","WHEAT CROP,WHEAT CROP,WHEAT CROP,WHEAT CROP,WHEAT CROP,WHEAT CROP,WHEAT CROP,WHEAT CROP","120,105.17937662695459,140,165.08221814935158,192.4010763398914,225.06042829546237,244.89669554606164,250.23012894134365","2,1,6,5,4,3,2,1","NETTLE WEED,NETTLE WEED,THISTLE WEED,THISTLE WEED,THISTLE WEED,THISTLE WEED,THISTLE WEED,THISTLE WEED","20,20,20,20,20,20,20,20","20,20,20,20,20,20,20,20","10,10,10,10,10,10,10,10","20,20,20,20,20,20,20,20","0,0,0,0,0,0,0,0","20,20,20,20,20,20,20,20","20,20,20,20,20,20,20,20","20,20,20,20,20,20,20,20","10,10,10,10,10,10,10,10","20,20,20,20,20,20,20,20","0,0,0,0,0,0,0,0","20,20,20,20,20,20,20,20","0,0,0,0,1,1,0,0","269,783,622,34,482,444,977,48","0.6201392022073264,-0.16793458590538535,-7.121666083161024,3.997436649335569,-8.896320509691375,6.296421372115141,39.954447804773636,39.48198315482871","-14.820623373045414,19.7100329985622,25.082218149351576,27.31885819053982,32.659351955570955,19.83626725059927,5.333433395282029,-0.17421891762610642","0","0"
"78","86","text","0","73","488575","0-0","","","","","","","","","","","","","","","","","","","","","","","","","","","","","","","","","","","","",""
"","","plant-game","0","74","494476","0-0","","200","120","8","WHEAT CROP","Right","200","160","1","THISTLE WEED","experimental","24","1,2,3,4,5,6,7,8","160,130,157.95342832451306,191.54972271484132,192.6238422810768,183.84447387075969,235.90076225763613,268.25022295925686","1,7,6,5,4,3,2,1","THISTLE WEED,NETTLE WEED,NETTLE WEED,NETTLE WEED,NETTLE WEED,NETTLE WEED,NETTLE WEED,NETTLE WEED","120,145.67190348767963,136.17560006540162,153.9015755132802,165.16229158407498,170.66243218361427,187.52467119963106,188.10010184877984","8,7,6,5,4,3,2,1","WHEAT CROP,WHEAT CROP,WHEAT CROP,WHEAT CROP,WHEAT CROP,WHEAT CROP,WHEAT CROP,WHEAT CROP","0,0,0,0,0,0,0,0","20,20,20,20,20,20,20,20","10,10,10,10,10,10,10,10","20,20,20,20,20,20,20,20","20,20,20,20,20,20,20,20","20,20,20,20,20,20,20,20","0,0,0,0,0,0,0,0","20,20,20,20,20,20,20,20","10,10,10,10,10,10,10,10","20,20,20,20,20,20,20,20","20,20,20,20,20,20,20,20","20,20,20,20,20,20,20,20","0,1,1,1,1,1,1,1","333,533,79,81,98,86,64,63","13.149783108107524,27.95342832451305,33.59629439032827,1.0741195662354883,-8.779368410317126,52.05628838687645,32.34946070162072,47.13836676122767","25.671903487679636,-9.496303422278011,17.725975447878564,11.260716070794784,5.500140599539289,16.862239016016797,0.5754306491487959,29.1637262776144","0","0"
"77","86","text","0","75","494643","0-0","","","","","","","","","","","","","","","","","","","","","","","","","","","","","","","","","","","","",""
"","","plant-game","0","76","499583","0-0","","200","120","1","WHEAT CROP","Right","200","190","4","NETTLE WEED","experimental","25","1,2,3,4","190,196.59570767242258,194.04122934649325,197.5792145347392","4,3,2,1","NETTLE WEED,NETTLE WEED,NETTLE WEED,NETTLE WEED","120,170,180.69542757700046,168.51174390936728","1,3,2,1","WHEAT CROP,CORN CROP,CORN CROP,CORN CROP","0,0,0,0","20,20,20,20","10,10,10,10","20,20,20,20","20,20,20,20","20,20,20,20","0,0,0,0","20,20,20,20","10,10,10,10","20,20,20,20","20,20,20,20","20,20,20,20","0,1,1,1","38,522,66,78","6.595707672422577,-2.554478325929331,3.537985188245951,32.40142645981628","-6.884365684783562,10.695427577000453,-12.183683667633169,48.75719743286149","0","0"
"102","86","text","0","77","499765","0-0","","","","","","","","","","","","","","","","","","","","","","","","","","","","","","","","","","","","",""
"","","plant-game","0","78","506579","0-0","","200","120","8","WHEAT CROP","Left","200","160","2","THISTLE WEED","experimental","26","1,2,3,4,5,6,7,8","120,161.14454586481028,189.24864832954373,229.6025597399434,208.37860027302239,222.78853719515985,242.8060150752683,209.81877252168613","8,7,6,5,4,3,2,1","WHEAT CROP,WHEAT CROP,WHEAT CROP,WHEAT CROP,WHEAT CROP,WHEAT CROP,WHEAT CROP,WHEAT CROP","160,219.1387390636624,140,146.58918186158516,134.41626549828982,142.12263258802787,143.87863552008045,168.1217071088024","2,1,6,5,4,3,2,1","THISTLE WEED,THISTLE WEED,NETTLE WEED,NETTLE WEED,NETTLE WEED,NETTLE WEED,NETTLE WEED,NETTLE WEED","20,20,20,20,20,20,20,20","20,20,20,20,20,20,20,20","10,10,10,10,10,10,10,10","20,20,20,20,20,20,20,20","0,0,0,0,0,0,0,0","20,20,20,20,20,20,20,20","20,20,20,20,20,20,20,20","20,20,20,20,20,20,20,20","10,10,10,10,10,10,10,10","20,20,20,20,20,20,20,20","0,0,0,0,0,0,0,0","20,20,20,20,20,20,20,20","0,0,1,1,1,1,1,1","439,54,235,105,85,77,66,58","41.14454586481028,28.10410246473345,40.35391141039965,-21.223959466921013,14.409936922137476,20.017477880108473,-32.98724255358219,-7.350123964874924","59.13873906366241,30.652478070301967,6.589181861585166,-12.172916363295345,7.706367089738047,1.756002932052586,24.243071588721968,10.900586273619453","0","0"
"483","86","text","0","79","507182","0-0","","","","","","","","","","","","","","","","","","","","","","","","","","","","","","","","","","","","",""
"","","plant-game","0","80","511401","0-0","","200","120","2","WHEAT CROP","Left","200","120","1","NETTLE WEED","experimental","27","1,2","120,135.5822288927692","2,1","WHEAT CROP,WHEAT CROP","120,190","1,1","NETTLE WEED,THISTLE WEED","20,20","20,20","10,10","20,20","0,0","20,20","20,20","20,20","10,10","20,20","0,0","20,20","0,0","20,28","15.582228892769209,22.99199242066834","46.666388069784446,21.27375130575994","0","0"
"80","86","text","0","81","511571","0-0","","","","","","","","","","","","","","","","","","","","","","","","","","","","","","","","","","","","",""
"","","plant-game","0","82","518470","0-0","","200","180","2","CORN CROP","Left","200","160","8","THISTLE WEED","experimental","28","1,2,3,4,5,6,7,8","180,161.1906368960647,140,141.1913117801722,122.95286935433224,106.7277977278228,110.28994999924163,85.78330914589863","2,1,6,5,4,3,2,1","CORN CROP,CORN CROP,WHEAT CROP,WHEAT CROP,WHEAT CROP,WHEAT CROP,WHEAT CROP,WHEAT CROP","160,180.99197172167362,179.86281565646172,191.70634221498247,186.64724820380357,174.4160449082844,170.23649413754987,191.8977882645566","8,7,6,5,4,3,2,1","THISTLE WEED,THISTLE WEED,THISTLE WEED,THISTLE WEED,THISTLE WEED,THISTLE WEED,THISTLE WEED,THISTLE WEED","20,20,20,20,20,20,20,20","20,20,20,20,20,20,20,20","10,10,10,10,10,10,10,10","20,20,20,20,20,20,20,20","0,0,0,0,0,0,0,0","20,20,20,20,20,20,20,20","20,20,20,20,20,20,20,20","20,20,20,20,20,20,20,20","10,10,10,10,10,10,10,10","20,20,20,20,20,20,20,20","0,0,0,0,0,0,0,0","20,20,20,20,20,20,20,20","0,0,0,1,1,1,1,0","893,58,69,408,72,86,62,176","-18.809363103935304,17.153487874512848,1.1913117801722208,-18.23844242583998,-16.225071626509436,3.5621522714188214,-24.506640853342997,27.122616505308212","20.991971721673615,-1.1291560652118946,11.84352655852076,-5.059094011178895,-12.231203295519189,-4.179550770734509,21.66129412700673,32.37278879956341","0","0"
"749","86","text","0","83","519349","0-0","","","","","","","","","","","","","","","","","","","","","","","","","","","","","","","","","","","","",""
"","","plant-game","0","84","525569","0-0","","200","180","8","WHEAT CROP","Left","200","190","1","THISTLE WEED","experimental","29","1,2,3,4,5,6,7,8","180,214.55768775051303,216.02825388834486,213.82128503720574,224.21570124952788,223.1837017134051,247.13165803736396,303.33729801641687","8,7,6,5,4,3,2,1","WHEAT CROP,WHEAT CROP,WHEAT CROP,WHEAT CROP,WHEAT CROP,WHEAT CROP,WHEAT CROP,WHEAT CROP","190,130,166.43362068329705,164.01264134065917,184.63362417901166,175.9893941999382,165.37476030239168,223.6626209204639","1,7,6,5,4,3,2,1","THISTLE WEED,NETTLE WEED,NETTLE WEED,NETTLE WEED,NETTLE WEED,NETTLE WEED,NETTLE WEED,NETTLE WEED","20,20,20,20,20,20,20,20","20,20,20,20,20,20,20,20","10,10,10,10,10,10,10,10","20,20,20,20,20,20,20,20","0,0,0,0,0,0,0,0","20,20,20,20,20,20,20,20","20,20,20,20,20,20,20,20","20,20,20,20,20,20,20,20","10,10,10,10,10,10,10,10","20,20,20,20,20,20,20,20","0,0,0,0,0,0,0,0","20,20,20,20,20,20,20,20","0,0,0,0,0,0,0,0","672,889,147,60,157,67,93,194","34.55768775051304,1.4705661378318453,-2.206968851139134,10.394416212322149,-1.0319995361227718,23.947956323958863,56.20563997905292,-10.856404393420505","42.100473114987174,36.43362068329705,-2.4209793426378923,20.62098283835249,-8.644229979073465,-10.614633897546515,58.2878606180722,36.78433037809833","0","0"
"266","86","text","0","85","525915","0-0","","","","","","","","","","","","","","","","","","","","","","","","","","","","","","","","","","","","",""
"","","plant-game","0","86","533703","0-0","","200","160","4","WHEAT CROP","Right","200","160","2","NETTLE WEED","experimental","30","1,2,3,4","160,154.26193810058496,180,147.90990679377512","2,1,2,1","NETTLE WEED,NETTLE WEED,THISTLE WEED,THISTLE WEED","160,195.111719605092,217.00723335497014,218.15031447117167","4,3,2,1","WHEAT CROP,WHEAT CROP,WHEAT CROP,WHEAT CROP","0,0,0,0","20,20,20,20","10,10,10,10","20,20,20,20","20,20,20,20","20,20,20,20","0,0,0,0","20,20,20,20","10,10,10,10","20,20,20,20","20,20,20,20","20,20,20,20","0,0,0,0","333,47,3212,37","-5.73806189941505,-7.15960027451648,-32.09009320622488,31.331619318897474","35.11171960509198,21.89551374987814,1.1430811162015282,-24.511074926819223","0","0"
"285","86","text","0","87","534098","0-0","","","","","","","","","","","","","","","","","","","","","","","","","","","","","","","","","","","","",""
"","","plant-game","0","88","536894","0-0","","200","160","2","WHEAT CROP","Left","200","180","2","NETTLE WEED","experimental","31","1,2","160,225.5839318645841","2,1","WHEAT CROP,WHEAT CROP","180,196.09480791555097","2,1","NETTLE WEED,NETTLE WEED","20,20","20,20","10,10","20,20","0,0","20,20","20,20","20,20","10,10","20,20","0,0","20,20","0,0","56,3","65.58393186458407,15.170701845541974","16.094807915550977,17.607998802129387","0","0"
"102","86","text","0","89","537086","0-0","","","","","","","","","","","","","","","","","","","","","","","","","","","","","","","","","","","","",""
"","","plant-game","0","90","545598","0-0","","200","120","1","WHEAT CROP","Right","200","190","8","THISTLE WEED","experimental","32","1,2,3,4,5,6,7,8","190,184.85306508370834,184.51073026768336,165.7179113908315,153.08622054660304,136.85503114455585,137.10900135023584,111.47529668529438","8,7,6,5,4,3,2,1","THISTLE WEED,THISTLE WEED,THISTLE WEED,THISTLE WEED,THISTLE WEED,THISTLE WEED,THISTLE WEED,THISTLE WEED","120,130,127.8170040411078,155.13951459902643,167.2822275619675,149.80026148243672,135.79478945794776,132.06983312935398","1,7,6,5,4,3,2,1","WHEAT CROP,CORN CROP,CORN CROP,CORN CROP,CORN CROP,CORN CROP,CORN CROP,CORN CROP","0,0,0,0,0,0,0,0","20,20,20,20,20,20,20,20","10,10,10,10,10,10,10,10","20,20,20,20,20,20,20,20","20,20,20,20,20,20,20,20","20,20,20,20,20,20,20,20","0,0,0,0,0,0,0,0","20,20,20,20,20,20,20,20","10,10,10,10,10,10,10,10","20,20,20,20,20,20,20,20","20,20,20,20,20,20,20,20","20,20,20,20,20,20,20,20","0,0,0,0,0,0,0,0","77,1168,113,114,175,322,449,427","-5.146934916291651,-0.34233481602497695,-18.792818876851882,-12.63169084422844,-16.231189402047185,0.25397020567998485,-25.63370466494147,-34.6164224286499","-11.77382941484533,-2.182995958892207,27.322510557918637,12.142712962941067,-17.481966079530768,-14.005472024488961,-3.7249563285937723,-27.22657793195546","0","0"
"178","86","text","0","91","545846","0-0","","","","","","","","","","","","","","","","","","","","","","","","","","","","","","","","","","","","",""
"","","plant-game","0","92","554465","0-0","","200","190","4","WHEAT CROP","Right","200","120","2","THISTLE WEED","experimental","33","1,2,3,4","120,93.79743392825385,180,204.73545462578787","2,1,2,1","THISTLE WEED,THISTLE WEED,NETTLE WEED,NETTLE WEED","190,200.74746212327966,162.4729973499597,177.24796869325334","4,3,2,1","WHEAT CROP,WHEAT CROP,WHEAT CROP,WHEAT CROP","0,0,0,0","20,20,20,20","10,10,10,10","20,20,20,20","20,20,20,20","20,20,20,20","0,0,0,0","20,20,20,20","10,10,10,10","20,20,20,20","20,20,20,20","20,20,20,20","0,0,1,0","435,144,1882,413","-26.202566071746144,15.146755754502745,24.735454625787856,-7.504793967365498","10.747462123279647,-38.274464773319934,14.77497134329362,3.4191720649683432","0","0"
"74","86","text","0","93","554639","0-0","","","","","","","","","","","","","","","","","","","","","","","","","","","","","","","","","","","","",""
"","","plant-game","0","94","558322","0-0","","200","180","2","WHEAT CROP","Left","200","190","2","NETTLE WEED","experimental","34","1,2","180,182.96171531378076","2,1","WHEAT CROP,WHEAT CROP","190,183.44204327586286","2,1","NETTLE WEED,NETTLE WEED","20,20","20,20","10,10","20,20","0,0","20,20","20,20","20,20","10,10","20,20","0,0","20,20","0,0","906,81","2.9617153137807435,24.57576488339616","-6.557956724137153,30.210935578058994","0","0"
"175","86","text","0","95","558617","0-0","","","","","","","","","","","","","","","","","","","","","","","","","","","","","","","","","","","","",""
"","","plant-game","0","96","563856","0-0","","200","190","2","WHEAT CROP","Left","200","160","1","THISTLE WEED","experimental","35","1,2","190,194.92553986356617","2,1","WHEAT CROP,WHEAT CROP","160,190","1,1","THISTLE WEED,NETTLE WEED","20,20","20,20","10,10","20,20","0,0","20,20","20,20","20,20","10,10","20,20","0,0","20,20","0,0","799,488","4.925539863566183,35.688647439709825","18.296183848518375,8.771093221902744","0","0"
"96","86","text","0","97","564052","0-0","","","","","","","","","","","","","","","","","","","","","","","","","","","","","","","","","","","","",""
"","","plant-game","0","98","569297","0-0","","200","160","8","CORN CROP","Left","200","160","8","NETTLE WEED","experimental","36","1,2,3,4,5,6,7,8","160,213.92381744105072,234.42659067386083,238.0542761194621,232.50362061217993,235.70510956241273,243.4950776399741,237.05081866939517","8,7,6,5,4,3,2,1","CORN CROP,CORN CROP,CORN CROP,CORN CROP,CORN CROP,CORN CROP,CORN CROP,CORN CROP","160,163.20910210145468,160.7164345711718,135.04698302134443,127.72759610517137,142.06529359682665,143.14213069445046,124.3237043905207","8,7,6,5,4,3,2,1","NETTLE WEED,NETTLE WEED,NETTLE WEED,NETTLE WEED,NETTLE WEED,NETTLE WEED,NETTLE WEED,NETTLE WEED","20,20,20,20,20,20,20,20","20,20,20,20,20,20,20,20","10,10,10,10,10,10,10,10","20,20,20,20,20,20,20,20","0,0,0,0,0,0,0,0","20,20,20,20,20,20,20,20","20,20,20,20,20,20,20,20","20,20,20,20,20,20,20,20","10,10,10,10,10,10,10,10","20,20,20,20,20,20,20,20","0,0,0,0,0,0,0,0","20,20,20,20,20,20,20,20","0,1,1,1,1,1,1,1","356,1512,117,125,102,75,87,102","53.923817441050716,20.502773232810124,3.6276854456012666,-5.550655507282169,3.201488950232813,7.789968077561377,-6.444258970578946,-25.847563267434847","3.2091021014546683,-2.4926675302828967,-25.669451549827357,-7.319386916173057,14.337697491655273,1.076837097623805,-18.81842630392975,10.916912868046913","0","0"
"110","86","text","0","99","569463","0-0","","","","","","","","","","","","","","","","","","","","","","","","","","","","","","","","","","","","",""
"","","plant-game","0","100","576737","0-0","","200","180","2","CORN CROP","Left","200","120","1","THISTLE WEED","experimental","37","1,2","180,222.32905733889692","2,1","CORN CROP,CORN CROP","120,190","1,1","THISTLE WEED,NETTLE WEED","20,20","20,20","10,10","20,20","0,0","20,20","20,20","20,20","10,10","20,20","0,0","20,20","0,1","1463,945","42.32905733889692,2.298931381130673","38.13515580368181,4.070836331183429","0","0"
"726","86","text","0","101","577603","0-0","","","","","","","","","","","","","","","","","","","","","","","","","","","","","","","","","","","","",""
"","","plant-game","0","102","586883","0-0","","200","120","1","CORN CROP","Left","200","120","8","THISTLE WEED","experimental","38","1,2,3,4,5,6,7,8","120,130,143.7048067785744,153.4165165986258,164.80970583970324,191.4012104037144,176.00774479406124,172.19146730593044","1,7,6,5,4,3,2,1","CORN CROP,WHEAT CROP,WHEAT CROP,WHEAT CROP,WHEAT CROP,WHEAT CROP,WHEAT CROP,WHEAT CROP","120,153.30053029732466,168.68689113656686,173.29189498712083,207.2305795204366,203.8095832275423,222.64888971309696,239.90346991209321","8,7,6,5,4,3,2,1","THISTLE WEED,THISTLE WEED,THISTLE WEED,THISTLE WEED,THISTLE WEED,THISTLE WEED,THISTLE WEED,THISTLE WEED","20,20,20,20,20,20,20,20","20,20,20,20,20,20,20,20","10,10,10,10,10,10,10,10","20,20,20,20,20,20,20,20","0,0,0,0,0,0,0,0","20,20,20,20,20,20,20,20","20,20,20,20,20,20,20,20","20,20,20,20,20,20,20,20","10,10,10,10,10,10,10,10","20,20,20,20,20,20,20,20","0,0,0,0,0,0,0,0","20,20,20,20,20,20,20,20","0,0,0,0,0,0,0,0","885,1894,84,136,418,82,576,65","33.28824196751923,13.704806778574405,9.711709820051391,11.393189241077437,26.591504564011153,-15.393465609653148,-3.816277488130794,34.77025858162655","33.30053029732466,15.3863608392422,4.605003850553967,33.938684533315765,-3.4209962928942943,18.839306485554662,17.254580198996262,51.638754418073106","0","0"
"80","86","text","0","103","587063","0-0","","","","","","","","","","","","","","","","","","","","","","","","","","","","","","","","","","","","",""
"","","plant-game","0","104","593023","0-0","","200","160","1","WHEAT CROP","Left","200","120","4","THISTLE WEED","experimental","39","1,2,3,4","160,170,196.9510651486924,204.59876130115575","1,3,2,1","WHEAT CROP,CORN CROP,CORN CROP,CORN CROP","120,152.9097972356646,140.62401885692174,162.38210708834296","4,3,2,1","THISTLE WEED,THISTLE WEED,THISTLE WEED,THISTLE WEED","20,20,20,20","20,20,20,20","10,10,10,10","20,20,20,20","0,0,0,0","20,20,20,20","20,20,20,20","20,20,20,20","10,10,10,10","20,20,20,20","0,0,0,0","20,20,20,20","0,1,1,1","651,729,132,243","40.52755029773498,26.95106514869242,7.647696152463352,15.60294697428182","32.9097972356646,-12.28577837874285,21.758088231421226,2.4586632882456643","0","0"
"233","86","text","0","105","593356","0-0","","","","","","","","","","","","","","","","","","","","","","","","","","","","","","","","","","","","",""
"","","plant-game","0","106","601169","0-0","","200","190","2","CORN CROP","Left","200","160","8","THISTLE WEED","experimental","40","1,2,3,4,5,6,7,8","190,198.3841618572658,140,168.42822016690874,163.48298080226522,163.08470240974188,159.2768987511174,182.3735891635681","2,1,6,5,4,3,2,1","CORN CROP,CORN CROP,WHEAT CROP,WHEAT CROP,WHEAT CROP,WHEAT CROP,WHEAT CROP,WHEAT CROP","160,143.98611990532044,144.7881490611495,129.30612496205282,95.01932709386125,110.69617191763083,104.25089246053041,152.19445263377284","8,7,6,5,4,3,2,1","THISTLE WEED,THISTLE WEED,THISTLE WEED,THISTLE WEED,THISTLE WEED,THISTLE WEED,THISTLE WEED,THISTLE WEED","20,20,20,20,20,20,20,20","20,20,20,20,20,20,20,20","10,10,10,10,10,10,10,10","20,20,20,20,20,20,20,20","0,0,0,0,0,0,0,0","20,20,20,20,20,20,20,20","20,20,20,20,20,20,20,20","20,20,20,20,20,20,20,20","10,10,10,10,10,10,10,10","20,20,20,20,20,20,20,20","0,0,0,0,0,0,0,0","20,20,20,20,20,20,20,20","0,0,1,1,1,1,0,0","713,132,547,380,55,413,278,416","8.384161857265802,53.06141731646653,28.42822016690875,-4.945239364643513,-0.3982783925233476,-3.8078036586245068,23.09669041245074,6.000141500065618","-16.01388009467958,0.8020291558290893,-15.482024099096684,-34.28679786819157,15.676844823769578,-6.445279457100424,47.94356017324244,13.571029082599788","0","0"
"181","86","text","0","107","601450","0-0","","","","","","","","","","","","","","","","","","","","","","","","","","","","","","","","","","","","",""
"","","plant-game","0","108","604332","0-0","","200","180","1","WHEAT CROP","Left","200","190","1","THISTLE WEED","experimental","41","1","180","1","WHEAT CROP","190","1","THISTLE WEED","20","20","10","20","0","20","20","20","10","20","0","20","0","67","42.61680740480704","33.79860852225639","0","0"
"706","86","text","0","109","605178","0-0","","","","","","","","","","","","","","","","","","","","","","","","","","","","","","","","","","","","",""
"","","plant-game","0","110","609721","0-0","","200","160","1","WHEAT CROP","Right","200","180","2","THISTLE WEED","experimental","42","1,2","180,217.3708849281134","2,1","THISTLE WEED,THISTLE WEED","160,190","1,1","WHEAT CROP,CORN CROP","0,0","20,20","10,10","20,20","20,20","20,20","0,0","20,20","10,10","20,20","20,20","20,20","0,0","1019,179","37.3708849281134,-4.903541367307151","-29.886613541547167,16.426821810711086","0","0"
"67","86","text","0","111","609900","0-0","","","","","","","","","","","","","","","","","","","","","","","","","","","","","","","","","","","","",""
"","","plant-game","0","112","615511","0-0","","200","160","2","CORN CROP","Right","200","120","4","NETTLE WEED","experimental","43","1,2,3,4","120,139.93321997140586,135.47210206110353,140.04897698609406","4,3,2,1","NETTLE WEED,NETTLE WEED,NETTLE WEED,NETTLE WEED","160,172.67313548922604,180,205.21610500057324","2,1,2,1","CORN CROP,CORN CROP,WHEAT CROP,WHEAT CROP","0,0,0,0","20,20,20,20","10,10,10,10","20,20,20,20","20,20,20,20","20,20,20,20","0,0,0,0","20,20,20,20","10,10,10,10","20,20,20,20","20,20,20,20","20,20,20,20","0,0,1,1","683,85,391,606","19.93321997140586,-4.461117910302339,4.576874924990538,9.602109531864837","12.67313548922604,-1.6003894576846123,25.216105000573247,-15.961134888098066","0","0"
"147","86","text","0","113","615828","0-0","","","","","","","","","","","","","","","","","","","","","","","","","","","","","","","","","","","","",""
"","","plant-game","0","114","620588","0-0","","200","160","4","WHEAT CROP","Right","200","120","1","THISTLE WEED","experimental","44","1,2,3,4","120,170,226.85423299758665,256.11505225299686","1,3,2,1","THISTLE WEED,NETTLE WEED,NETTLE WEED,NETTLE WEED","160,170.69998402154994,170.16351857822696,180.58107473539886","4,3,2,1","WHEAT CROP,WHEAT CROP,WHEAT CROP,WHEAT CROP","0,0,0,0","20,20,20,20","10,10,10,10","20,20,20,20","20,20,20,20","20,20,20,20","0,0,0,0","20,20,20,20","10,10,10,10","20,20,20,20","20,20,20,20","20,20,20,20","0,1,1,0","532,0,130,63","0.9034645230177563,56.85423299758665,29.260819255410233,30.45184525038595","10.699984021549923,-0.536465443322971,10.41755615717191,-14.541152136138603","0","0"
"70","86","text","0","115","620758","0-0","","","","","","","","","","","","","","","","","","","","","","","","","","","","","","","","","","","","",""
"","","plant-game","0","116","624528","0-0","","200","160","8","WHEAT CROP","Left","200","190","8","THISTLE WEED","experimental","45","1,2,3,4,5,6,7,8","160,175.0595913822502,233.10849859404334,277.99079296877636,308.1781725277622,309.6671482928996,327.96077842115807,305.885782129343","8,7,6,5,4,3,2,1","WHEAT CROP,WHEAT CROP,WHEAT CROP,WHEAT CROP,WHEAT CROP,WHEAT CROP,WHEAT CROP,WHEAT CROP","190,222.6913051676532,211.72859430432135,217.73638190667546,219.52070026902229,221.5777515549177,201.85691930532883,214.3185858689682","8,7,6,5,4,3,2,1","THISTLE WEED,THISTLE WEED,THISTLE WEED,THISTLE WEED,THISTLE WEED,THISTLE WEED,THISTLE WEED,THISTLE WEED","20,20,20,20,20,20,20,20","20,20,20,20,20,20,20,20","10,10,10,10,10,10,10,10","20,20,20,20,20,20,20,20","0,0,0,0,0,0,0,0","20,20,20,20,20,20,20,20","20,20,20,20,20,20,20,20","20,20,20,20,20,20,20,20","10,10,10,10,10,10,10,10","20,20,20,20,20,20,20,20","0,0,0,0,0,0,0,0","20,20,20,20,20,20,20,20","0,0,0,1,0,1,1,1","377,29,115,30,197,83,94,90","15.0595913822502,58.04890721179315,44.88229437473304,30.187379558985818,1.4889757651374005,18.29363012825847,-22.074996291815047,8.477009051587983","32.69130516765322,-10.962710863331864,6.007787602354123,1.7843183623468266,2.057051285895419,-19.720832249588888,12.461666563639373,21.456049937936427","0","0"
"99","86","text","0","117","624717","0-0","","","","","","","","","","","","","","","","","","","","","","","","","","","","","","","","","","","","",""
"","","plant-game","0","118","630895","0-0","","200","120","1","CORN CROP","Right","200","180","2","NETTLE WEED","experimental","46","1,2","180,157.81109591289294","2,1","NETTLE WEED,NETTLE WEED","120,190","1,1","CORN CROP,WHEAT CROP","0,0","20,20","10,10","20,20","20,20","20,20","0,0","20,20","10,10","20,20","20,20","20,20","0,1","593,578","-22.188904087107048,41.48684977686225","5.367107647430787,-7.547349589369091","0","0"
"132","86","text","0","119","631107","0-0","","","","","","","","","","","","","","","","","","","","","","","","","","","","","","","","","","","","",""
"","","plant-game","0","120","635307","0-0","","200","160","8","WHEAT CROP","Left","200","180","8","NETTLE WEED","experimental","47","1,2,3,4,5,6,7,8","160,214.24903587828072,233.20275328965698,270.1513136016357,243.73752586091928,245.37293317433148,255.56760549140884,264.1426303666138","8,7,6,5,4,3,2,1","WHEAT CROP,WHEAT CROP,WHEAT CROP,WHEAT CROP,WHEAT CROP,WHEAT CROP,WHEAT CROP,WHEAT CROP","180,210.615649795965,215.39679930042368,251.27028934717083,258.2571730328491,280.54420736231043,270.75520271019957,268.8113735257226","8,7,6,5,4,3,2,1","NETTLE WEED,NETTLE WEED,NETTLE WEED,NETTLE WEED,NETTLE WEED,NETTLE WEED,NETTLE WEED,NETTLE WEED","20,20,20,20,20,20,20,20","20,20,20,20,20,20,20,20","10,10,10,10,10,10,10,10","20,20,20,20,20,20,20,20","0,0,0,0,0,0,0,0","20,20,20,20,20,20,20,20","20,20,20,20,20,20,20,20","20,20,20,20,20,20,20,20","10,10,10,10,10,10,10,10","20,20,20,20,20,20,20,20","0,0,0,0,0,0,0,0","20,20,20,20,20,20,20,20","0,0,0,0,1,1,0,0","433,21,90,126,65,109,171,79","54.24903587828073,18.953717411376257,36.94856031197874,-26.413787740716415,1.6354073134122014,10.194672317077364,8.575024875204962,36.20684234351079","30.615649795964988,4.781149504458684,35.87349004674715,6.986883685678286,22.287034329461306,-9.78900465211085,-1.9438291844769395,12.733934286314815","0","0"
"74","86","text","0","121","635461","0-0","","","","","","","","","","","","","","","","","","","","","","","","","","","","","","","","","","","","",""
"","","plant-game","0","122","644068","0-0","","200","180","1","WHEAT CROP","Right","200","120","2","NETTLE WEED","experimental","48","1,2","120,112.01475825755057","2,1","NETTLE WEED,NETTLE WEED","180,190","1,1","WHEAT CROP,CORN CROP","0,0","20,20","10,10","20,20","20,20","20,20","0,0","20,20","10,10","20,20","20,20","20,20","0,0","1011,1306","-7.985241742449426,2.044997971531703","-8.19887237003957,-13.102955601904569","0","0"
"5928","86","text","0","123","650089","0-0","","","","","","","","","","","","","","","","","","","","","","","","","","","","","","","","","","","","",""
"","","plant-game","0","124","682657","0-0","","200","120","4","WHEAT CROP","Left","200","120","2","THISTLE WEED","experimental","49","1,2,3,4","120,162.40114589354755,159.8618083627504,204.99103666198877","4,3,2,1","WHEAT CROP,WHEAT CROP,WHEAT CROP,WHEAT CROP","120,145.66158435584887,180,243.06168142653115","2,1,2,1","THISTLE WEED,THISTLE WEED,NETTLE WEED,NETTLE WEED","20,20,20,20","20,20,20,20","10,10,10,10","20,20,20,20","0,0,0,0","20,20,20,20","20,20,20,20","20,20,20,20","10,10,10,10","20,20,20,20","0,0,0,0","20,20,20,20","0,1,0,0","27814,258,541,563","42.401145893547536,-2.53933753079715,45.12922829923838,50.308349064791734","25.66158435584888,7.465302716641563,63.06168142653115,27.430167003901868","0","0"
"583","86","text","0","125","683320","0-0","","","","","","","","","","","","","","","","","","","","","","","","","","","","","","","","","","","","",""
"","","plant-game","0","126","691800","0-0","","200","120","8","CORN CROP","Right","200","180","4","THISTLE WEED","experimental","50","1,2,3,4,5,6,7,8","180,195.9034723026058,192.41341022642348,193.8570347266565,160,157.88664082448167,176.48357571513537,215.30492688600316","4,3,2,1,4,3,2,1","THISTLE WEED,THISTLE WEED,THISTLE WEED,THISTLE WEED,NETTLE WEED,NETTLE WEED,NETTLE WEED,NETTLE WEED","120,144.49703248075434,159.06988911800474,163.0570529921414,169.03305808571966,151.65600518542564,147.91136187359336,141.10278135841935","8,7,6,5,4,3,2,1","CORN CROP,CORN CROP,CORN CROP,CORN CROP,CORN CROP,CORN CROP,CORN CROP,CORN CROP","0,0,0,0,0,0,0,0","20,20,20,20,20,20,20,20","10,10,10,10,10,10,10,10","20,20,20,20,20,20,20,20","20,20,20,20,20,20,20,20","20,20,20,20,20,20,20,20","0,0,0,0,0,0,0,0","20,20,20,20,20,20,20,20","10,10,10,10,10,10,10,10","20,20,20,20,20,20,20,20","20,20,20,20,20,20,20,20","20,20,20,20,20,20,20,20","0,0,0,0,0,0,0,0","2806,97,93,107,689,549,40,64","15.903472302605783,-3.490062076182308,1.4436245002330277,-4.159475124570054,-2.113359175518335,18.59693489065371,38.82135117086777,-30.83997516229016","24.49703248075434,14.572856637250403,3.9871638741366597,5.976005093578255,-17.37705290029401,-3.744643311832274,-6.8085805151740075,-28.50221693228511","7","0"
"87","86","text","0","127","691947","0-0","","","","","","","","","","","","","","","","","","","","","","","","","","","","","","","","","","","","",""
"","","plant-game","0","128","697268","0-0","","200","160","2","WHEAT CROP","Left","200","180","4","NETTLE WEED","experimental","51","1,2,3,4","160,165.6022985849015,180,213.3218748779555","2,1,2,1","WHEAT CROP,WHEAT CROP,CORN CROP,CORN CROP","180,199.76659201866102,191.90906225877248,236.432215307806","4,3,2,1","NETTLE WEED,NETTLE WEED,NETTLE WEED,NETTLE WEED","20,20,20,20","20,20,20,20","10,10,10,10","20,20,20,20","0,0,0,0","20,20,20,20","20,20,20,20","20,20,20,20","10,10,10,10","20,20,20,20","0,0,0,0","20,20,20,20","0,0,0,0","950,91,718,438","5.602298584901488,48.716484945089235,33.32187487795551,-3.7870389503016995","19.76659201866102,-7.857529759888525,44.52315304903351,11.92945638163654","5","0"
"407","86","text","0","129","697775","0-0","","","","","","","","","","","","","","","","","","","","","","","","","","","","","","","","","","","","",""
"","","plant-game","0","130","704699","0-0","","200","180","2","CORN CROP","Right","200","120","4","NETTLE WEED","experimental","52","1,2,3,4","120,149.4947295680564,164.32630369606932,172.01784404884822","4,3,2,1","NETTLE WEED,NETTLE WEED,NETTLE WEED,NETTLE WEED","180,181.03552354588476,180,183.47619887707324","2,1,2,1","CORN CROP,CORN CROP,WHEAT CROP,WHEAT CROP","0,0,0,0","20,20,20,20","10,10,10,10","20,20,20,20","20,20,20,20","20,20,20,20","0,0,0,0","20,20,20,20","10,10,10,10","20,20,20,20","20,20,20,20","20,20,20,20","0,0,0,0","156,1029,890,581","29.494729568056407,14.831574128012894,7.691540352778912,-15.537488527534713","1.0355235458847503,19.969467337026565,3.4761988770732404,2.658059270892092","1","0"
"116","86","text","0","131","704925","0-0","","","","","","","","","","","","","","","","","","","","","","","","","","","","","","","","","","","","",""
"","","plant-game","0","132","710810","0-0","","200","190","4","WHEAT CROP","Right","200","190","4","THISTLE WEED","experimental","53","1,2,3,4","190,204.4231187875913,201.16527708835494,184.5521228734586","4,3,2,1","THISTLE WEED,THISTLE WEED,THISTLE WEED,THISTLE WEED","190,196.31461064278608,212.990747003619,207.36688794254945","4,3,2,1","WHEAT CROP,WHEAT CROP,WHEAT CROP,WHEAT CROP","0,0,0,0","20,20,20,20","10,10,10,10","20,20,20,20","20,20,20,20","20,20,20,20","0,0,0,0","20,20,20,20","10,10,10,10","20,20,20,20","20,20,20,20","20,20,20,20","0,0,0,0","1683,235,1085,306","14.423118787591315,-3.2578416992363697,-16.613154214896365,-12.33836469980232","6.314610642786079,16.676136360832928,-5.623859061069531,2.0853234072245126","7","0"
"86","86","text","0","133","710956","0-0","","","","","","","","","","","","","","","","","","","","","","","","","","","","","","","","","","","","",""
"","","plant-game","0","134","719236","0-0","","200","180","1","WHEAT CROP","Right","200","190","2","NETTLE WEED","experimental","54","1,2","190,187.00545136240862","2,1","NETTLE WEED,NETTLE WEED","180,190","1,1","WHEAT CROP,CORN CROP","0,0","20,20","10,10","20,20","20,20","20,20","0,0","20,20","10,10","20,20","20,20","20,20","0,0","1389,4113","-2.9945486375913735,9.49224764204023","-11.926905450767851,53.45831261485177","14","0"
"93","86","text","0","135","719421","0-0","","","","","","","","","","","","","","","","","","","","","","","","","","","","","","","","","","","","",""
"","","plant-game","0","136","725046","0-0","","200","120","4","WHEAT CROP","Left","200","160","2","THISTLE WEED","experimental","55","1,2,3,4","120,123.0907389831816,129.9620715582413,130.73347872169003","4,3,2,1","WHEAT CROP,WHEAT CROP,WHEAT CROP,WHEAT CROP","160,159.87228458952453,180,209.97840293787542","2,1,2,1","THISTLE WEED,THISTLE WEED,NETTLE WEED,NETTLE WEED","20,20,20,20","20,20,20,20","10,10,10,10","20,20,20,20","0,0,0,0","20,20,20,20","20,20,20,20","20,20,20,20","10,10,10,10","20,20,20,20","0,0,0,0","20,20,20,20","0,0,0,0","976,94,870,76","3.090738983181595,6.871332575059695,0.7714071634487532,13.958430336056226","-0.12771541047548496,-13.664634720835153,29.978402937875412,54.84911613502044","6","0"
"93","86","text","0","137","725219","0-0","","","","","","","","","","","","","","","","","","","","","","","","","","","","","","","","","","","","",""
"","","plant-game","0","138","731404","0-0","","200","190","1","WHEAT CROP","Right","200","180","4","NETTLE WEED","experimental","56","1,2,3,4","180,185.63251696761287,165.64735820217334,107.66894062919653","4,3,2,1","NETTLE WEED,NETTLE WEED,NETTLE WEED,NETTLE WEED","190,170,173.81125941059852,168.26528834027724","1,3,2,1","WHEAT CROP,CORN CROP,CORN CROP,CORN CROP","0,0,0,0","20,20,20,20","10,10,10,10","20,20,20,20","20,20,20,20","20,20,20,20","0,0,0,0","20,20,20,20","10,10,10,10","20,20,20,20","20,20,20,20","20,20,20,20","0,0,0,0","0,1392,62,817","5.6325169676128715,-19.985158765439525,-57.97841757297681,29.729180475212136","-15.381568358097512,3.811259410598536,-5.545971070321287,-34.02688595496983","7","0"
"117","86","text","0","139","731601","0-0","","","","","","","","","","","","","","","","","","","","","","","","","","","","","","","","","","","","",""
"","","plant-game","0","140","740616","0-0","","200","180","4","CORN CROP","Right","200","120","1","THISTLE WEED","experimental","57","1,2,3,4","120,170,163.818883417822,176.30520668702877","1,3,2,1","THISTLE WEED,NETTLE WEED,NETTLE WEED,NETTLE WEED","180,189.91779783208437,217.59758127782965,218.17548796128435","4,3,2,1","CORN CROP,CORN CROP,CORN CROP,CORN CROP","0,0,0,0","20,20,20,20","10,10,10,10","20,20,20,20","20,20,20,20","20,20,20,20","0,0,0,0","20,20,20,20","10,10,10,10","20,20,20,20","20,20,20,20","20,20,20,20","0,0,0,0","1265,645,1527,68","-4.505235625498728,-6.181116582177992,12.486323269206759,29.177414376772358","9.91779783208439,27.679783445745286,0.5779066834547089,3.5314487926728417","16","0"
"140","86","text","0","141","740846","0-0","","","","","","","","","","","","","","","","","","","","","","","","","","","","","","","","","","","","",""
"","","plant-game","0","142","747583","0-0","","200","190","4","WHEAT CROP","Right","200","180","1","THISTLE WEED","experimental","58","1,2,3,4","180,170,178.42918302776536,191.2737488910718","1,3,2,1","THISTLE WEED,NETTLE WEED,NETTLE WEED,NETTLE WEED","190,190.0589919159761,213.51082922131755,208.75912622830393","4,3,2,1","WHEAT CROP,WHEAT CROP,WHEAT CROP,WHEAT CROP","0,0,0,0","20,20,20,20","10,10,10,10","20,20,20,20","20,20,20,20","20,20,20,20","0,0,0,0","20,20,20,20","10,10,10,10","20,20,20,20","20,20,20,20","20,20,20,20","0,0,0,0","691,730,69,1680","21.650279558898756,8.429183027765358,12.844565863306434,16.788496235596583","0.05899191597608855,23.451837305341453,-4.75170299301363,-0.0012415976933724824","9","0"
"115","86","text","0","143","747768","0-0","","","","","","","","","","","","","","","","","","","","","","","","","","","","","","","","","","","","",""
"","","plant-game","0","144","754223","0-0","","200","160","1","WHEAT CROP","Left","200","160","8","NETTLE WEED","experimental","59","1,2,3,4,5,6,7,8","160,130,182.3370724232784,191.2130162501666,214.5072789923372,238.01488598501479,293.1003361252357,312.5539127056999","1,7,6,5,4,3,2,1","WHEAT CROP,CORN CROP,CORN CROP,CORN CROP,CORN CROP,CORN CROP,CORN CROP,CORN CROP","160,192.71542516310564,181.1274715988737,201.0824198736647,216.12447371250548,228.59087283375214,267.9971402700573,293.54905785803635","8,7,6,5,4,3,2,1","NETTLE WEED,NETTLE WEED,NETTLE WEED,NETTLE WEED,NETTLE WEED,NETTLE WEED,NETTLE WEED,NETTLE WEED","20,20,20,20,20,20,20,20","20,20,20,20,20,20,20,20","10,10,10,10,10,10,10,10","20,20,20,20,20,20,20,20","0,0,0,0,0,0,0,0","20,20,20,20,20,20,20,20","20,20,20,20,20,20,20,20","20,20,20,20,20,20,20,20","10,10,10,10,10,10,10,10","20,20,20,20,20,20,20,20","0,0,0,0,0,0,0,0","20,20,20,20,20,20,20,20","0,0,0,0,0,0,0,0","144,516,104,85,285,950,62,56","19.337079726816093,52.337072423278414,8.875943826888179,23.29426274217062,23.50760699267758,55.085450140220885,19.453576580464166,46.32980352847691","32.71542516310565,-11.587953564231928,19.954948274790972,15.04205383884078,12.46639912124666,39.40626743630513,25.551917587979055,4.72305068631484","6","0"
"66","86","text","0","145","754359","0-0","","","","","","","","","","","","","","","","","","","","","","","","","","","","","","","","","","","","",""
"","","plant-game","0","146","761276","0-0","","200","160","4","WHEAT CROP","Left","200","180","1","NETTLE WEED","experimental","60","1,2,3,4","160,174.9801976739901,195.56590950134154,232.3310402579846","4,3,2,1","WHEAT CROP,WHEAT CROP,WHEAT CROP,WHEAT CROP","180,170,138.94274789013542,148.56855093622283","1,3,2,1","NETTLE WEED,THISTLE WEED,THISTLE WEED,THISTLE WEED","20,20,20,20","20,20,20,20","10,10,10,10","20,20,20,20","0,0,0,0","20,20,20,20","20,20,20,20","20,20,20,20","10,10,10,10","20,20,20,20","0,0,0,0","20,20,20,20","0,1,1,1","73,3530,74,82","14.980197673990087,20.58571182735143,36.76513075664306,-8.707963843947784","17.39974881166834,-31.05725210986458,9.625803046087423,-3.016103269128495","6","0"
"74","86","text","0","147","761450","0-0","","","","","","","","","","","","","","","","","","","","","","","","","","","","","","","","","","","","",""
"","","plant-game","0","148","768911","0-0","","200","180","4","WHEAT CROP","Left","200","120","2","NETTLE WEED","experimental","61","1,2,3,4","180,193.24820847909865,189.89640861354175,250.6355170287999","4,3,2,1","WHEAT CROP,WHEAT CROP,WHEAT CROP,WHEAT CROP","120,127.91281337973608,180,196.65637984852896","2,1,2,1","NETTLE WEED,NETTLE WEED,THISTLE WEED,THISTLE WEED","20,20,20,20","20,20,20,20","10,10,10,10","20,20,20,20","0,0,0,0","20,20,20,20","20,20,20,20","20,20,20,20","10,10,10,10","20,20,20,20","0,0,0,0","20,20,20,20","1,1,1,1","790,140,1109,2087","13.248208479098661,-3.3517998655568864,60.73910841525816,-30.613769021552933","7.912813379736081,0.4835628480471975,16.656379848528957,1.3375675874689126","0","0"
"80","86","text","0","149","769095","0-0","","","","","","","","","","","","","","","","","","","","","","","","","","","","","","","","","","","","",""
"","","plant-game","0","150","775337","0-0","","200","190","1","CORN CROP","Left","200","120","2","NETTLE WEED","experimental","62","1,2","190,190","1,1","CORN CROP,WHEAT CROP","120,115.78941447014698","2,1","NETTLE WEED,NETTLE WEED","20,20","20,20","10,10","20,20","0,0","20,20","20,20","20,20","10,10","20,20","0,0","20,20","1,1","2343,765","24.580401529357637,-24.406481339349163","-4.2105855298530255,10.809688431164881","0","0"
"100","86","text","0","151","775528","0-0","","","","","","","","","","","","","","","","","","","","","","","","","","","","","","","","","","","","",""
"","","plant-game","0","152","778303","0-0","","200","120","4","WHEAT CROP","Right","200","180","4","NETTLE WEED","experimental","63","1,2,3,4","180,195.956383461243,215.33026288150063,224.60192749450295","4,3,2,1","NETTLE WEED,NETTLE WEED,NETTLE WEED,NETTLE WEED","120,143.0430879413824,152.42659748524449,187.10482268044967","4,3,2,1","WHEAT CROP,WHEAT CROP,WHEAT CROP,WHEAT CROP","0,0,0,0","20,20,20,20","10,10,10,10","20,20,20,20","20,20,20,20","20,20,20,20","0,0,0,0","20,20,20,20","10,10,10,10","20,20,20,20","20,20,20,20","20,20,20,20","1,1,1,1","143,106,111,116","15.956383461243004,19.37387942025763,9.271664613002313,-7.86230121440077","23.043087941382396,9.383509543862091,34.67822519520519,7.346864770323659","0","0"
"94","86","text","0","153","778487","0-0","","","","","","","","","","","","","","","","","","","","","","","","","","","","","","","","","","","","",""
"","","plant-game","0","154","782397","0-0","","200","160","1","WHEAT CROP","Left","200","120","1","NETTLE WEED","experimental","64","1","160","1","WHEAT CROP","120","1","NETTLE WEED","20","20","10","20","0","20","20","20","10","20","0","20","1","52","-15.842600978527823","-18.508448652301766","0","0"
"80","86","text","0","155","782567","0-0","","","","","","","","","","","","","","","","","","","","","","","","","","","","","","","","","","","","",""
"","","plant-game","0","156","786203","0-0","","200","120","4","CORN CROP","Right","200","160","4","THISTLE WEED","experimental","65","1,2,3,4","160,159.1122495421389,159.47873499599976,152.2476765536975","4,3,2,1","THISTLE WEED,THISTLE WEED,THISTLE WEED,THISTLE WEED","120,117.42534158422407,97.75531521176856,85.88129341220485","4,3,2,1","CORN CROP,CORN CROP,CORN CROP,CORN CROP","0,0,0,0","20,20,20,20","10,10,10,10","20,20,20,20","20,20,20,20","20,20,20,20","0,0,0,0","20,20,20,20","10,10,10,10","20,20,20,20","20,20,20,20","20,20,20,20","0,0,0,1","929,61,103,597","-0.8877504578611044,0.3664854538608497,-7.231058442302269,7.278457067258602","-2.5746584157759314,-19.670026372455503,-11.8740217995637,12.360855998216802","0","0"
"124","86","text","0","157","786407","0-0","","","","","","","","","","","","","","","","","","","","","","","","","","","","","","","","","","","","",""
"","","plant-game","0","158","788787","0-0","","200","190","1","WHEAT CROP","Left","200","160","1","NETTLE WEED","experimental","66","1","190","1","WHEAT CROP","160","1","NETTLE WEED","20","20","10","20","0","20","20","20","10","20","0","20","1","197","-44.20312451948199","3.5696277292578733","0","0"
"629","86","text","0","159","789526","0-0","","","","","","","","","","","","","","","","","","","","","","","","","","","","","","","","","","","","",""
"","","plant-game","0","160","794544","0-0","","200","180","2","WHEAT CROP","Left","200","180","8","NETTLE WEED","experimental","67","1,2,3,4,5,6,7,8","180,201.74521779815208,140,149.96033099413674,141.42281943393434,168.94106263225564,179.96789388916847,153.61277695899588","2,1,6,5,4,3,2,1","WHEAT CROP,WHEAT CROP,CORN CROP,CORN CROP,CORN CROP,CORN CROP,CORN CROP,CORN CROP","180,175.28027376165036,172.26388879571542,161.9316473993282,135.3575223440019,147.03390893388,139.0291084058699,175.71114444006182","8,7,6,5,4,3,2,1","NETTLE WEED,NETTLE WEED,NETTLE WEED,NETTLE WEED,NETTLE WEED,NETTLE WEED,NETTLE WEED,NETTLE WEED","20,20,20,20,20,20,20,20","20,20,20,20,20,20,20,20","10,10,10,10,10,10,10,10","20,20,20,20,20,20,20,20","0,0,0,0,0,0,0,0","20,20,20,20,20,20,20,20","20,20,20,20,20,20,20,20","20,20,20,20,20,20,20,20","10,10,10,10,10,10,10,10","20,20,20,20,20,20,20,20","0,0,0,0,0,0,0,0","20,20,20,20,20,20,20,20","1,1,1,1,1,1,1,1","626,117,7,101,93,73,85,70","21.74521779815208,27.36665914075961,9.960330994136747,-8.537511560202393,27.518243198321287,11.026831256912828,-26.35511693017259,-22.957682327835833","-4.71972623834965,-3.0163849659349333,-10.332241396387232,-26.574125055326313,11.676386589878106,-8.004800528010115,36.682036034191924,10.958225027013276","0","0"
"62","86","text","0","161","794688","0-0","","","","","","","","","","","","","","","","","","","","","","","","","","","","","","","","","","","","",""
"","","plant-game","0","162","799452","0-0","","200","180","1","WHEAT CROP","Right","200","190","4","THISTLE WEED","experimental","68","1,2,3,4","190,218.28362504199032,264.4635599820929,249.32795102021888","4,3,2,1","THISTLE WEED,THISTLE WEED,THISTLE WEED,THISTLE WEED","180,170,205.1714694007994,219.90149238040627","1,3,2,1","WHEAT CROP,CORN CROP,CORN CROP,CORN CROP","0,0,0,0","20,20,20,20","10,10,10,10","20,20,20,20","20,20,20,20","20,20,20,20","0,0,0,0","20,20,20,20","10,10,10,10","20,20,20,20","20,20,20,20","20,20,20,20","0,1,1,1","117,481,88,580","28.283625041990316,46.17993494010256,-15.135608961873999,1.8810855692627584","15.486153934125717,35.171469400799396,14.730022979606867,39.9977898170693","0","0"
"146","86","text","0","163","799708","0-0","","","","","","","","","","","","","","","","","","","","","","","","","","","","","","","","","","","","",""
"","","plant-game","0","164","803538","0-0","","200","180","1","CORN CROP","Left","200","160","4","NETTLE WEED","experimental","69","1,2,3,4","180,170,198.34633763161955,233.24943792944902","1,3,2,1","CORN CROP,WHEAT CROP,WHEAT CROP,WHEAT CROP","160,168.71550233378306,226.08083378722932,286.1104871696861","4,3,2,1","NETTLE WEED,NETTLE WEED,NETTLE WEED,NETTLE WEED","20,20,20,20","20,20,20,20","10,10,10,10","20,20,20,20","0,0,0,0","20,20,20,20","20,20,20,20","20,20,20,20","10,10,10,10","20,20,20,20","0,0,0,0","20,20,20,20","1,0,0,1","667,54,81,215","25.24362326029633,28.346337631619555,34.903100297829454,-27.04200123165556","8.715502333783075,57.365331453446274,60.02965338245677,-51.75323703446756","0","0"
"170","86","text","0","165","803818","0-0","","","","","","","","","","","","","","","","","","","","","","","","","","","","","","","","","","","","",""
"","","plant-game","0","166","808085","0-0","","200","180","2","CORN CROP","Left","200","160","1","THISTLE WEED","experimental","70","1,2","180,235.48504796080096","2,1","CORN CROP,CORN CROP","160,190","1,1","THISTLE WEED,NETTLE WEED","20,20","20,20","10,10","20,20","0,0","20,20","20,20","20,20","10,10","20,20","0,0","20,20","0,1","1054,1","55.48504796080094,-18.59368712705026","0.6854975874850844,-37.900504977284974","0","0"
"86","86","text","0","167","808281","0-0","","","","","","","","","","","","","","","","","","","","","","","","","","","","","","","","","","","","",""
"","","plant-game","0","168","813944","0-0","","200","160","8","WHEAT CROP","Left","200","160","1","NETTLE WEED","experimental","71","1,2,3,4,5,6,7,8","160,178.51185096704313,176.1433501989083,181.94377382756036,221.63148244506124,191.2528827113433,235.52743550519892,222.7168585417023","8,7,6,5,4,3,2,1","WHEAT CROP,WHEAT CROP,WHEAT CROP,WHEAT CROP,WHEAT CROP,WHEAT CROP,WHEAT CROP,WHEAT CROP","160,130,140.55608693578955,147.9682829549083,174.46469636411905,176.19204742651013,203.02421642647812,231.03389747620378","1,7,6,5,4,3,2,1","NETTLE WEED,THISTLE WEED,THISTLE WEED,THISTLE WEED,THISTLE WEED,THISTLE WEED,THISTLE WEED,THISTLE WEED","20,20,20,20,20,20,20,20","20,20,20,20,20,20,20,20","10,10,10,10,10,10,10,10","20,20,20,20,20,20,20,20","0,0,0,0,0,0,0,0","20,20,20,20,20,20,20,20","20,20,20,20,20,20,20,20","20,20,20,20,20,20,20,20","10,10,10,10,10,10,10,10","20,20,20,20,20,20,20,20","0,0,0,0,0,0,0,0","20,20,20,20,20,20,20,20","0,0,0,0,0,0,1,1","508,23,70,70,59,68,1070,129","18.511850967043134,-2.368500768134826,5.800423628652052,39.68770861750086,-30.37859973371794,44.27455279385564,-12.810576963496622,22.95694993751411","9.615512840211222,10.55608693578954,7.412196019118749,26.496413409210753,1.7273510623910688,26.832168999967987,28.00968104972567,-8.654466069209874","0","0"
"114","86","text","0","169","814128","0-0","","","","","","","","","","","","","","","","","","","","","","","","","","","","","","","","","","","","",""
"","","plant-game","0","170","817944","0-0","","200","180","2","WHEAT CROP","Right","200","180","1","THISTLE WEED","experimental","72","1,2","180,190","1,1","THISTLE WEED,NETTLE WEED","180,176.1120472991311","2,1","WHEAT CROP,WHEAT CROP","0,0","20,20","10,10","20,20","20,20","20,20","0,0","20,20","10,10","20,20","20,20","20,20","0,0","604,410","-18.460393803963377,11.566008829580518","-3.8879527008689103,10.57140032366096","0","0"
"168","86","text","0","171","818212","0-0","","","","","","","","","","","","","","","","","","","","","","","","","","","","","","","","","","","","",""
"","","plant-game","0","172","825414","0-0","","200","160","1","WHEAT CROP","Right","200","160","2","NETTLE WEED","experimental","73","1,2","160,165.5823186809751","2,1","NETTLE WEED,NETTLE WEED","160,190","1,1","WHEAT CROP,CORN CROP","0,0","20,20","10,10","20,20","20,20","20,20","0,0","20,20","10,10","20,20","20,20","20,20","1,0","3123,116","5.582318680975092,36.78455002726116","34.33361852249239,-20.45729665078396","0","0"
"483","86","text","0","173","826017","0-0","","","","","","","","","","","","","","","","","","","","","","","","","","","","","","","","","","","","",""
"","","plant-game","0","174","829117","0-0","","200","120","2","CORN CROP","Left","200","120","2","NETTLE WEED","experimental","74","1,2","120,103.11324526970839","2,1","CORN CROP,CORN CROP","120,117.05522217558006","2,1","NETTLE WEED,NETTLE WEED","20,20","20,20","10,10","20,20","0,0","20,20","20,20","20,20","10,10","20,20","0,0","20,20","1,1","706,169","-16.886754730291607,-5.881032242053386","-2.944777824419944,-15.76856908509659","0","0"
"97","86","text","0","175","829327","0-0","","","","","","","","","","","","","","","","","","","","","","","","","","","","","","","","","","","","",""
"","","plant-game","0","176","834412","0-0","","200","120","4","CORN CROP","Left","200","120","4","NETTLE WEED","experimental","75","1,2,3,4","120,125.02007079509673,92.48526290687846,109.18066896933868","4,3,2,1","CORN CROP,CORN CROP,CORN CROP,CORN CROP","120,150.41389319051038,126.86702007702397,154.9535956185183","4,3,2,1","NETTLE WEED,NETTLE WEED,NETTLE WEED,NETTLE WEED","20,20,20,20","20,20,20,20","10,10,10,10","20,20,20,20","0,0,0,0","20,20,20,20","20,20,20,20","20,20,20,20","10,10,10,10","20,20,20,20","0,0,0,0","20,20,20,20","1,1,1,0","876,114,100,997","5.020070795096724,-32.53480788821826,16.695406062460215,16.87184096755021","30.413893190510382,-23.54687311348641,28.086575541494348,27.388674469794736","0","0"
"145","86","text","0","177","834607","0-0","","","","","","","","","","","","","","","","","","","","","","","","","","","","","","","","","","","","",""
"","","plant-game","0","178","841177","0-0","","200","160","8","WHEAT CROP","Right","200","160","4","NETTLE WEED","experimental","76","1,2,3,4,5,6,7,8","160,167.6918527473374,210.14615749312642,230.05528939453325,160,186.56653542466557,248.56101500861607,280.2727421158312","4,3,2,1,4,3,2,1","NETTLE WEED,NETTLE WEED,NETTLE WEED,NETTLE WEED,THISTLE WEED,THISTLE WEED,THISTLE WEED,THISTLE WEED","160,178.59100071943104,180.86143867628374,206.3284873299292,231.63877462030445,277.3416455779402,284.11933845911784,289.31546591627625","8,7,6,5,4,3,2,1","WHEAT CROP,WHEAT CROP,WHEAT CROP,WHEAT CROP,WHEAT CROP,WHEAT CROP,WHEAT CROP,WHEAT CROP","0,0,0,0,0,0,0,0","20,20,20,20,20,20,20,20","10,10,10,10,10,10,10,10","20,20,20,20,20,20,20,20","20,20,20,20,20,20,20,20","20,20,20,20,20,20,20,20","0,0,0,0,0,0,0,0","20,20,20,20,20,20,20,20","10,10,10,10,10,10,10,10","20,20,20,20,20,20,20,20","20,20,20,20,20,20,20,20","20,20,20,20,20,20,20,20","1,1,0,1,1,1,1,1","1574,339,620,399,78,91,85,82","7.6918527473374105,42.454304745789024,19.90913190140683,19.244081936277855,26.566535424665577,61.99447958395049,31.71172710721511,16.679402279839973","18.591000719431037,2.270437956852696,25.467048653645456,25.310287290375253,45.70287095763577,6.777692881177655,5.196127457158433,59.80755065472848","0","0"
"94","86","text","0","179","841391","0-0","","","","","","","","","","","","","","","","","","","","","","","","","","","","","","","","","","","","",""
"","","plant-game","0","180","844520","0-0","","200","120","1","WHEAT CROP","Right","200","190","1","NETTLE WEED","experimental","77","1","190","1","NETTLE WEED","120","1","WHEAT CROP","0","20","10","20","20","20","0","20","10","20","20","20","1","2","0.3567718266196067","-1.7867445449340593","0","0"
"1038","86","text","0","181","845618","0-0","","","","","","","","","","","","","","","","","","","","","","","","","","","","","","","","","","","","",""
"","","plant-game","0","182","850784","0-0","","200","190","4","WHEAT CROP","Right","200","120","4","THISTLE WEED","experimental","78","1,2,3,4","120,119.63454853624319,109.16221083783702,107.2786990675561","4,3,2,1","THISTLE WEED,THISTLE WEED,THISTLE WEED,THISTLE WEED","190,186.82429816727802,187.08915752648176,169.58881990122998","4,3,2,1","WHEAT CROP,WHEAT CROP,WHEAT CROP,WHEAT CROP","0,0,0,0","20,20,20,20","10,10,10,10","20,20,20,20","20,20,20,20","20,20,20,20","0,0,0,0","20,20,20,20","10,10,10,10","20,20,20,20","20,20,20,20","20,20,20,20","0,0,0,1","813,110,90,987","-0.3654514637568063,-10.472337698406163,-1.8835117702809225,39.574382148316495","-3.1757018327219892,0.2648593592037338,-17.50033762525177,12.877916353073818","0","0"
"786","86","text","0","183","851630","0-0","","","","","","","","","","","","","","","","","","","","","","","","","","","","","","","","","","","","",""
"","","plant-game","0","184","856960","0-0","","200","160","2","WHEAT CROP","Right","200","160","8","THISTLE WEED","experimental","79","1,2,3,4,5,6,7,8","160,184.61498520799907,192.27515562606945,238.34914301639176,279.7186917992829,288.21142677537307,290.55075282294496,286.54203994911904","8,7,6,5,4,3,2,1","THISTLE WEED,THISTLE WEED,THISTLE WEED,THISTLE WEED,THISTLE WEED,THISTLE WEED,THISTLE WEED,THISTLE WEED","160,177.78366364578966,140,139.21567013776215,141.61665160990145,155.14193576907496,179.16246761491078,215.5681422171974","2,1,6,5,4,3,2,1","WHEAT CROP,WHEAT CROP,CORN CROP,CORN CROP,CORN CROP,CORN CROP,CORN CROP,CORN CROP","0,0,0,0,0,0,0,0","20,20,20,20,20,20,20,20","10,10,10,10,10,10,10,10","20,20,20,20,20,20,20,20","20,20,20,20,20,20,20,20","20,20,20,20,20,20,20,20","0,0,0,0,0,0,0,0","20,20,20,20,20,20,20,20","10,10,10,10,10,10,10,10","20,20,20,20,20,20,20,20","20,20,20,20,20,20,20,20","20,20,20,20,20,20,20,20","1,1,1,1,1,1,1,1","177,120,242,558,464,89,55,54","24.614985207999073,7.66017041807039,46.07398739032231,41.369548782891144,8.492734976090171,2.3393260475718733,-4.008712873825893,28.89721951295841","17.783663645789645,1.3187787444029873,-0.7843298622378505,2.4009814721393212,13.525284159173513,24.020531845835823,36.4056746022866,41.43151861664983","0","0"
"74","86","text","0","185","857144","0-0","","","","","","","","","","","","","","","","","","","","","","","","","","","","","","","","","","","","",""
"","","plant-game","0","186","862805","0-0","","200","180","8","WHEAT CROP","Left","200","180","8","NETTLE WEED","experimental","80","1,2,3,4,5,6,7,8","180,154.3931491843704,132.28742854248708,109.68786428782238,98.34846205392562,109.93412159837199,119.87729418252935,152.0693149192394","8,7,6,5,4,3,2,1","WHEAT CROP,WHEAT CROP,WHEAT CROP,WHEAT CROP,WHEAT CROP,WHEAT CROP,WHEAT CROP,WHEAT CROP","180,178.42845205352046,157.2494267070428,119.09806963868111,106.23074066843098,129.67517352695984,133.16324967756586,137.1569639170321","8,7,6,5,4,3,2,1","NETTLE WEED,NETTLE WEED,NETTLE WEED,NETTLE WEED,NETTLE WEED,NETTLE WEED,NETTLE WEED,NETTLE WEED","20,20,20,20,20,20,20,20","20,20,20,20,20,20,20,20","10,10,10,10,10,10,10,10","20,20,20,20,20,20,20,20","0,0,0,0,0,0,0,0","20,20,20,20,20,20,20,20","20,20,20,20,20,20,20,20","20,20,20,20,20,20,20,20","10,10,10,10,10,10,10,10","20,20,20,20,20,20,20,20","0,0,0,0,0,0,0,0","20,20,20,20,20,20,20,20","1,1,1,1,0,0,0,0","119,116,104,96,1907,85,74,70","-25.606850815629606,-22.105720641883334,-22.5995642546647,-11.339402233896763,11.585659544446372,9.943172584157363,32.19202073671005,10.420907232289165","-1.5715479464795503,-21.179025346477655,-38.15135706836169,-12.867328970250123,23.44443285852884,3.4880761506060125,3.9937142394662466,7.791350099758056","0","0"
"120","86","text","0","187","863015","0-0","","","","","","","","","","","","","","","","","","","","","","","","","","","","","","","","","","","","",""
"","","plant-game","0","188","868762","0-0","","200","120","2","CORN CROP","Left","200","190","4","NETTLE WEED","experimental","81","1,2,3,4","120,167.8459149111058,180,197.2387531909883","2,1,2,1","CORN CROP,CORN CROP,WHEAT CROP,WHEAT CROP","190,199.71071226701906,183.41335634027456,234.31046140152702","4,3,2,1","NETTLE WEED,NETTLE WEED,NETTLE WEED,NETTLE WEED","20,20,20,20","20,20,20,20","10,10,10,10","20,20,20,20","0,0,0,0","20,20,20,20","20,20,20,20","20,20,20,20","10,10,10,10","20,20,20,20","0,0,0,0","20,20,20,20","0,0,0,0","418,95,868,70","47.845914911105794,3.476908629573991,17.238753190988305,7.1612832316250845","9.710712267019051,-16.29735592674451,50.897105061252454,0.7905196545965225","0","0"
"103","86","text","0","189","868945","0-0","","","","","","","","","","","","","","","","","","","","","","","","","","","","","","","","","","","","",""
"","","plant-game","0","190","885289","0-0","","200","190","2","CORN CROP","Right","200","190","8","NETTLE WEED","experimental","82","1,2,3,4,5,6,7,8","190,165.12682975416544,177.59341411347611,176.81528084612663,189.61286165982105,191.56314843169795,174.75087353983474,190.8865209448653","8,7,6,5,4,3,2,1","NETTLE WEED,NETTLE WEED,NETTLE WEED,NETTLE WEED,NETTLE WEED,NETTLE WEED,NETTLE WEED,NETTLE WEED","190,225.39958188666623,140,87.33364350946951,73.23550518007188,79.82787750066737,81.44826126337877,19.840708762313362","2,1,6,5,4,3,2,1","CORN CROP,CORN CROP,WHEAT CROP,WHEAT CROP,WHEAT CROP,WHEAT CROP,WHEAT CROP,WHEAT CROP","0,0,0,0,0,0,0,0","20,20,20,20,20,20,20,20","10,10,10,10,10,10,10,10","20,20,20,20,20,20,20,20","20,20,20,20,20,20,20,20","20,20,20,20,20,20,20,20","0,0,0,0,0,0,0,0","20,20,20,20,20,20,20,20","10,10,10,10,10,10,10,10","20,20,20,20,20,20,20,20","20,20,20,20,20,20,20,20","20,20,20,20,20,20,20,20","0,0,0,0,0,0,0,0","688,126,1210,63,144,479,309,671","-24.873170245834565,12.466584359310671,-0.7781332673494863,12.797580813694431,1.9502867718769021,-16.812274891863197,16.13564740503056,2.921633504571978","35.39958188666623,8.072498073400476,-52.66635649053049,-14.09813832939763,6.592372320595487,1.6203837627113944,-61.607552501065406,1.584117442275084","0","0"
"143","86","text","0","191","885482","0-0","","","","","","","","","","","","","","","","","","","","","","","","","","","","","","","","","","","","",""
"","","plant-game","0","192","893150","0-0","","200","160","8","WHEAT CROP","Left","200","160","2","NETTLE WEED","experimental","83","1,2,3,4,5,6,7,8","160,197.37416097077588,185.5796355724428,210.49066472336796,229.67801189625533,273.3319025819596,307.6094618713818,358.28780645239516","8,7,6,5,4,3,2,1","WHEAT CROP,WHEAT CROP,WHEAT CROP,WHEAT CROP,WHEAT CROP,WHEAT CROP,WHEAT CROP,WHEAT CROP","160,147.33028074995588,140,181.44442348526655,211.79465381861684,242.59903268913595,314.8071455550121,333.8324626575502","2,1,6,5,4,3,2,1","NETTLE WEED,NETTLE WEED,THISTLE WEED,THISTLE WEED,THISTLE WEED,THISTLE WEED,THISTLE WEED,THISTLE WEED","20,20,20,20,20,20,20,20","20,20,20,20,20,20,20,20","10,10,10,10,10,10,10,10","20,20,20,20,20,20,20,20","0,0,0,0,0,0,0,0","20,20,20,20,20,20,20,20","20,20,20,20,20,20,20,20","20,20,20,20,20,20,20,20","10,10,10,10,10,10,10,10","20,20,20,20,20,20,20,20","0,0,0,0,0,0,0,0","20,20,20,20,20,20,20,20","0,0,0,0,0,0,0,0","1134,112,411,89,71,98,88,87","37.37416097077588,-11.794525398333064,24.911029150925145,19.187347172887378,43.653890685704276,34.27755928942224,50.67834458101333,-11.650278274361195","-12.669719250044139,18.433291317669795,41.44442348526655,30.350230333350268,30.80437887051911,72.20811286587615,19.02531710253814,-6.322381938534857","0","0"
"185","86","text","0","193","893435","0-0","","","","","","","","","","","","","","","","","","","","","","","","","","","","","","","","","","","","",""
"","","plant-game","0","194","904326","0-0","","200","190","8","WHEAT CROP","Right","200","160","1","NETTLE WEED","experimental","84","1,2,3,4,5,6,7,8","160,130,143.1505989394431,159.48038463406897,198.27157707825435,221.72384502320023,207.76046359438064,203.283743543176","1,7,6,5,4,3,2,1","NETTLE WEED,THISTLE WEED,THISTLE WEED,THISTLE WEED,THISTLE WEED,THISTLE WEED,THISTLE WEED,THISTLE WEED","190,173.77932204190643,187.27872418170276,184.59980112825733,247.97524781872158,233.80344833097362,241.56631879170916,241.89540395931326","8,7,6,5,4,3,2,1","WHEAT CROP,WHEAT CROP,WHEAT CROP,WHEAT CROP,WHEAT CROP,WHEAT CROP,WHEAT CROP,WHEAT CROP","0,0,0,0,0,0,0,0","20,20,20,20,20,20,20,20","10,10,10,10,10,10,10,10","20,20,20,20,20,20,20,20","20,20,20,20,20,20,20,20","20,20,20,20,20,20,20,20","0,0,0,0,0,0,0,0","20,20,20,20,20,20,20,20","10,10,10,10,10,10,10,10","20,20,20,20,20,20,20,20","20,20,20,20,20,20,20,20","20,20,20,20,20,20,20,20","0,1,1,1,1,0,0,0","3133,689,311,309,144,998,89,62","18.41039747087901,13.1505989394431,16.329785694625855,38.791192444185384,23.45226794494588,-13.963381428819591,-4.476720051204647,1.6519152080166113","-16.22067795809359,13.499402139796326,-2.67892305344542,63.37544669046426,-14.171799487747954,7.762870460735546,0.3290851676040871,13.82237161844758","0","0"
"94","86","text","0","195","904510","0-0","","","","","","","","","","","","","","","","","","","","","","","","","","","","","","","","","","","","",""
"","","plant-game","0","196","911131","0-0","","200","180","8","CORN CROP","Right","200","180","2","NETTLE WEED","experimental","85","1,2,3,4,5,6,7,8","180,214.79550313242464,140,143.4799353243115,163.6052515285884,160.78628613007132,113.64253280819224,116.63632987650807","2,1,6,5,4,3,2,1","NETTLE WEED,NETTLE WEED,THISTLE WEED,THISTLE WEED,THISTLE WEED,THISTLE WEED,THISTLE WEED,THISTLE WEED","180,181.61350478372583,196.67534094000936,186.4719579379334,180.11091099187226,220.00935308113134,250.9865320334037,268.7911198369404","8,7,6,5,4,3,2,1","CORN CROP,CORN CROP,CORN CROP,CORN CROP,CORN CROP,CORN CROP,CORN CROP,CORN CROP","0,0,0,0,0,0,0,0","20,20,20,20,20,20,20,20","10,10,10,10,10,10,10,10","20,20,20,20,20,20,20,20","20,20,20,20,20,20,20,20","20,20,20,20,20,20,20,20","0,0,0,0,0,0,0,0","20,20,20,20,20,20,20,20","10,10,10,10,10,10,10,10","20,20,20,20,20,20,20,20","20,20,20,20,20,20,20,20","20,20,20,20,20,20,20,20","0,0,1,1,1,0,0,0","706,102,443,90,94,1152,79,107","34.795503132424635,-9.57740059844763,3.4799353243114908,20.125316204276903,-2.818965398517097,-47.14375332187907,2.9937970683158266,11.33967393866423","1.613504783725834,15.061836156283526,-10.203383002075952,-6.361046946061162,39.89844208925908,30.97717895227237,17.804587803536723,-38.98826367667644","0","0"
"136","86","text","0","197","911337","0-0","","","","","","","","","","","","","","","","","","","","","","","","","","","","","","","","","","","","",""
"","","plant-game","0","198","914825","0-0","","200","190","4","CORN CROP","Right","200","160","4","NETTLE WEED","experimental","86","1,2,3,4","160,177.32594843178802,187.89010226479547,166.45218343999764","4,3,2,1","NETTLE WEED,NETTLE WEED,NETTLE WEED,NETTLE WEED","190,204.8081799421387,228.47238983053495,249.84174774543033","4,3,2,1","CORN CROP,CORN CROP,CORN CROP,CORN CROP","0,0,0,0","20,20,20,20","10,10,10,10","20,20,20,20","20,20,20,20","20,20,20,20","0,0,0,0","20,20,20,20","10,10,10,10","20,20,20,20","20,20,20,20","20,20,20,20","0,0,0,0","28,127,487,133","17.325948431788028,10.564153833007449,-21.437918824797823,0.2548022801563119","14.808179942138706,23.664209888396257,21.36935791489536,-19.041055212866375","0","0"
"227","86","text","0","199","915152","0-0","","","","","","","","","","","","","","","","","","","","","","","","","","","","","","","","","","","","",""
