"rt","key_press","trial_type","trial_index","trial_index_global","time_elapsed","internal_chunk_id","responses","experimental_goal_height","experimental_start_height","experimental_weeks_total","experimental_crop_type","experimental_crop_side","fixed_goal_height","fixed_start_height","fixed_weeks_total","fixed_crop_type","trial_kind","trial_number","stage","left_current_height","left_weeks_remaining","left_crop_type","right_current_height","right_weeks_remaining","right_crop_type","mean_left_growth_given_left","sd_left_growth_given_left","mean_left_growth_given_middle","sd_left_growth_given_middle","mean_left_growth_given_right","sd_left_growth_given_right","mean_right_growth_given_left","sd_right_growth_given_left","mean_right_growth_given_middle","sd_right_growth_given_middle","mean_right_growth_given_right","sd_right_growth_given_right","response","response_time","left_growth","right_growth","other_key_pressed","mouse_clicked"
"5020721","87","text","0","0","5020770","0-0","","","","","","","","","","","","","","","","","","","","","","","","","","","","","","","","","","","","",""
"5146","","survey-text","0","1","5026941","0-0","{""Q0"":""18""}","","","","","","","","","","","","","","","","","","","","","","","","","","","","","","","","","","","",""
"3351","86","text","0","2","3429","0-0","","","","","","","","","","","","","","","","","","","","","","","","","","","","","","","","","","","","",""
"","","plant-game","0","3","110513","0-0","","200","120","8","CORN CROP","Left","200","120","8","THISTLE WEED","practice","1","1,2,3,4,5,6,7,8","120,129.14477867564727,159.59199863274756,150.85977009676776,135.44006221153242,163.83045601418502,156.99846722424144,157.94097295862287","8,7,6,5,4,3,2,1","CORN CROP,CORN CROP,CORN CROP,CORN CROP,CORN CROP,CORN CROP,CORN CROP,CORN CROP","120,146.57487046781023,178.4461313486372,198.3696465184609,188.87748334352077,181.451282876271,177.46289645065198,158.74179163964934","8,7,6,5,4,3,2,1","THISTLE WEED,THISTLE WEED,THISTLE WEED,THISTLE WEED,THISTLE WEED,THISTLE WEED,THISTLE WEED,THISTLE WEED","20,20,20,20,20,20,20,20","20,20,20,20,20,20,20,20","10,10,10,10,10,10,10,10","20,20,20,20,20,20,20,20","0,0,0,0,0,0,0,0","20,20,20,20,20,20,20,20","20,20,20,20,20,20,20,20","20,20,20,20,20,20,20,20","10,10,10,10,10,10,10,10","20,20,20,20,20,20,20,20","0,0,0,0,0,0,0,0","20,20,20,20,20,20,20,20","1,0,1,1,1,1,0,0","19111,14056,15405,8523,7666,4597,7822,3041","9.14477867564728,30.447219957100288,-8.732228535979804,-15.419707885235352,28.390393802652586,-6.831988789943576,0.942505734381438,15.095457133272742","26.574870467810232,31.871260880826995,19.923515169823713,-9.492163174940147,-7.426200467249764,-3.9883864256190127,-18.72110481100264,45.058571565776475","0","0"
"830","86","text","0","4","111513","0-0","","","","","","","","","","","","","","","","","","","","","","","","","","","","","","","","","","","","",""
"","","plant-game","0","5","163597","0-0","","200","160","4","WHEAT CROP","Right","200","160","4","NETTLE WEED","practice","2","1,2,3,4","160,177.71695562829947,180.06058960318614,180.30146649403702","4,3,2,1","NETTLE WEED,NETTLE WEED,NETTLE WEED,NETTLE WEED","160,190.12430746288555,211.69684545380434,191.9745424855269","4,3,2,1","WHEAT CROP,WHEAT CROP,WHEAT CROP,WHEAT CROP","0,0,0,0","20,20,20,20","10,10,10,10","20,20,20,20","20,20,20,20","20,20,20,20","0,0,0,0","20,20,20,20","10,10,10,10","20,20,20,20","20,20,20,20","20,20,20,20","1,1,0,1","14260,5047,7365,4014","17.716955628299473,2.343633974886682,0.24087689085085678,17.293982596374633","30.124307462885568,21.572537990918782,-19.72230296827744,-8.089815661980445","0","0"
"503","86","text","0","6","164256","0-0","","","","","","","","","","","","","","","","","","","","","","","","","","","","","","","","","","","","",""
"","","plant-game","0","7","209240","0-0","","200","180","2","WHEAT CROP","Left","200","180","2","NETTLE WEED","practice","3","1,2","180,194.54792786613143","2,1","WHEAT CROP,WHEAT CROP","180,181.79317623908238","2,1","NETTLE WEED,NETTLE WEED","20,20","20,20","10,10","20,20","0,0","20,20","20,20","20,20","10,10","20,20","0,0","20,20","1,0","6645,11018","14.547927866131438,62.21576693617428","1.7931762390823849,14.53172387656489","0","0"
"526","86","text","0","8","209976","0-0","","","","","","","","","","","","","","","","","","","","","","","","","","","","","","","","","","","","",""
"","","plant-game","0","9","248870","0-0","","200","190","1","CORN CROP","Right","200","190","1","THISTLE WEED","practice","4","1","190","1","THISTLE WEED","190","1","CORN CROP","0","20","10","20","20","20","0","20","10","20","20","20","0","4711","-5.956544598831738","11.24552881299828","0","0"
"546","86","text","0","10","249498","0-0","","","","","","","","","","","","","","","","","","","","","","","","","","","","","","","","","","","","",""
"","","plant-game","0","11","285688","0-0","","200","120","8","CORN CROP","Left","200","160","8","THISTLE WEED","practice","5","1,2,3,4,5,6,7,8","120,104.66373494049985,113.02037605011336,126.5758603859731,126.13914738970817,119.15346609716761,102.04739938445883,113.89365282288186","8,7,6,5,4,3,2,1","CORN CROP,CORN CROP,CORN CROP,CORN CROP,CORN CROP,CORN CROP,CORN CROP,CORN CROP","160,144.751445770022,145.19206371295158,179.09596234658972,159.88597062179133,187.8389228366891,223.64594305053467,202.7922361339057","8,7,6,5,4,3,2,1","THISTLE WEED,THISTLE WEED,THISTLE WEED,THISTLE WEED,THISTLE WEED,THISTLE WEED,THISTLE WEED,THISTLE WEED","20,20,20,20,20,20,20,20","20,20,20,20,20,20,20,20","10,10,10,10,10,10,10,10","20,20,20,20,20,20,20,20","0,0,0,0,0,0,0,0","20,20,20,20,20,20,20,20","20,20,20,20,20,20,20,20","20,20,20,20,20,20,20,20","10,10,10,10,10,10,10,10","20,20,20,20,20,20,20,20","0,0,0,0,0,0,0,0","20,20,20,20,20,20,20,20","1,0,0,1,0,1,0,0","7477,5771,2819,2393,2303,641,3284,2539","-15.336265059500144,8.3566411096135,13.555484335859747,-0.43671299626493104,-6.985681292540569,-17.106066712708778,11.846253438423032,-11.643908044956422","-15.248554229978007,0.44061794292958467,33.90389863363815,-19.20999172479838,27.95295221489778,35.80702021384557,-20.85370691662898,23.105976411345054","0","0"
"581","86","text","0","12","286349","0-0","","","","","","","","","","","","","","","","","","","","","","","","","","","","","","","","","","","","",""
"","","plant-game","0","13","318006","0-0","","200","180","4","CORN CROP","Left","200","160","4","NETTLE WEED","practice","6","1,2,3,4","180,205.93770895244884,184.0334547901226,176.0105635181404","4,3,2,1","CORN CROP,CORN CROP,CORN CROP,CORN CROP","160,152.5110872166057,177.04874796972973,188.1286215591541","4,3,2,1","NETTLE WEED,NETTLE WEED,NETTLE WEED,NETTLE WEED","20,20,20,20","20,20,20,20","10,10,10,10","20,20,20,20","0,0,0,0","20,20,20,20","20,20,20,20","20,20,20,20","10,10,10,10","20,20,20,20","0,0,0,0","20,20,20,20","1,1,1,0","6937,2752,3473,1780","25.937708952448833,-21.904254162326264,-8.02289127198218,49.86851200223795","-7.48891278339432,24.537660753124044,11.079873589424395,5.959877411999127","0","0"
"627","86","text","0","14","318730","0-0","","","","","","","","","","","","","","","","","","","","","","","","","","","","","","","","","","","","",""
"","","plant-game","0","15","338814","0-0","","200","180","2","WHEAT CROP","Right","200","190","2","THISTLE WEED","practice","7","1,2","190,222.6929617338107","2,1","THISTLE WEED,THISTLE WEED","180,198.84161079074778","2,1","WHEAT CROP,WHEAT CROP","0,0","20,20","10,10","20,20","20,20","20,20","0,0","20,20","10,10","20,20","20,20","20,20","0,1","3573,3390","32.69296173381069,38.85381845858785","18.841610790747765,8.948636677600316","0","0"
"760","86","text","0","16","339654","0-0","","","","","","","","","","","","","","","","","","","","","","","","","","","","","","","","","","","","",""
"","","plant-game","0","17","392999","0-0","","200","120","4","WHEAT CROP","Right","200","120","8","THISTLE WEED","practice","8","1,2,3,4,5,6,7,8","120,135.13160124587034,139.52717865748437,147.82437443340777,174.0957001350782,190.50581799152158,196.4873744030076,228.97853094372914","8,7,6,5,4,3,2,1","THISTLE WEED,THISTLE WEED,THISTLE WEED,THISTLE WEED,THISTLE WEED,THISTLE WEED,THISTLE WEED,THISTLE WEED","120,155.5641246081562,142.38780406534065,144.56215218943748,160,180.77886399416997,168.92079977067021,195.04897600489548","4,3,2,1,4,3,2,1","WHEAT CROP,WHEAT CROP,WHEAT CROP,WHEAT CROP,CORN CROP,CORN CROP,CORN CROP,CORN CROP","0,0,0,0,0,0,0,0","20,20,20,20,20,20,20,20","10,10,10,10,10,10,10,10","20,20,20,20,20,20,20,20","20,20,20,20,20,20,20,20","20,20,20,20,20,20,20,20","0,0,0,0,0,0,0,0","20,20,20,20,20,20,20,20","10,10,10,10,10,10,10,10","20,20,20,20,20,20,20,20","20,20,20,20,20,20,20,20","20,20,20,20,20,20,20,20","1,1,1,1,1,0,1,1","8217,950,2081,1576,14549,858,2138,1704","15.131601245870343,4.395577411614031,8.297195775923392,26.271325701670435,16.41011785644338,5.9815564114860145,32.49115654072155,12.163346653560176","35.56412460815618,-13.176320542815539,2.174348124096838,51.21722901510633,20.778863994169967,-11.858064223499767,26.128176234225258,25.1636683738395","0","0"
"466","86","text","0","18","393555","0-0","","","","","","","","","","","","","","","","","","","","","","","","","","","","","","","","","","","","",""
"","","plant-game","0","19","419288","0-0","","200","160","4","WHEAT CROP","Right","200","160","2","NETTLE WEED","practice","9","1,2,3,4","160,200.3001746498975,180,253.12271727486387","2,1,2,1","NETTLE WEED,NETTLE WEED,THISTLE WEED,THISTLE WEED","160,170.75581147303487,144.62302923972942,207.86559206738224","4,3,2,1","WHEAT CROP,WHEAT CROP,WHEAT CROP,WHEAT CROP","0,0,0,0","20,20,20,20","10,10,10,10","20,20,20,20","20,20,20,20","20,20,20,20","0,0,0,0","20,20,20,20","10,10,10,10","20,20,20,20","20,20,20,20","20,20,20,20","1,0,1,0","4251,3668,4587,2439","40.300174649897514,16.090104231627457,73.12271727486387,2.5488576225351505","10.755811473034857,-26.13278223330544,63.24256282765282,0.8991602300873307","0","0"
"450","86","text","0","20","419828","0-0","","","","","","","","","","","","","","","","","","","","","","","","","","","","","","","","","","","","",""
"","","plant-game","0","21","444797","0-0","","200","180","2","CORN CROP","Right","200","180","1","THISTLE WEED","practice","10","1,2","180,190","1,1","THISTLE WEED,NETTLE WEED","180,166.57230703359897","2,1","CORN CROP,CORN CROP","0,0","20,20","10,10","20,20","20,20","20,20","0,0","20,20","10,10","20,20","20,20","20,20","0,1","1890,2630","-42.81171909325751,-11.38214255908482","-13.427692966401024,14.486189266092133","0","0"
"611","86","text","0","22","445501","0-0","","","","","","","","","","","","","","","","","","","","","","","","","","","","","","","","","","","","",""
"","","plant-game","0","23","487811","0-0","","200","120","8","CORN CROP","Right","200","160","4","THISTLE WEED","practice","11","1,2,3,4,5,6,7,8","160,176.9751221401385,164.6563196936174,183.12797121578447,160,191.25617385504984,187.7691643357409,170.1880178866926","4,3,2,1,4,3,2,1","THISTLE WEED,THISTLE WEED,THISTLE WEED,THISTLE WEED,NETTLE WEED,NETTLE WEED,NETTLE WEED,NETTLE WEED","120,135.07123248821264,134.23800279543354,154.73244685865734,150.57523800104738,181.81468673762177,175.34240634382994,184.32588629200598","8,7,6,5,4,3,2,1","CORN CROP,CORN CROP,CORN CROP,CORN CROP,CORN CROP,CORN CROP,CORN CROP,CORN CROP","0,0,0,0,0,0,0,0","20,20,20,20,20,20,20,20","10,10,10,10,10,10,10,10","20,20,20,20,20,20,20,20","20,20,20,20,20,20,20,20","20,20,20,20,20,20,20,20","0,0,0,0,0,0,0,0","20,20,20,20,20,20,20,20","10,10,10,10,10,10,10,10","20,20,20,20,20,20,20,20","20,20,20,20,20,20,20,20","20,20,20,20,20,20,20,20","1,0,1,0,1,0,1,1","7345,4685,449,644,5695,2738,644,2225","16.975122140138502,-12.318802446521087,18.471651522167054,-12.491980477432724,31.256173855049838,-3.4870095193089434,-17.581146449048305,8.254163022396687","15.071232488212647,-0.8332296927790949,20.49444406322378,-4.157208857609953,31.23944873657438,-6.472280393791832,8.98347994817605,18.792087795366538","0","0"
"477","86","text","0","24","488361","0-0","","","","","","","","","","","","","","","","","","","","","","","","","","","","","","","","","","","","",""
"","","plant-game","0","25","530215","0-0","","200","180","2","WHEAT CROP","Left","200","160","4","NETTLE WEED","practice","12","1,2,3,4","180,215.8092844414958,180,195.8222253832642","2,1,2,1","WHEAT CROP,WHEAT CROP,CORN CROP,CORN CROP","160,158.83007094248381,142.46720696544077,160.9033339567292","4,3,2,1","NETTLE WEED,NETTLE WEED,NETTLE WEED,NETTLE WEED","20,20,20,20","20,20,20,20","10,10,10,10","20,20,20,20","0,0,0,0","20,20,20,20","20,20,20,20","20,20,20,20","10,10,10,10","20,20,20,20","0,0,0,0","20,20,20,20","0,1,0,0","6846,8361,4908,1080","35.809284441495805,-14.737508016652514,15.82222538326421,19.935418038646397","-1.1699290575161783,-16.362863977043048,18.436126991288432,26.487182306539296","0","0"
"587","86","text","0","26","530882","0-0","","","","","","","","","","","","","","","","","","","","","","","","","","","","","","","","","","","","",""
"10428","86","text","0","27","542557","0-0","","","","","","","","","","","","","","","","","","","","","","","","","","","","","","","","","","","","",""
"","","plant-game","0","28","584382","0-0","","200","160","8","CORN CROP","Right","200","190","4","NETTLE WEED","experimental","1","1,2,3,4,5,6,7,8","190,228.7932736645169,208.33057033709431,257.87738363135935,160,164.25805055646404,209.4278446526005,210.92469722481792","4,3,2,1,4,3,2,1","NETTLE WEED,NETTLE WEED,NETTLE WEED,NETTLE WEED,THISTLE WEED,THISTLE WEED,THISTLE WEED,THISTLE WEED","160,165.33720864660515,170.1154193644193,188.06549164043955,203.63797511875418,200.44606211809833,256.930748129103,253.48662120214044","8,7,6,5,4,3,2,1","CORN CROP,CORN CROP,CORN CROP,CORN CROP,CORN CROP,CORN CROP,CORN CROP,CORN CROP","0,0,0,0,0,0,0,0","20,20,20,20,20,20,20,20","10,10,10,10,10,10,10,10","20,20,20,20,20,20,20,20","20,20,20,20,20,20,20,20","20,20,20,20,20,20,20,20","0,0,0,0,0,0,0,0","20,20,20,20,20,20,20,20","10,10,10,10,10,10,10,10","20,20,20,20,20,20,20,20","20,20,20,20,20,20,20,20","20,20,20,20,20,20,20,20","0,0,0,0,0,1,0,0","7292,5259,1151,2287,5412,5582,1593,1037","38.79327366451692,-20.462703327422595,49.546813294265036,1.8836613237435333,4.258050556464047,45.169794096136464,1.4968525722174142,45.47757163546129","5.337208646605135,4.778210717814158,17.95007227602024,15.572483478314647,-3.191913000655853,56.48468601100467,-3.4441269269625474,-33.71530220583837","0","0"
"823","86","text","0","29","585285","0-0","","","","","","","","","","","","","","","","","","","","","","","","","","","","","","","","","","","","",""
"","","plant-game","0","30","615679","0-0","","200","160","4","CORN CROP","Right","200","160","2","NETTLE WEED","experimental","2","1,2,3,4","160,161.91993803507384,180,169.51152675710532","2,1,2,1","NETTLE WEED,NETTLE WEED,THISTLE WEED,THISTLE WEED","160,136.6084197163134,107.58943157086216,83.89701511682031","4,3,2,1","CORN CROP,CORN CROP,CORN CROP,CORN CROP","0,0,0,0","20,20,20,20","10,10,10,10","20,20,20,20","20,20,20,20","20,20,20,20","0,0,0,0","20,20,20,20","10,10,10,10","20,20,20,20","20,20,20,20","20,20,20,20","0,0,0,0","6574,3026,12267,776","1.919938035073851,13.093039478220977,-10.488473242894695,-28.7709617261348","-23.391580283686597,-29.018988145451235,-23.69241645404184,-27.59920875115729","0","0"
"828","86","text","0","31","616585","0-0","","","","","","","","","","","","","","","","","","","","","","","","","","","","","","","","","","","","",""
"","","plant-game","0","32","648196","0-0","","200","160","2","CORN CROP","Left","200","160","4","NETTLE WEED","experimental","3","1,2,3,4","160,188.82965897229462,180,201.41593901385778","2,1,2,1","CORN CROP,CORN CROP,WHEAT CROP,WHEAT CROP","160,153.84352111239562,174.7498038724491,203.95701853453892","4,3,2,1","NETTLE WEED,NETTLE WEED,NETTLE WEED,NETTLE WEED","20,20,20,20","20,20,20,20","10,10,10,10","20,20,20,20","0,0,0,0","20,20,20,20","20,20,20,20","20,20,20,20","10,10,10,10","20,20,20,20","0,0,0,0","20,20,20,20","1,1,0,0","10454,1434,7298,2594","28.829658972294638,-24.343630171155837,21.415939013857773,5.947823379318304","-6.156478887604368,20.906282760053468,29.20721466208984,26.35322570273928","0","0"
"742","86","text","0","33","649028","0-0","","","","","","","","","","","","","","","","","","","","","","","","","","","","","","","","","","","","",""
"","","plant-game","0","34","689397","0-0","","200","160","8","WHEAT CROP","Right","200","190","8","THISTLE WEED","experimental","4","1,2,3,4,5,6,7,8","190,188.88769427011675,216.72011598924922,228.2985450149875,192.2235572329025,160.0161495113612,85.82304103241738,58.42970700791447","8,7,6,5,4,3,2,1","THISTLE WEED,THISTLE WEED,THISTLE WEED,THISTLE WEED,THISTLE WEED,THISTLE WEED,THISTLE WEED,THISTLE WEED","160,109.66831080048891,108.95004976819438,108.61640945306935,94.11590563992536,75.39018482547053,68.40143928297437,69.63909097683042","8,7,6,5,4,3,2,1","WHEAT CROP,WHEAT CROP,WHEAT CROP,WHEAT CROP,WHEAT CROP,WHEAT CROP,WHEAT CROP,WHEAT CROP","0,0,0,0,0,0,0,0","20,20,20,20,20,20,20,20","10,10,10,10,10,10,10,10","20,20,20,20,20,20,20,20","20,20,20,20,20,20,20,20","20,20,20,20,20,20,20,20","0,0,0,0,0,0,0,0","20,20,20,20,20,20,20,20","10,10,10,10,10,10,10,10","20,20,20,20,20,20,20,20","20,20,20,20,20,20,20,20","20,20,20,20,20,20,20,20","0,0,0,0,0,0,0,0","25183,800,4451,509,2001,530,793,1139","-1.1123057298832564,27.832421719132483,11.578429025738274,-36.074987782085,-32.20740772154131,-74.19310847894381,-27.393334024502906,-29.326760430137636","-50.33168919951109,-0.7182610322945315,-0.33364031512501935,-14.500503813143995,-18.72572081445484,-6.988745542496169,1.2376516938560476,-16.22157942158929","0","0"
"616","86","text","0","35","690113","0-0","","","","","","","","","","","","","","","","","","","","","","","","","","","","","","","","","","","","",""
"","","plant-game","0","36","727710","0-0","","200","160","2","WHEAT CROP","Right","200","180","8","NETTLE WEED","experimental","5","1,2,3,4,5,6,7,8","180,187.43845493823244,159.88301927163104,145.64908078764475,189.27972885037795,152.24770925124636,187.56997023173574,193.17223968614564","8,7,6,5,4,3,2,1","NETTLE WEED,NETTLE WEED,NETTLE WEED,NETTLE WEED,NETTLE WEED,NETTLE WEED,NETTLE WEED,NETTLE WEED","160,171.29206363204082,140,182.29376585815507,216.99117851247345,204.88229547186148,258.04861350866446,273.2906203713924","2,1,6,5,4,3,2,1","WHEAT CROP,WHEAT CROP,CORN CROP,CORN CROP,CORN CROP,CORN CROP,CORN CROP,CORN CROP","0,0,0,0,0,0,0,0","20,20,20,20,20,20,20,20","10,10,10,10,10,10,10,10","20,20,20,20,20,20,20,20","20,20,20,20,20,20,20,20","20,20,20,20,20,20,20,20","0,0,0,0,0,0,0,0","20,20,20,20,20,20,20,20","10,10,10,10,10,10,10,10","20,20,20,20,20,20,20,20","20,20,20,20,20,20,20,20","20,20,20,20,20,20,20,20","0,0,1,1,0,1,0,0","14343,723,4655,742,1572,3474,1378,2019","7.4384549382324465,-27.555435666601397,-14.2339384839863,43.63064806273321,-37.03201959913159,35.32226098048938,5.602269454409912,-22.111741033108153","11.292063632040836,-2.3645774702609437,42.29376585815507,34.69741265431839,-12.108883040611985,53.16631803680299,15.242006862727916,-19.44671436047792","0","0"
"637","86","text","0","37","728437","0-0","","","","","","","","","","","","","","","","","","","","","","","","","","","","","","","","","","","","",""
"","","plant-game","0","38","747252","0-0","","200","180","1","WHEAT CROP","Left","200","120","2","NETTLE WEED","experimental","6","1,2","180,190","1,1","WHEAT CROP,CORN CROP","120,131.35068177618876","2,1","NETTLE WEED,NETTLE WEED","20,20","20,20","10,10","20,20","0,0","20,20","20,20","20,20","10,10","20,20","0,0","20,20","1,0","3816,7857","7.826395628840873,13.886803865570426","11.350681776188768,-26.249589974163328","0","0"
"638","86","text","0","39","747967","0-0","","","","","","","","","","","","","","","","","","","","","","","","","","","","","","","","","","","","",""
"","","plant-game","0","40","775540","0-0","","200","120","8","WHEAT CROP","Right","200","120","1","NETTLE WEED","experimental","7","1,2,3,4,5,6,7,8","120,130,122.44176031464872,139.795294569641,136.67335072790664,160.53029629280533,187.50644479149867,200.33317929711134","1,7,6,5,4,3,2,1","NETTLE WEED,THISTLE WEED,THISTLE WEED,THISTLE WEED,THISTLE WEED,THISTLE WEED,THISTLE WEED,THISTLE WEED","120,125.35800363120903,129.3982839222616,142.3632171899898,177.84032241034788,190.26293218990574,221.74711272602536,236.67704306082163","8,7,6,5,4,3,2,1","WHEAT CROP,WHEAT CROP,WHEAT CROP,WHEAT CROP,WHEAT CROP,WHEAT CROP,WHEAT CROP,WHEAT CROP","0,0,0,0,0,0,0,0","20,20,20,20,20,20,20,20","10,10,10,10,10,10,10,10","20,20,20,20,20,20,20,20","20,20,20,20,20,20,20,20","20,20,20,20,20,20,20,20","0,0,0,0,0,0,0,0","20,20,20,20,20,20,20,20","10,10,10,10,10,10,10,10","20,20,20,20,20,20,20,20","20,20,20,20,20,20,20,20","20,20,20,20,20,20,20,20","1,1,1,1,1,1,0,0","5186,7624,621,612,729,677,2122,1765","59.4868345604564,-7.558239685351275,17.35353425499228,-3.1219438417343426,23.8569455648987,26.97614849869332,12.82673450561269,-22.81183060755039","5.358003631209025,4.040280291052582,12.964933267728188,35.47710522035807,12.422609779557861,31.484180536119617,14.929930334796257,-20.350620504169523","0","0"
"700","86","text","0","41","776340","0-0","","","","","","","","","","","","","","","","","","","","","","","","","","","","","","","","","","","","",""
"","","plant-game","0","42","807379","0-0","","200","120","4","CORN CROP","Left","200","190","8","NETTLE WEED","experimental","8","1,2,3,4,5,6,7,8","120,153.29786075702927,169.14718253695895,194.46967876057528,160,163.79126692147966,194.46285069831282,221.05499108465304","4,3,2,1,4,3,2,1","CORN CROP,CORN CROP,CORN CROP,CORN CROP,WHEAT CROP,WHEAT CROP,WHEAT CROP,WHEAT CROP","190,202.22404731647453,210.06387018237447,227.8068455051132,245.63005191013858,253.51806099589766,245.94687133333727,264.62653770021376","8,7,6,5,4,3,2,1","NETTLE WEED,NETTLE WEED,NETTLE WEED,NETTLE WEED,NETTLE WEED,NETTLE WEED,NETTLE WEED,NETTLE WEED","20,20,20,20,20,20,20,20","20,20,20,20,20,20,20,20","10,10,10,10,10,10,10,10","20,20,20,20,20,20,20,20","0,0,0,0,0,0,0,0","20,20,20,20,20,20,20,20","20,20,20,20,20,20,20,20","20,20,20,20,20,20,20,20","10,10,10,10,10,10,10,10","20,20,20,20,20,20,20,20","0,0,0,0,0,0,0,0","20,20,20,20,20,20,20,20","0,0,0,0,1,1,1,0","7676,438,422,444,8371,522,640,4253","33.29786075702927,15.849321779929692,25.32249622361634,-11.557679573427468,3.791266921479661,30.671583776833145,26.59214038634022,4.68610548404736","12.224047316474515,7.839822865899947,17.742975322738705,17.823206405025388,7.88800908575908,-7.571189662560394,18.67966636687648,-14.554377820239516","0","0"
"714","86","text","0","43","808163","0-0","","","","","","","","","","","","","","","","","","","","","","","","","","","","","","","","","","","","",""
"","","plant-game","0","44","821418","0-0","","200","160","4","CORN CROP","Right","200","180","4","NETTLE WEED","experimental","9","1,2,3,4","180,207.03367969489705,236.15475699414293,225.84287820750907","4,3,2,1","NETTLE WEED,NETTLE WEED,NETTLE WEED,NETTLE WEED","160,175.86495343982511,170.92534497933528,229.9472216532452","4,3,2,1","CORN CROP,CORN CROP,CORN CROP,CORN CROP","0,0,0,0","20,20,20,20","10,10,10,10","20,20,20,20","20,20,20,20","20,20,20,20","0,0,0,0","20,20,20,20","10,10,10,10","20,20,20,20","20,20,20,20","20,20,20,20","0,0,0,0","6192,2014,587,921","27.03367969489704,29.121077299245872,-10.311878786633855,11.197246975776384","15.864953439825126,-4.939608460489845,59.021876673909915,-17.810617581050945","0","0"
"717","86","text","0","45","822215","0-0","","","","","","","","","","","","","","","","","","","","","","","","","","","","","","","","","","","","",""
"","","plant-game","0","46","843917","0-0","","200","120","1","WHEAT CROP","Right","200","160","2","NETTLE WEED","experimental","10","1,2","160,139.28025042762113","2,1","NETTLE WEED,NETTLE WEED","120,190","1,1","WHEAT CROP,CORN CROP","0,0","20,20","10,10","20,20","20,20","20,20","0,0","20,20","10,10","20,20","20,20","20,20","0,1","11233,3244","-20.71974957237886,31.479784448914103","-9.684981301129193,43.90244825355279","0","0"
"482","86","text","0","47","844471","0-0","","","","","","","","","","","","","","","","","","","","","","","","","","","","","","","","","","","","",""
"","","plant-game","0","48","868824","0-0","","200","180","8","CORN CROP","Left","200","180","2","NETTLE WEED","experimental","11","1,2,3,4,5,6,7,8","180,181.26464262795992,165.18058565886585,182.50399422363083,189.7300195115035,197.06556826471035,200.16585838174444,231.138192087263","8,7,6,5,4,3,2,1","CORN CROP,CORN CROP,CORN CROP,CORN CROP,CORN CROP,CORN CROP,CORN CROP,CORN CROP","180,161.6002564728753,140,173.20855033705038,216.01361199846775,220.20821444952313,223.09962378748668,265.63102271826006","2,1,6,5,4,3,2,1","NETTLE WEED,NETTLE WEED,THISTLE WEED,THISTLE WEED,THISTLE WEED,THISTLE WEED,THISTLE WEED,THISTLE WEED","20,20,20,20,20,20,20,20","20,20,20,20,20,20,20,20","10,10,10,10,10,10,10,10","20,20,20,20,20,20,20,20","0,0,0,0,0,0,0,0","20,20,20,20,20,20,20,20","20,20,20,20,20,20,20,20","20,20,20,20,20,20,20,20","10,10,10,10,10,10,10,10","20,20,20,20,20,20,20,20","0,0,0,0,0,0,0,0","20,20,20,20,20,20,20,20","1,1,0,0,0,0,1,1","4440,700,3233,876,3167,585,621,1390","1.2646426279599052,-16.084056969094075,17.323408564764968,7.226025287872675,7.335548753206822,3.1002901170340778,30.97233370551857,54.79903953968395","-18.39974352712471,-8.471916572370223,33.2085503370504,42.80506166141738,4.194602451055369,2.891409337963559,42.531398930773385,27.37421360556272","0","0"
"542","86","text","0","49","869446","0-0","","","","","","","","","","","","","","","","","","","","","","","","","","","","","","","","","","","","",""
"","","plant-game","0","50","887852","0-0","","200","160","4","CORN CROP","Right","200","180","1","THISTLE WEED","experimental","12","1,2,3,4","180,170,163.4750322268738,157.23093535876205","1,3,2,1","THISTLE WEED,NETTLE WEED,NETTLE WEED,NETTLE WEED","160,171.34949660876936,182.20465189155163,203.54824148748767","4,3,2,1","CORN CROP,CORN CROP,CORN CROP,CORN CROP","0,0,0,0","20,20,20,20","10,10,10,10","20,20,20,20","20,20,20,20","20,20,20,20","0,0,0,0","20,20,20,20","10,10,10,10","20,20,20,20","20,20,20,20","20,20,20,20","0,0,0,0","3161,7060,703,751","2.539446755278938,-6.5249677731262015,-6.244096868111752,-8.232812236740966","11.349496608769368,10.855155282782281,21.34358959593605,-3.448711402180688","0","0"
"483","86","text","0","51","888415","0-0","","","","","","","","","","","","","","","","","","","","","","","","","","","","","","","","","","","","",""
"","","plant-game","0","52","910561","0-0","","200","120","8","WHEAT CROP","Right","200","180","2","NETTLE WEED","experimental","13","1,2,3,4,5,6,7,8","180,214.86003105932966,140,194.1564157313166,204.0992170698152,225.28784162854194,181.91798243092444,222.1370539581207","2,1,6,5,4,3,2,1","NETTLE WEED,NETTLE WEED,THISTLE WEED,THISTLE WEED,THISTLE WEED,THISTLE WEED,THISTLE WEED,THISTLE WEED","120,132.56429619017547,143.90273539840874,183.39150530675357,200.84731987288086,195.69069223251327,192.77910746222577,207.8446566477396","8,7,6,5,4,3,2,1","WHEAT CROP,WHEAT CROP,WHEAT CROP,WHEAT CROP,WHEAT CROP,WHEAT CROP,WHEAT CROP,WHEAT CROP","0,0,0,0,0,0,0,0","20,20,20,20,20,20,20,20","10,10,10,10,10,10,10,10","20,20,20,20,20,20,20,20","20,20,20,20,20,20,20,20","20,20,20,20,20,20,20,20","0,0,0,0,0,0,0,0","20,20,20,20,20,20,20,20","10,10,10,10,10,10,10,10","20,20,20,20,20,20,20,20","20,20,20,20,20,20,20,20","20,20,20,20,20,20,20,20","0,0,1,1,0,0,1,0","5205,2857,2506,1171,1009,1050,1055,616","34.86003105932965,-37.608563083945256,54.15641573131661,9.9428013384986,21.188624558726723,-43.36985919761749,40.21907152719625,3.755044194125169","12.564296190175481,11.338439208233256,39.488769908344835,17.45581456612729,-5.1566276403675895,-2.911584770287514,15.065549185513849,-16.843786531894104","0","0"
"670","86","text","0","53","911335","0-0","","","","","","","","","","","","","","","","","","","","","","","","","","","","","","","","","","","","",""
"","","plant-game","0","54","920031","0-0","","200","180","1","WHEAT CROP","Left","200","190","1","THISTLE WEED","experimental","14","1","180","1","WHEAT CROP","190","1","THISTLE WEED","20","20","10","20","0","20","20","20","10","20","0","20","0","5019","45.7101088349753","36.676908779670505","0","0"
"783","86","text","0","55","920903","0-0","","","","","","","","","","","","","","","","","","","","","","","","","","","","","","","","","","","","",""
"","","plant-game","0","56","937822","0-0","","200","120","4","CORN CROP","Left","200","120","1","NETTLE WEED","experimental","15","1,2,3,4","120,146.77171820402395,132.62133843379277,176.8427320617938","4,3,2,1","CORN CROP,CORN CROP,CORN CROP,CORN CROP","120,170,165.43202488928702,190.2754231364916","1,3,2,1","NETTLE WEED,THISTLE WEED,THISTLE WEED,THISTLE WEED","20,20,20,20","20,20,20,20","10,10,10,10","20,20,20,20","0,0,0,0","20,20,20,20","20,20,20,20","20,20,20,20","10,10,10,10","20,20,20,20","0,0,0,0","20,20,20,20","0,1,1,1","3715,4714,789,2552","26.771718204023948,-14.150379770231174,44.22139362800103,-43.39030886595581","2.6244184145070513,-4.5679751107129665,24.84339824720459,-12.740280134135556","0","0"
"171","86","text","0","57","938071","0-0","","","","","","","","","","","","","","","","","","","","","","","","","","","","","","","","","","","","",""
"","","plant-game","0","58","948254","0-0","","200","120","1","WHEAT CROP","Left","200","180","1","NETTLE WEED","experimental","16","1","120","1","WHEAT CROP","180","1","NETTLE WEED","20","20","10","20","0","20","20","20","10","20","0","20","1","6961","-1.8107003758029925","-38.65554717945086","0","0"
"7161","86","text","0","59","955493","0-0","","","","","","","","","","","","","","","","","","","","","","","","","","","","","","","","","","","","",""
"","","plant-game","0","60","972716","0-0","","200","180","4","WHEAT CROP","Right","200","160","4","THISTLE WEED","experimental","17","1,2,3,4","160,145.6339478730781,182.81111572682246,201.03769031624222","4,3,2,1","THISTLE WEED,THISTLE WEED,THISTLE WEED,THISTLE WEED","180,172.37630709030287,176.92494185672746,184.9718992311291","4,3,2,1","WHEAT CROP,WHEAT CROP,WHEAT CROP,WHEAT CROP","0,0,0,0","20,20,20,20","10,10,10,10","20,20,20,20","20,20,20,20","20,20,20,20","0,0,0,0","20,20,20,20","10,10,10,10","20,20,20,20","20,20,20,20","20,20,20,20","0,0,0,0","9053,694,1995,1974","-14.366052126921872,37.17716785374436,18.22657458941975,17.63757550247618","-7.623692909697134,4.548634766424576,8.046957374401655,-14.234736697720159","0","0"
"259","86","text","0","61","973043","0-0","","","","","","","","","","","","","","","","","","","","","","","","","","","","","","","","","","","","",""
"","","plant-game","0","62","995639","0-0","","200","120","1","CORN CROP","Left","200","160","4","THISTLE WEED","experimental","18","1,2,3,4","120,170,200.68112533480098,188.98028658729615","1,3,2,1","CORN CROP,WHEAT CROP,WHEAT CROP,WHEAT CROP","160,176.06492443496208,199.69570268950832,174.49668884233438","4,3,2,1","THISTLE WEED,THISTLE WEED,THISTLE WEED,THISTLE WEED","20,20,20,20","20,20,20,20","10,10,10,10","20,20,20,20","0,0,0,0","20,20,20,20","20,20,20,20","20,20,20,20","10,10,10,10","20,20,20,20","0,0,0,0","20,20,20,20","1,0,1,1","5365,6256,2553,3234","12.565463379744621,30.681125334800967,-11.700838747504834,1.3610081141128605","16.06492443496207,23.630778254546243,-25.199013847173934,5.727309092106934","0","0"
"544","86","text","0","63","996263","0-0","","","","","","","","","","","","","","","","","","","","","","","","","","","","","","","","","","","","",""
"","","plant-game","0","64","1005765","0-0","","200","160","1","WHEAT CROP","Left","200","120","1","NETTLE WEED","experimental","19","1","160","1","WHEAT CROP","120","1","NETTLE WEED","20","20","10","20","0","20","20","20","10","20","0","20","0","6686","10.50432072645691","36.48101587925456","0","0"
"524","86","text","0","65","1006383","0-0","","","","","","","","","","","","","","","","","","","","","","","","","","","","","","","","","","","","",""
"","","plant-game","0","66","1023456","0-0","","200","120","8","WHEAT CROP","Left","200","120","8","NETTLE WEED","experimental","20","1,2,3,4,5,6,7,8","120,116.49090312717985,137.28442531014326,112.96854807157499,101.8323387200148,107.00893693979553,118.67995975533522,120.99550280517417","8,7,6,5,4,3,2,1","WHEAT CROP,WHEAT CROP,WHEAT CROP,WHEAT CROP,WHEAT CROP,WHEAT CROP,WHEAT CROP,WHEAT CROP","120,133.83479051425726,145.94222667329555,157.31476014555247,154.3122693876719,140.93910404764105,152.20967104291023,223.80797020029536","8,7,6,5,4,3,2,1","NETTLE WEED,NETTLE WEED,NETTLE WEED,NETTLE WEED,NETTLE WEED,NETTLE WEED,NETTLE WEED,NETTLE WEED","20,20,20,20,20,20,20,20","20,20,20,20,20,20,20,20","10,10,10,10,10,10,10,10","20,20,20,20,20,20,20,20","0,0,0,0,0,0,0,0","20,20,20,20,20,20,20,20","20,20,20,20,20,20,20,20","20,20,20,20,20,20,20,20","10,10,10,10,10,10,10,10","20,20,20,20,20,20,20,20","0,0,0,0,0,0,0,0","20,20,20,20,20,20,20,20","1,1,1,1,1,1,0,1","6960,488,586,2133,425,365,857,467","-3.5090968728201455,20.79352218296343,-24.315877238568284,-11.136209351560177,5.176598219780733,11.671022815539692,2.3155430498389578,3.1853750118616593","13.834790514257257,12.107436159038286,11.372533472256915,-3.002490757880556,-13.373165340030857,11.270566995269181,71.59829915738511,-19.4375256622705","0","0"
"220","86","text","0","67","1023766","0-0","","","","","","","","","","","","","","","","","","","","","","","","","","","","","","","","","","","","",""
"","","plant-game","0","68","1041647","0-0","","200","120","8","CORN CROP","Left","200","180","8","THISTLE WEED","experimental","21","1,2,3,4,5,6,7,8","120,106.65500606255274,153.41718703739755,144.8239842552917,141.23183831214607,158.60634448636714,144.49086758733895,149.64720337491215","8,7,6,5,4,3,2,1","CORN CROP,CORN CROP,CORN CROP,CORN CROP,CORN CROP,CORN CROP,CORN CROP,CORN CROP","180,151.11398743680394,155.26883712824326,178.71761278502487,178.44745506583428,128.76490543746544,136.86941047221364,114.6525099067414","8,7,6,5,4,3,2,1","THISTLE WEED,THISTLE WEED,THISTLE WEED,THISTLE WEED,THISTLE WEED,THISTLE WEED,THISTLE WEED,THISTLE WEED","20,20,20,20,20,20,20,20","20,20,20,20,20,20,20,20","10,10,10,10,10,10,10,10","20,20,20,20,20,20,20,20","0,0,0,0,0,0,0,0","20,20,20,20,20,20,20,20","20,20,20,20,20,20,20,20","20,20,20,20,20,20,20,20","10,10,10,10,10,10,10,10","20,20,20,20,20,20,20,20","0,0,0,0,0,0,0,0","20,20,20,20,20,20,20,20","1,1,1,1,1,1,1,1","7235,1976,545,688,494,707,460,486","-13.344993937447253,46.76218097484481,-8.593202782105873,-3.5921459431456313,17.37450617422108,-14.115476899028184,5.156335787573191,-16.89165179897778","-28.886012563196076,4.1548496914393125,23.44877565678161,-0.2701577191906028,-49.68254962836883,8.104505034748193,-22.216900565472244,-28.492082162445804","0","0"
"464","86","text","0","69","1042204","0-0","","","","","","","","","","","","","","","","","","","","","","","","","","","","","","","","","","","","",""
"","","plant-game","0","70","1065203","0-0","","200","190","1","CORN CROP","Left","200","120","4","THISTLE WEED","experimental","22","1,2,3,4","190,170,211.73801376315174,217.34891347942613","1,3,2,1","CORN CROP,WHEAT CROP,WHEAT CROP,WHEAT CROP","120,141.193372252351,127.09708639203741,123.71462470018507","4,3,2,1","THISTLE WEED,THISTLE WEED,THISTLE WEED,THISTLE WEED","20,20,20,20","20,20,20,20","10,10,10,10","20,20,20,20","0,0,0,0","20,20,20,20","20,20,20,20","20,20,20,20","10,10,10,10","20,20,20,20","0,0,0,0","20,20,20,20","0,0,1,0","3906,6729,4816,1090","33.79868039407796,41.738013763151756,5.610899716274385,-21.96559041290719","21.19337225235099,-14.096285860313586,-3.3824616918523462,38.926058140281775","0","0"
"986","86","text","0","71","1066339","0-0","","","","","","","","","","","","","","","","","","","","","","","","","","","","","","","","","","","","",""
"","","plant-game","0","72","1100649","0-0","","200","190","8","CORN CROP","Right","200","160","1","THISTLE WEED","experimental","23","1,2,3,4,5,6,7,8","160,130,108.75738125465142,120.85010644233475,128.82373352732637,112.26821180924952,137.64157630260866,152.72822667973003","1,7,6,5,4,3,2,1","THISTLE WEED,NETTLE WEED,NETTLE WEED,NETTLE WEED,NETTLE WEED,NETTLE WEED,NETTLE WEED,NETTLE WEED","190,171.26657735261261,177.79429951955817,155.07805798141467,180.351857297807,195.41372384315613,231.31702712133952,227.59458026103115","8,7,6,5,4,3,2,1","CORN CROP,CORN CROP,CORN CROP,CORN CROP,CORN CROP,CORN CROP,CORN CROP,CORN CROP","0,0,0,0,0,0,0,0","20,20,20,20,20,20,20,20","10,10,10,10,10,10,10,10","20,20,20,20,20,20,20,20","20,20,20,20,20,20,20,20","20,20,20,20,20,20,20,20","0,0,0,0,0,0,0,0","20,20,20,20,20,20,20,20","10,10,10,10,10,10,10,10","20,20,20,20,20,20,20,20","20,20,20,20,20,20,20,20","20,20,20,20,20,20,20,20","0,1,0,1,0,1,0,0","12053,5711,3179,1776,980,1257,1214,924","-11.295865332231829,-21.242618745348587,12.092725187683325,7.973627084991614,-16.55552171807685,25.373364493359134,15.08665037712136,14.505089098718917","-18.7334226473874,6.527722166945541,-22.7162415381435,25.27379931639232,15.061866545349138,35.90330327818339,-3.722446860308366,-15.774445629369813","0","0"
"430","86","text","0","73","1101169","0-0","","","","","","","","","","","","","","","","","","","","","","","","","","","","","","","","","","","","",""
"","","plant-game","0","74","1123714","0-0","","200","190","1","WHEAT CROP","Right","200","190","4","THISTLE WEED","experimental","24","1,2,3,4","190,199.8281336999064,240.95115499731241,261.37192330450176","4,3,2,1","THISTLE WEED,THISTLE WEED,THISTLE WEED,THISTLE WEED","190,170,198.1248323690761,215.1037980589151","1,3,2,1","WHEAT CROP,CORN CROP,CORN CROP,CORN CROP","0,0,0,0","20,20,20,20","10,10,10,10","20,20,20,20","20,20,20,20","20,20,20,20","0,0,0,0","20,20,20,20","10,10,10,10","20,20,20,20","20,20,20,20","20,20,20,20","1,1,1,1","10443,4566,576,992","9.8281336999064,41.12302129740602,20.42076830718936,11.116053097026303","-15.121383100137592,28.1248323690761,16.978965689838976,23.883221301496878","0","0"
"927","86","text","0","75","1124741","0-0","","","","","","","","","","","","","","","","","","","","","","","","","","","","","","","","","","","","",""
"","","plant-game","0","76","1143750","0-0","","200","190","8","CORN CROP","Left","200","190","1","THISTLE WEED","experimental","25","1,2,3,4,5,6,7,8","190,215.5206976965789,211.85722849764196,219.93714174969566,260.4389848203059,277.15477427925236,298.50296525263354,306.74201405249573","8,7,6,5,4,3,2,1","CORN CROP,CORN CROP,CORN CROP,CORN CROP,CORN CROP,CORN CROP,CORN CROP,CORN CROP","190,130,129.7462672335367,123.70309303497092,127.52172642105783,87.96118241590787,78.52809598620591,85.8378457314888","1,7,6,5,4,3,2,1","THISTLE WEED,NETTLE WEED,NETTLE WEED,NETTLE WEED,NETTLE WEED,NETTLE WEED,NETTLE WEED,NETTLE WEED","20,20,20,20,20,20,20,20","20,20,20,20,20,20,20,20","10,10,10,10,10,10,10,10","20,20,20,20,20,20,20,20","0,0,0,0,0,0,0,0","20,20,20,20,20,20,20,20","20,20,20,20,20,20,20,20","20,20,20,20,20,20,20,20","10,10,10,10,10,10,10,10","20,20,20,20,20,20,20,20","0,0,0,0,0,0,0,0","20,20,20,20,20,20,20,20","1,1,1,1,1,1,1,1","5057,3336,629,657,571,532,455,424","25.520697696578893,-3.663469198936953,8.079913252053698,40.50184307061027,16.71578945894645,21.34819097338118,8.239048799862198,4.209301373080738","-17.56903935497071,-0.25373276646330084,-6.043174198565794,3.818633386086919,-39.56054400514997,-9.433086429701962,7.3097497452828915,23.742202458769377","0","0"
"450","86","text","0","77","1144290","0-0","","","","","","","","","","","","","","","","","","","","","","","","","","","","","","","","","","","","",""
"","","plant-game","0","78","1153363","0-0","","200","180","2","WHEAT CROP","Left","200","180","2","NETTLE WEED","experimental","26","1,2","180,219.19290062641528","2,1","WHEAT CROP,WHEAT CROP","180,193.53879644027253","2,1","NETTLE WEED,NETTLE WEED","20,20","20,20","10,10","20,20","0,0","20,20","20,20","20,20","10,10","20,20","0,0","20,20","0,1","4012,2224","39.19290062641527,-12.749424966950498","13.538796440272545,28.944402748951177","0","0"
"467","86","text","0","79","1153920","0-0","","","","","","","","","","","","","","","","","","","","","","","","","","","","","","","","","","","","",""
"","","plant-game","0","80","1176463","0-0","","200","120","4","CORN CROP","Right","200","120","2","NETTLE WEED","experimental","27","1,2,3,4","120,96.23919427448593,180,233.5076818996309","2,1,2,1","NETTLE WEED,NETTLE WEED,THISTLE WEED,THISTLE WEED","120,160.23678628621963,234.7100181000461,239.7564036917006","4,3,2,1","CORN CROP,CORN CROP,CORN CROP,CORN CROP","0,0,0,0","20,20,20,20","10,10,10,10","20,20,20,20","20,20,20,20","20,20,20,20","0,0,0,0","20,20,20,20","10,10,10,10","20,20,20,20","20,20,20,20","20,20,20,20","1,1,0,1","6013,2479,4004,4470","-23.760805725514075,29.900783134824913,53.50768189963092,9.387882768823502","40.23678628621963,74.47323181382649,5.046385591654498,34.067545861208785","0","0"
"827","86","text","0","81","1177410","0-0","","","","","","","","","","","","","","","","","","","","","","","","","","","","","","","","","","","","",""
"","","plant-game","0","82","1197545","0-0","","200","190","4","WHEAT CROP","Left","200","120","2","NETTLE WEED","experimental","28","1,2,3,4","190,164.4336959754851,213.08660983219605,205.3881685371923","4,3,2,1","WHEAT CROP,WHEAT CROP,WHEAT CROP,WHEAT CROP","120,114.97448774358229,180,194.52718872380927","2,1,2,1","NETTLE WEED,NETTLE WEED,THISTLE WEED,THISTLE WEED","20,20,20,20","20,20,20,20","10,10,10,10","20,20,20,20","0,0,0,0","20,20,20,20","20,20,20,20","20,20,20,20","10,10,10,10","20,20,20,20","0,0,0,0","20,20,20,20","1,0,1,1","3902,2842,4504,3251","-25.566304024514885,48.65291385671094,-7.698441295003739,10.6677119650514","-5.025512256417719,26.27213317494212,14.52718872380926,2.616128247171673","0","0"
"450","86","text","0","83","1198085","0-0","","","","","","","","","","","","","","","","","","","","","","","","","","","","","","","","","","","","",""
"","","plant-game","0","84","1217407","0-0","","200","190","8","CORN CROP","Left","200","160","2","NETTLE WEED","experimental","29","1,2,3,4,5,6,7,8","190,197.56619089366725,185.76425429915935,168.56526390588965,210.9328494154454,193.66057988407576,215.7051738055457,196.4390853332441","8,7,6,5,4,3,2,1","CORN CROP,CORN CROP,CORN CROP,CORN CROP,CORN CROP,CORN CROP,CORN CROP,CORN CROP","160,167.24792581288256,140,165.6939015185702,172.2098267999455,171.9185261834355,211.62545238453174,222.8498926441466","2,1,6,5,4,3,2,1","NETTLE WEED,NETTLE WEED,THISTLE WEED,THISTLE WEED,THISTLE WEED,THISTLE WEED,THISTLE WEED,THISTLE WEED","20,20,20,20,20,20,20,20","20,20,20,20,20,20,20,20","10,10,10,10,10,10,10,10","20,20,20,20,20,20,20,20","0,0,0,0,0,0,0,0","20,20,20,20,20,20,20,20","20,20,20,20,20,20,20,20","20,20,20,20,20,20,20,20","10,10,10,10,10,10,10,10","20,20,20,20,20,20,20,20","0,0,0,0,0,0,0,0","20,20,20,20,20,20,20,20","1,1,1,0,1,0,1,0","4392,817,3974,608,752,608,1690,1170","7.566190893667249,-11.801936594507909,-17.198990393269696,42.36758550955573,-17.272269531369634,22.04459392146996,-19.266088472301625,32.357513980211095","7.247925812882553,-1.9580347638822173,25.69390151857018,6.515925281375294,-0.291300616509986,39.70692620109624,11.224440259614845,32.96733846410608","0","0"
"544","86","text","0","85","1218051","0-0","","","","","","","","","","","","","","","","","","","","","","","","","","","","","","","","","","","","",""
"","","plant-game","0","86","1232970","0-0","","200","180","8","CORN CROP","Left","200","160","1","THISTLE WEED","experimental","30","1,2,3,4,5,6,7,8","180,170.99390379691374,204.21235973904385,210.21912834349592,199.79296991286887,219.21086277789107,218.97942915103798,219.30346912908172","8,7,6,5,4,3,2,1","CORN CROP,CORN CROP,CORN CROP,CORN CROP,CORN CROP,CORN CROP,CORN CROP,CORN CROP","160,130,166.00837114904715,158.45534253862837,183.47243076030932,235.05784693221528,217.59761654364854,215.41383761095628","1,7,6,5,4,3,2,1","THISTLE WEED,NETTLE WEED,NETTLE WEED,NETTLE WEED,NETTLE WEED,NETTLE WEED,NETTLE WEED,NETTLE WEED","20,20,20,20,20,20,20,20","20,20,20,20,20,20,20,20","10,10,10,10,10,10,10,10","20,20,20,20,20,20,20,20","0,0,0,0,0,0,0,0","20,20,20,20,20,20,20,20","20,20,20,20,20,20,20,20","20,20,20,20,20,20,20,20","10,10,10,10,10,10,10,10","20,20,20,20,20,20,20,20","0,0,0,0,0,0,0,0","20,20,20,20,20,20,20,20","1,0,1,1,0,1,1,1","2471,2280,1281,2299,582,296,354,357","-9.00609620308627,33.21845594213009,6.0067686044520645,-10.426158430627062,19.4178928650222,-0.23143362685308835,0.3240399780437308,8.631536840410547","-13.84830517387021,36.008371149047136,-7.553028610418782,25.017088221680943,51.58541617190595,-17.46023038856675,-2.1837789326922703,-27.273787034551628","0","0"
"889","86","text","0","87","1233950","0-0","","","","","","","","","","","","","","","","","","","","","","","","","","","","","","","","","","","","",""
"","","plant-game","0","88","1263118","0-0","","200","180","4","CORN CROP","Right","200","190","1","THISTLE WEED","experimental","31","1,2,3,4","190,170,172.02027829903932,169.36120358611373","1,3,2,1","THISTLE WEED,NETTLE WEED,NETTLE WEED,NETTLE WEED","180,214.63061211061293,228.82655621037648,266.2796143892904","4,3,2,1","CORN CROP,CORN CROP,CORN CROP,CORN CROP","0,0,0,0","20,20,20,20","10,10,10,10","20,20,20,20","20,20,20,20","20,20,20,20","0,0,0,0","20,20,20,20","10,10,10,10","20,20,20,20","20,20,20,20","20,20,20,20","0,0,0,0","9635,5052,5123,2397","-15.469455276150688,2.0202782990393238,-2.659074712925591,-10.455825807120494","34.63061211061292,14.195944099763558,37.45305817891388,13.970314073150192","0","0"
"699","86","text","0","89","1263895","0-0","","","","","","","","","","","","","","","","","","","","","","","","","","","","","","","","","","","","",""
"","","plant-game","0","90","1286714","0-0","","200","120","8","WHEAT CROP","Right","200","190","8","NETTLE WEED","experimental","32","1,2,3,4,5,6,7,8","190,226.91375574099985,262.7759753416807,277.42249022175645,311.5044457919598,365.1170779667487,389.7402793777846,411.70058388068844","8,7,6,5,4,3,2,1","NETTLE WEED,NETTLE WEED,NETTLE WEED,NETTLE WEED,NETTLE WEED,NETTLE WEED,NETTLE WEED,NETTLE WEED","120,148.57704383412226,153.15271063502058,155.59008703241614,195.84122616637438,229.96180404064265,223.1724604498003,266.88842091698575","8,7,6,5,4,3,2,1","WHEAT CROP,WHEAT CROP,WHEAT CROP,WHEAT CROP,WHEAT CROP,WHEAT CROP,WHEAT CROP,WHEAT CROP","0,0,0,0,0,0,0,0","20,20,20,20,20,20,20,20","10,10,10,10,10,10,10,10","20,20,20,20,20,20,20,20","20,20,20,20,20,20,20,20","20,20,20,20,20,20,20,20","0,0,0,0,0,0,0,0","20,20,20,20,20,20,20,20","10,10,10,10,10,10,10,10","20,20,20,20,20,20,20,20","20,20,20,20,20,20,20,20","20,20,20,20,20,20,20,20","1,1,1,1,1,1,1,1","9846,1887,1177,463,2252,956,700,948","36.913755740999854,35.86221960068086,14.646514880075733,34.08195557020337,53.612632174788885,24.623201411035886,21.960304502903856,53.21012857410742","28.57704383412228,4.5756668008983254,2.437376397395557,40.25113913395823,34.12057787426826,-6.789343590842346,43.71596046718543,47.85839872515613","0","0"
"313","86","text","0","91","1287137","0-0","","","","","","","","","","","","","","","","","","","","","","","","","","","","","","","","","","","","",""
"","","plant-game","0","92","1313097","0-0","","200","120","2","CORN CROP","Left","200","120","1","NETTLE WEED","experimental","33","1,2","120,130.85046366630198","2,1","CORN CROP,CORN CROP","120,190","1,1","NETTLE WEED,THISTLE WEED","20,20","20,20","10,10","20,20","0,0","20,20","20,20","20,20","10,10","20,20","0,0","20,20","1,1","13412,5410","10.85046366630197,12.054641673617112","-23.83302781511265,-29.98783796063142","0","0"
"545","86","text","0","93","1313720","0-0","","","","","","","","","","","","","","","","","","","","","","","","","","","","","","","","","","","","",""
"","","plant-game","0","94","1337868","0-0","","200","160","8","WHEAT CROP","Left","200","120","1","THISTLE WEED","experimental","34","1,2,3,4,5,6,7,8","160,177.64020250857257,179.9762829310252,208.60943084513355,236.32759454294836,222.75171247237455,212.2099396537877,197.88035695769008","8,7,6,5,4,3,2,1","WHEAT CROP,WHEAT CROP,WHEAT CROP,WHEAT CROP,WHEAT CROP,WHEAT CROP,WHEAT CROP,WHEAT CROP","120,130,149.45077121323072,192.27420331675745,192.28925264162754,180.46184913724002,197.61456570751463,205.91842242912296","1,7,6,5,4,3,2,1","THISTLE WEED,NETTLE WEED,NETTLE WEED,NETTLE WEED,NETTLE WEED,NETTLE WEED,NETTLE WEED,NETTLE WEED","20,20,20,20,20,20,20,20","20,20,20,20,20,20,20,20","10,10,10,10,10,10,10,10","20,20,20,20,20,20,20,20","0,0,0,0,0,0,0,0","20,20,20,20,20,20,20,20","20,20,20,20,20,20,20,20","20,20,20,20,20,20,20,20","10,10,10,10,10,10,10,10","20,20,20,20,20,20,20,20","0,0,0,0,0,0,0,0","20,20,20,20,20,20,20,20","0,0,0,1,1,1,1,0","5105,3677,1081,1572,564,550,4562,771","17.64020250857258,2.336080422452632,28.63314791410834,27.71816369781483,-13.575882070573812,-10.541772818586857,-14.32958269609763,5.291531103354611","43.9374739037524,19.45077121323071,42.82343210352673,0.015049324870090329,-11.82740350438751,17.1527165702746,8.303856721608327,23.219256660726696","0","0"
"167","86","text","0","95","1338105","0-0","","","","","","","","","","","","","","","","","","","","","","","","","","","","","","","","","","","","",""
"","","plant-game","0","96","1360334","0-0","","200","190","1","CORN CROP","Left","200","190","8","NETTLE WEED","experimental","35","1,2,3,4,5,6,7,8","190,130,140.02884609446073,188.11691858779392,229.62122039308548,229.2074777854436,210.73363592034957,195.71701959458304","1,7,6,5,4,3,2,1","CORN CROP,WHEAT CROP,WHEAT CROP,WHEAT CROP,WHEAT CROP,WHEAT CROP,WHEAT CROP,WHEAT CROP","190,225.7183130283031,240.83469078368768,263.87181176001627,290.88774980510044,310.71595454603784,265.274123459425,286.8144224130545","8,7,6,5,4,3,2,1","NETTLE WEED,NETTLE WEED,NETTLE WEED,NETTLE WEED,NETTLE WEED,NETTLE WEED,NETTLE WEED,NETTLE WEED","20,20,20,20,20,20,20,20","20,20,20,20,20,20,20,20","10,10,10,10,10,10,10,10","20,20,20,20,20,20,20,20","0,0,0,0,0,0,0,0","20,20,20,20,20,20,20,20","20,20,20,20,20,20,20,20","20,20,20,20,20,20,20,20","10,10,10,10,10,10,10,10","20,20,20,20,20,20,20,20","0,0,0,0,0,0,0,0","20,20,20,20,20,20,20,20","0,0,0,0,1,1,1,0","4462,7434,362,301,1352,489,1809,565","28.195704521510116,10.028846094460722,48.08807249333319,41.50430180529155,-0.41374260764189646,-18.47384186509401,-15.01661632576653,38.194386962400614","35.718313028303086,15.11637775538458,23.037120976328588,27.015938045084155,19.82820474093738,-45.44183108661281,21.540298953629488,38.515447107283165","0","0"
"667","86","text","0","97","1361081","0-0","","","","","","","","","","","","","","","","","","","","","","","","","","","","","","","","","","","","",""
"","","plant-game","0","98","1378104","0-0","","200","180","4","WHEAT CROP","Left","200","120","1","THISTLE WEED","experimental","36","1,2,3,4","180,205.86412445203146,179.01151913126847,171.34720052506458","4,3,2,1","WHEAT CROP,WHEAT CROP,WHEAT CROP,WHEAT CROP","120,170,152.38060779232543,189.67196301699616","1,3,2,1","THISTLE WEED,NETTLE WEED,NETTLE WEED,NETTLE WEED","20,20,20,20","20,20,20,20","10,10,10,10","20,20,20,20","0,0,0,0","20,20,20,20","20,20,20,20","20,20,20,20","10,10,10,10","20,20,20,20","0,0,0,0","20,20,20,20","0,1,0,1","4683,4058,1376,1479","25.864124452031454,-26.852605320762997,-7.664318606203903,-22.56112362944691","6.816619894152527,-17.619392207674554,37.291355224670724,0.6716905928041517","0","0"
"492","86","text","0","99","1378686","0-0","","","","","","","","","","","","","","","","","","","","","","","","","","","","","","","","","","","","",""
"","","plant-game","0","100","1394075","0-0","","200","180","1","WHEAT CROP","Left","200","180","4","NETTLE WEED","experimental","37","1,2,3,4","180,170,186.52091277156796,211.52653675537297","1,3,2,1","WHEAT CROP,CORN CROP,CORN CROP,CORN CROP","180,220.54958202066706,224.97312308612308,272.1124081959055","4,3,2,1","NETTLE WEED,NETTLE WEED,NETTLE WEED,NETTLE WEED","20,20,20,20","20,20,20,20","10,10,10,10","20,20,20,20","0,0,0,0","20,20,20,20","20,20,20,20","20,20,20,20","10,10,10,10","20,20,20,20","0,0,0,0","20,20,20,20","0,0,0,0","4810,3362,1036,819","26.571283214144284,16.52091277156795,25.005623983805005,18.1897982423049","40.549582020667046,4.423541065456018,47.13928510978243,41.29432631153192","0","0"
"757","86","text","0","101","1394899","0-0","","","","","","","","","","","","","","","","","","","","","","","","","","","","","","","","","","","","",""
"","","plant-game","0","102","1402182","0-0","","200","190","2","CORN CROP","Left","200","180","2","NETTLE WEED","experimental","38","1,2","190,220.50172358912928","2,1","CORN CROP,CORN CROP","180,202.37722629906392","2,1","NETTLE WEED,NETTLE WEED","20,20","20,20","10,10","20,20","0,0","20,20","20,20","20,20","10,10","20,20","0,0","20,20","0,0","3206,914","30.501723589129277,-14.793895133117822","22.377226299063913,-1.70391673548934","0","0"
"768","86","text","0","103","1403062","0-0","","","","","","","","","","","","","","","","","","","","","","","","","","","","","","","","","","","","",""
"","","plant-game","0","104","1420422","0-0","","200","120","4","CORN CROP","Left","200","160","8","NETTLE WEED","experimental","39","1,2,3,4,5,6,7,8","120,147.9220455083886,181.9552806411242,220.6584625339915,160,143.2558072758299,181.7860989945618,192.39532844491325","4,3,2,1,4,3,2,1","CORN CROP,CORN CROP,CORN CROP,CORN CROP,WHEAT CROP,WHEAT CROP,WHEAT CROP,WHEAT CROP","160,164.4904242318321,215.5322641182904,238.28302646310078,217.1089272938574,215.0052704726122,218.87803169927093,214.38020177031268","8,7,6,5,4,3,2,1","NETTLE WEED,NETTLE WEED,NETTLE WEED,NETTLE WEED,NETTLE WEED,NETTLE WEED,NETTLE WEED,NETTLE WEED","20,20,20,20,20,20,20,20","20,20,20,20,20,20,20,20","10,10,10,10,10,10,10,10","20,20,20,20,20,20,20,20","0,0,0,0,0,0,0,0","20,20,20,20,20,20,20,20","20,20,20,20,20,20,20,20","20,20,20,20,20,20,20,20","10,10,10,10,10,10,10,10","20,20,20,20,20,20,20,20","0,0,0,0,0,0,0,0","20,20,20,20,20,20,20,20","0,0,0,1,1,1,1,1","4470,103,113,2212,3514,334,400,369","27.922045508388617,34.03323513273559,38.70318189286728,24.645633877534394,-16.744192724170098,38.530291718731895,10.609229450351439,-28.582052017017784","4.490424231832106,51.041839886458305,22.750762344810358,-21.174099169243398,-2.103656821245182,3.8727612266587377,-4.497829928958261,12.70333369637374","0","0"
"450","86","text","0","105","1421002","0-0","","","","","","","","","","","","","","","","","","","","","","","","","","","","","","","","","","","","",""
"","","plant-game","0","106","1429996","0-0","","200","120","4","WHEAT CROP","Right","200","120","4","THISTLE WEED","experimental","40","1,2,3,4","120,150.24279533271067,171.61311480813941,176.4139321221776","4,3,2,1","THISTLE WEED,THISTLE WEED,THISTLE WEED,THISTLE WEED","120,138.09420604394302,143.42322414573528,146.91088376520614","4,3,2,1","WHEAT CROP,WHEAT CROP,WHEAT CROP,WHEAT CROP","0,0,0,0","20,20,20,20","10,10,10,10","20,20,20,20","20,20,20,20","20,20,20,20","0,0,0,0","20,20,20,20","10,10,10,10","20,20,20,20","20,20,20,20","20,20,20,20","1,1,0,0","3433,282,1537,715","30.242795332710664,21.37031947542875,4.800817314038196,-5.240533564317062","18.094206043943025,5.329018101792268,3.487659619470868,20.34474132162924","0","0"
"654","86","text","0","107","1430853","0-0","","","","","","","","","","","","","","","","","","","","","","","","","","","","","","","","","","","","",""
"","","plant-game","0","108","1438223","0-0","","200","180","2","WHEAT CROP","Right","200","190","2","THISTLE WEED","experimental","41","1,2","190,214.2919576383046","2,1","THISTLE WEED,THISTLE WEED","180,171.5617628512375","2,1","WHEAT CROP,WHEAT CROP","0,0","20,20","10,10","20,20","20,20","20,20","0,0","20,20","10,10","20,20","20,20","20,20","0,0","2890,1034","24.29195763830461,-39.264763467483746","-8.43823714876251,-15.112553390919278","0","0"
"511","86","text","0","109","1438839","0-0","","","","","","","","","","","","","","","","","","","","","","","","","","","","","","","","","","","","",""
"","","plant-game","0","110","1455307","0-0","","200","120","2","WHEAT CROP","Right","200","190","8","THISTLE WEED","experimental","42","1,2,3,4,5,6,7,8","190,156.51344930910068,157.44802001236962,164.85641218370483,210.14994784718974,221.55271347235416,217.6030852680609,222.59863938353502","8,7,6,5,4,3,2,1","THISTLE WEED,THISTLE WEED,THISTLE WEED,THISTLE WEED,THISTLE WEED,THISTLE WEED,THISTLE WEED,THISTLE WEED","120,114.85425094587136,140,155.5222375246368,170.29802033116226,205.21422115377408,266.78231612262266,284.15914575579757","2,1,6,5,4,3,2,1","WHEAT CROP,WHEAT CROP,CORN CROP,CORN CROP,CORN CROP,CORN CROP,CORN CROP,CORN CROP","0,0,0,0,0,0,0,0","20,20,20,20,20,20,20,20","10,10,10,10,10,10,10,10","20,20,20,20,20,20,20,20","20,20,20,20,20,20,20,20","20,20,20,20,20,20,20,20","0,0,0,0,0,0,0,0","20,20,20,20,20,20,20,20","10,10,10,10,10,10,10,10","20,20,20,20,20,20,20,20","20,20,20,20,20,20,20,20","20,20,20,20,20,20,20,20","0,0,0,0,1,1,1,1","4730,393,3166,549,1934,345,400,285","-33.48655069089931,0.934570703268951,7.408392171335198,45.2935356634849,11.402765625164431,-3.949628204293237,4.9955541154741105,25.13567540357098","-5.145749054128638,23.44854868095432,15.52223752463682,14.77578280652545,34.916200822611806,61.568094968848555,17.376829633174893,34.728107748235196","0","0"
"720","86","text","0","111","1456122","0-0","","","","","","","","","","","","","","","","","","","","","","","","","","","","","","","","","","","","",""
"","","plant-game","0","112","1472610","0-0","","200","190","8","CORN CROP","Left","200","190","2","THISTLE WEED","experimental","43","1,2,3,4,5,6,7,8","190,203.1658252138516,177.9325804485087,178.7393282051746,185.33094424065712,200.45465945300114,203.24694820699122,187.9811267124842","8,7,6,5,4,3,2,1","CORN CROP,CORN CROP,CORN CROP,CORN CROP,CORN CROP,CORN CROP,CORN CROP,CORN CROP","190,184.2372465368037,140,139.65713872419758,158.68667711847183,167.64936207855393,154.7572125528583,174.65115604384812","2,1,6,5,4,3,2,1","THISTLE WEED,THISTLE WEED,NETTLE WEED,NETTLE WEED,NETTLE WEED,NETTLE WEED,NETTLE WEED,NETTLE WEED","20,20,20,20,20,20,20,20","20,20,20,20,20,20,20,20","10,10,10,10,10,10,10,10","20,20,20,20,20,20,20,20","0,0,0,0,0,0,0,0","20,20,20,20,20,20,20,20","20,20,20,20,20,20,20,20","20,20,20,20,20,20,20,20","10,10,10,10,10,10,10,10","20,20,20,20,20,20,20,20","0,0,0,0,0,0,0,0","20,20,20,20,20,20,20,20","1,1,1,1,1,1,1,1","3422,501,5338,406,427,409,430,446","13.165825213851605,-25.233244765342913,0.8067477566658855,6.591616035482522,15.123715212344015,2.7922887539900727,-15.265821494507016,-0.06848418998750935","-5.762753463196301,-2.6193986069266835,-0.3428612758024127,19.02953839427424,8.962684960082104,-12.892149525695633,19.893943490989823,-0.6083533137567925","0","0"
"676","86","text","0","113","1473376","0-0","","","","","","","","","","","","","","","","","","","","","","","","","","","","","","","","","","","","",""
"","","plant-game","0","114","1493383","0-0","","200","160","8","CORN CROP","Left","200","190","1","THISTLE WEED","experimental","44","1,2,3,4,5,6,7,8","160,160.81729392141258,206.99090976888968,247.6875954272814,223.0602512733481,196.27564102487878,224.3521305318041,212.54618868105882","8,7,6,5,4,3,2,1","CORN CROP,CORN CROP,CORN CROP,CORN CROP,CORN CROP,CORN CROP,CORN CROP,CORN CROP","190,130,173.9204484781347,204.36902383076983,205.6322908007823,211.96003602148633,186.90258258849127,171.9210323172456","1,7,6,5,4,3,2,1","THISTLE WEED,NETTLE WEED,NETTLE WEED,NETTLE WEED,NETTLE WEED,NETTLE WEED,NETTLE WEED,NETTLE WEED","20,20,20,20,20,20,20,20","20,20,20,20,20,20,20,20","10,10,10,10,10,10,10,10","20,20,20,20,20,20,20,20","0,0,0,0,0,0,0,0","20,20,20,20,20,20,20,20","20,20,20,20,20,20,20,20","20,20,20,20,20,20,20,20","10,10,10,10,10,10,10,10","20,20,20,20,20,20,20,20","0,0,0,0,0,0,0,0","20,20,20,20,20,20,20,20","1,0,0,1,1,1,1,1","2482,2609,212,1732,442,2380,2285,2625","0.8172939214125754,46.1736158474771,40.69668565839172,-24.627344153933297,-26.7846102484693,28.076489506925316,-11.80594185074527,0.011565685357262538","-6.572068062832149,43.920448478134674,30.448575352635157,1.2632669700124737,6.327745220704038,-25.05745343299505,-14.981550271245682,17.690863864038832","0","0"
"746","86","text","0","115","1494229","0-0","","","","","","","","","","","","","","","","","","","","","","","","","","","","","","","","","","","","",""
"","","plant-game","0","116","1513983","0-0","","200","120","8","WHEAT CROP","Right","200","160","8","THISTLE WEED","experimental","45","1,2,3,4,5,6,7,8","160,155.91422839164787,187.04222556480502,215.73652710468144,191.49139095901396,229.30433236647966,209.50089397353238,205.4472008967172","8,7,6,5,4,3,2,1","THISTLE WEED,THISTLE WEED,THISTLE WEED,THISTLE WEED,THISTLE WEED,THISTLE WEED,THISTLE WEED,THISTLE WEED","120,165.02460315843166,216.74052733566856,233.64163788443818,233.9994730552631,238.81507120980507,240.27644662920068,214.6860771408538","8,7,6,5,4,3,2,1","WHEAT CROP,WHEAT CROP,WHEAT CROP,WHEAT CROP,WHEAT CROP,WHEAT CROP,WHEAT CROP,WHEAT CROP","0,0,0,0,0,0,0,0","20,20,20,20,20,20,20,20","10,10,10,10,10,10,10,10","20,20,20,20,20,20,20,20","20,20,20,20,20,20,20,20","20,20,20,20,20,20,20,20","0,0,0,0,0,0,0,0","20,20,20,20,20,20,20,20","10,10,10,10,10,10,10,10","20,20,20,20,20,20,20,20","20,20,20,20,20,20,20,20","20,20,20,20,20,20,20,20","1,1,0,0,0,0,0,0","7555,791,3611,726,581,543,550,1966","-4.085771608352129,31.127997173157148,28.694301539876417,-24.24513614566748,37.81294140746571,-19.803438392947264,-4.053693076815197,2.8008470429651022","45.02460315843166,51.715924177236914,16.901110548769612,0.35783517082493493,4.81559815454197,1.461375419395596,-25.590369488346887,-3.162227532941495","0","0"
"473","86","text","0","117","1514556","0-0","","","","","","","","","","","","","","","","","","","","","","","","","","","","","","","","","","","","",""
"","","plant-game","0","118","1524499","0-0","","200","180","4","WHEAT CROP","Right","200","120","4","THISTLE WEED","experimental","46","1,2,3,4","120,152.69893823598272,196.38584308812437,204.02687459552305","4,3,2,1","THISTLE WEED,THISTLE WEED,THISTLE WEED,THISTLE WEED","180,191.6203935579409,186.98235067670416,204.86252191808327","4,3,2,1","WHEAT CROP,WHEAT CROP,WHEAT CROP,WHEAT CROP","0,0,0,0","20,20,20,20","10,10,10,10","20,20,20,20","20,20,20,20","20,20,20,20","0,0,0,0","20,20,20,20","10,10,10,10","20,20,20,20","20,20,20,20","20,20,20,20","1,1,1,1","3007,429,1168,2173","32.698938235982716,43.686904852141666,7.641031507398676,-16.827844685985923","11.6203935579409,-4.63804288123675,17.880171241379117,6.8117930740131065","0","0"
"510","86","text","0","119","1525139","0-0","","","","","","","","","","","","","","","","","","","","","","","","","","","","","","","","","","","","",""
"","","plant-game","0","120","1538982","0-0","","200","190","4","CORN CROP","Left","200","180","2","NETTLE WEED","experimental","47","1,2,3,4","190,201.21135785550123,175.72868844221153,201.4061734321798","4,3,2,1","CORN CROP,CORN CROP,CORN CROP,CORN CROP","180,186.58060543967886,180,181.75563724608472","2,1,2,1","NETTLE WEED,NETTLE WEED,THISTLE WEED,THISTLE WEED","20,20,20,20","20,20,20,20","10,10,10,10","20,20,20,20","0,0,0,0","20,20,20,20","20,20,20,20","20,20,20,20","10,10,10,10","20,20,20,20","0,0,0,0","20,20,20,20","1,1,0,0","6037,96,3341,53","11.211357855501227,-25.48266941328969,25.67748498996826,41.40059125651532","6.580605439678866,-22.972513975351085,1.7556372460847278,14.26600122768639","0","0"
"713","86","text","0","121","1539775","0-0","","","","","","","","","","","","","","","","","","","","","","","","","","","","","","","","","","","","",""
"","","plant-game","0","122","1566237","0-0","","200","120","1","WHEAT CROP","Left","200","180","8","THISTLE WEED","experimental","48","1,2,3,4,5,6,7,8","120,130,162.07860298591402,181.56635709057596,240.96170939028013,265.8496926791975,275.7040612255343,296.1712321369185","1,7,6,5,4,3,2,1","WHEAT CROP,CORN CROP,CORN CROP,CORN CROP,CORN CROP,CORN CROP,CORN CROP,CORN CROP","180,139.3775739367119,168.86606451319386,169.86826727704758,194.67125648392636,163.44220248410892,133.17452697443588,115.7004738906973","8,7,6,5,4,3,2,1","THISTLE WEED,THISTLE WEED,THISTLE WEED,THISTLE WEED,THISTLE WEED,THISTLE WEED,THISTLE WEED,THISTLE WEED","20,20,20,20,20,20,20,20","20,20,20,20,20,20,20,20","10,10,10,10,10,10,10,10","20,20,20,20,20,20,20,20","0,0,0,0,0,0,0,0","20,20,20,20,20,20,20,20","20,20,20,20,20,20,20,20","20,20,20,20,20,20,20,20","10,10,10,10,10,10,10,10","20,20,20,20,20,20,20,20","0,0,0,0,0,0,0,0","20,20,20,20,20,20,20,20","1,0,0,0,1,1,1,1","2752,10749,3933,616,699,505,422,578","-29.044206956208672,32.07860298591403,19.487754104661942,59.39535229970418,24.88798328891736,9.85436854633677,20.46717091138419,-23.796479829234304","-40.62242606328808,29.488490576481958,1.0022027638537274,24.80298920687879,-31.229053999817427,-30.267675509673033,-17.474053083738585,41.73640640768802","0","0"
"3943","86","text","0","123","1570260","0-0","","","","","","","","","","","","","","","","","","","","","","","","","","","","","","","","","","","","",""
"","","plant-game","0","124","1586755","0-0","","200","120","8","CORN CROP","Left","200","160","1","NETTLE WEED","experimental","49","1,2,3,4,5,6,7,8","120,134.3806336219682,174.74340620760478,174.015569700987,197.9534026185587,191.0912558235506,213.02616260173593,219.14737611193053","8,7,6,5,4,3,2,1","CORN CROP,CORN CROP,CORN CROP,CORN CROP,CORN CROP,CORN CROP,CORN CROP,CORN CROP","160,130,158.22024344436977,205.35754096015003,242.7054385495175,254.80840828870691,279.7971338906296,253.8625648228242","1,7,6,5,4,3,2,1","NETTLE WEED,THISTLE WEED,THISTLE WEED,THISTLE WEED,THISTLE WEED,THISTLE WEED,THISTLE WEED,THISTLE WEED","20,20,20,20,20,20,20,20","20,20,20,20,20,20,20,20","10,10,10,10,10,10,10,10","20,20,20,20,20,20,20,20","0,0,0,0,0,0,0,0","20,20,20,20,20,20,20,20","20,20,20,20,20,20,20,20","20,20,20,20,20,20,20,20","10,10,10,10,10,10,10,10","20,20,20,20,20,20,20,20","0,0,0,0,0,0,0,0","20,20,20,20,20,20,20,20","0,0,0,1,1,0,1,1","5286,3068,109,610,664,742,775,431","14.38063362196819,40.36277258563658,-0.7278365066177948,23.937832917571708,-6.8621467950080905,21.934906778185326,6.121213510194598,0.2540797322962483","25.899718323767214,28.220243444369782,47.137297515780254,37.34789758936746,12.102969739189396,24.98872560192268,-25.934569067805402,23.46805699194813","0","0"
"500","86","text","0","125","1587351","0-0","","","","","","","","","","","","","","","","","","","","","","","","","","","","","","","","","","","","",""
"","","plant-game","0","126","1594459","0-0","","200","160","2","CORN CROP","Left","200","120","2","NETTLE WEED","experimental","50","1,2","160,192.64634712341123","2,1","CORN CROP,CORN CROP","120,131.1677464169201","2,1","NETTLE WEED,NETTLE WEED","20,20","20,20","10,10","20,20","0,0","20,20","20,20","20,20","10,10","20,20","0,0","20,20","0,0","4382,87","32.646347123411225,47.53524583940681","11.167746416920108,40.088456130364506","0","0"
"602","86","text","0","127","1595151","0-0","","","","","","","","","","","","","","","","","","","","","","","","","","","","","","","","","","","","",""
"","","plant-game","0","128","1611930","0-0","","200","160","8","CORN CROP","Left","200","190","2","THISTLE WEED","experimental","51","1,2,3,4,5,6,7,8","160,152.3401125803187,166.63844388544095,180.2369666324413,210.33984811004387,244.7273211602762,219.22832347926024,239.9389591988423","8,7,6,5,4,3,2,1","CORN CROP,CORN CROP,CORN CROP,CORN CROP,CORN CROP,CORN CROP,CORN CROP,CORN CROP","190,197.02496840965534,140,110.43583520608723,103.07813732983288,116.0981982397858,122.22670919229738,134.32822423038866","2,1,6,5,4,3,2,1","THISTLE WEED,THISTLE WEED,NETTLE WEED,NETTLE WEED,NETTLE WEED,NETTLE WEED,NETTLE WEED,NETTLE WEED","20,20,20,20,20,20,20,20","20,20,20,20,20,20,20,20","10,10,10,10,10,10,10,10","20,20,20,20,20,20,20,20","0,0,0,0,0,0,0,0","20,20,20,20,20,20,20,20","20,20,20,20,20,20,20,20","20,20,20,20,20,20,20,20","10,10,10,10,10,10,10,10","20,20,20,20,20,20,20,20","0,0,0,0,0,0,0,0","20,20,20,20,20,20,20,20","1,1,0,0,0,1,0,1","4578,467,2204,97,753,2146,1432,506","-7.659887419681302,14.298331305122252,13.598522747000333,30.10288147760258,34.38747305023233,-25.498997681015965,20.71063571958207,20.59550315786545","7.024968409655349,30.054668498753475,-29.56416479391276,-7.357697876254356,13.020060909952912,6.1285109525115775,12.10151503809129,10.659531359028172","0","0"
"880","86","text","0","129","1612900","0-0","","","","","","","","","","","","","","","","","","","","","","","","","","","","","","","","","","","","",""
"","","plant-game","0","130","1631046","0-0","","200","180","8","CORN CROP","Left","200","120","2","THISTLE WEED","experimental","52","1,2,3,4,5,6,7,8","180,175.75922384265107,198.20875478422676,207.52943569805817,213.05463020478845,220.39949724454007,237.10735300937995,224.34852794180452","8,7,6,5,4,3,2,1","CORN CROP,CORN CROP,CORN CROP,CORN CROP,CORN CROP,CORN CROP,CORN CROP,CORN CROP","120,163.0158158126308,140,144.193558467698,108.01834700413784,101.38278822554017,98.7713223521381,88.41434960186628","2,1,6,5,4,3,2,1","THISTLE WEED,THISTLE WEED,NETTLE WEED,NETTLE WEED,NETTLE WEED,NETTLE WEED,NETTLE WEED,NETTLE WEED","20,20,20,20,20,20,20,20","20,20,20,20,20,20,20,20","10,10,10,10,10,10,10,10","20,20,20,20,20,20,20,20","0,0,0,0,0,0,0,0","20,20,20,20,20,20,20,20","20,20,20,20,20,20,20,20","20,20,20,20,20,20,20,20","10,10,10,10,10,10,10,10","20,20,20,20,20,20,20,20","0,0,0,0,0,0,0,0","20,20,20,20,20,20,20,20","0,0,1,1,1,1,1,0","3055,3100,2992,510,426,395,2183,545","-4.240776157348943,22.44953094157569,9.320680913831406,5.525194506730297,7.344867039751623,16.70785576483988,-12.758825067575433,9.00420986466874","43.0158158126308,28.41272040848141,4.193558467698006,-36.175211463560174,-6.635558778597669,-2.6114658734020653,-10.35697275027182,59.179152465743215","0","0"
"730","86","text","0","131","1631886","0-0","","","","","","","","","","","","","","","","","","","","","","","","","","","","","","","","","","","","",""
"","","plant-game","0","132","1651396","0-0","","200","190","8","CORN CROP","Left","200","180","4","THISTLE WEED","experimental","53","1,2,3,4,5,6,7,8","190,178.42153250903502,155.34662874604032,148.66120531597326,149.17509570029128,139.21824083758284,144.68419319142885,154.5917941869802","8,7,6,5,4,3,2,1","CORN CROP,CORN CROP,CORN CROP,CORN CROP,CORN CROP,CORN CROP,CORN CROP,CORN CROP","180,176.10344794831775,196.35797225307005,218.72394309684626,160,201.90143132624496,199.07828731619668,255.19977621911724","4,3,2,1,4,3,2,1","THISTLE WEED,THISTLE WEED,THISTLE WEED,THISTLE WEED,NETTLE WEED,NETTLE WEED,NETTLE WEED,NETTLE WEED","20,20,20,20,20,20,20,20","20,20,20,20,20,20,20,20","10,10,10,10,10,10,10,10","20,20,20,20,20,20,20,20","0,0,0,0,0,0,0,0","20,20,20,20,20,20,20,20","20,20,20,20,20,20,20,20","20,20,20,20,20,20,20,20","10,10,10,10,10,10,10,10","20,20,20,20,20,20,20,20","0,0,0,0,0,0,0,0","20,20,20,20,20,20,20,20","1,1,1,1,0,0,0,0","5196,1318,1433,548,3551,82,1683,1466","-11.578467490964988,-23.074903762994698,-6.6854234300670745,0.513890384318022,-9.956854862708433,5.465952353846008,9.907600995551348,19.848249902312688","-3.896552051682245,20.254524304752305,22.365970843776225,12.994885711612579,41.901431326244975,-2.8231440100482814,56.121488902920554,1.395541830287204","0","0"
"620","86","text","0","133","1652096","0-0","","","","","","","","","","","","","","","","","","","","","","","","","","","","","","","","","","","","",""
"","","plant-game","0","134","1674664","0-0","","200","180","2","WHEAT CROP","Left","200","120","8","THISTLE WEED","experimental","54","1,2,3,4,5,6,7,8","180,184.79208243037883,140,177.45528974929277,215.50610219008246,216.09488290954405,216.0875514305574,249.86839267571358","2,1,6,5,4,3,2,1","WHEAT CROP,WHEAT CROP,CORN CROP,CORN CROP,CORN CROP,CORN CROP,CORN CROP,CORN CROP","120,97.461843399656,123.54590027047625,116.58466685306696,130.10669379612153,124.1728256160537,132.46988891163875,123.91645102499677","8,7,6,5,4,3,2,1","THISTLE WEED,THISTLE WEED,THISTLE WEED,THISTLE WEED,THISTLE WEED,THISTLE WEED,THISTLE WEED,THISTLE WEED","20,20,20,20,20,20,20,20","20,20,20,20,20,20,20,20","10,10,10,10,10,10,10,10","20,20,20,20,20,20,20,20","0,0,0,0,0,0,0,0","20,20,20,20,20,20,20,20","20,20,20,20,20,20,20,20","20,20,20,20,20,20,20,20","10,10,10,10,10,10,10,10","20,20,20,20,20,20,20,20","0,0,0,0,0,0,0,0","20,20,20,20,20,20,20,20","1,0,0,0,1,1,1,0","1926,1621,6277,111,2055,1503,2431,1092","4.79208243037884,-11.158691296075641,37.455289749292774,38.05081244078967,0.5887807194615975,-0.007331478986650901,33.78084124515619,58.89817689852399","-22.53815660034399,26.084056870820245,-6.961233417409286,13.52202694305457,-5.93386818006784,8.297063295585055,-8.553437886641966,-1.0018927867286962","0","0"
"504","86","text","0","135","1675248","0-0","","","","","","","","","","","","","","","","","","","","","","","","","","","","","","","","","","","","",""
"","","plant-game","0","136","1691525","0-0","","200","190","2","CORN CROP","Right","200","180","4","THISTLE WEED","experimental","55","1,2,3,4","180,183.8263345903801,164.99381571668044,150.3937383154849","4,3,2,1","THISTLE WEED,THISTLE WEED,THISTLE WEED,THISTLE WEED","190,196.00663529847742,180,210.09848681458","2,1,2,1","CORN CROP,CORN CROP,WHEAT CROP,WHEAT CROP","0,0,0,0","20,20,20,20","10,10,10,10","20,20,20,20","20,20,20,20","20,20,20,20","0,0,0,0","20,20,20,20","10,10,10,10","20,20,20,20","20,20,20,20","20,20,20,20","0,0,0,0","3175,1221,6420,1515","3.8263345903800894,-18.83251887369967,-14.60007740119553,-9.911421010952084","6.0066352984774145,16.97230622967165,30.098486814580006,42.17259627971224","0","0"
"584","86","text","0","137","1692205","0-0","","","","","","","","","","","","","","","","","","","","","","","","","","","","","","","","","","","","",""
"","","plant-game","0","138","1703327","0-0","","200","120","2","WHEAT CROP","Left","200","190","1","THISTLE WEED","experimental","56","1,2","120,92.4060558522111","2,1","WHEAT CROP,WHEAT CROP","190,190","1,1","THISTLE WEED,NETTLE WEED","20,20","20,20","10,10","20,20","0,0","20,20","20,20","20,20","10,10","20,20","0,0","20,20","1,1","3766,3609","-27.593944147788903,-26.9303553358365","-1.614128841511331,-31.234493509601577","0","0"
"643","86","text","0","139","1704060","0-0","","","","","","","","","","","","","","","","","","","","","","","","","","","","","","","","","","","","",""
"","","plant-game","0","140","1719930","0-0","","200","180","4","WHEAT CROP","Right","200","180","2","THISTLE WEED","experimental","57","1,2,3,4","180,150.3392271951694,180,191.09968646366028","2,1,2,1","THISTLE WEED,THISTLE WEED,NETTLE WEED,NETTLE WEED","180,175.64532096946579,209.52202239787897,220.83335118621855","4,3,2,1","WHEAT CROP,WHEAT CROP,WHEAT CROP,WHEAT CROP","0,0,0,0","20,20,20,20","10,10,10,10","20,20,20,20","20,20,20,20","20,20,20,20","0,0,0,0","20,20,20,20","10,10,10,10","20,20,20,20","20,20,20,20","20,20,20,20","0,1,0,0","4887,3277,2983,708","-29.6607728048306,-1.8929888734220057,11.099686463660278,8.476584964855206","-4.354679030534221,33.876701428413185,11.311328788339573,4.2716917597806034","0","0"
"380","86","text","0","141","1720390","0-0","","","","","","","","","","","","","","","","","","","","","","","","","","","","","","","","","","","","",""
"","","plant-game","0","142","1741904","0-0","","200","180","8","CORN CROP","Right","200","160","2","NETTLE WEED","experimental","58","1,2,3,4,5,6,7,8","160,159.92784451668592,140,186.1733467597191,208.23699904702588,197.97868124412096,220.53864933782086,234.10131289670124","2,1,6,5,4,3,2,1","NETTLE WEED,NETTLE WEED,THISTLE WEED,THISTLE WEED,THISTLE WEED,THISTLE WEED,THISTLE WEED,THISTLE WEED","180,189.45042892881145,174.464313252301,192.74974173541742,216.04320900634133,213.11959335726164,220.85239293513237,205.9293705000811","8,7,6,5,4,3,2,1","CORN CROP,CORN CROP,CORN CROP,CORN CROP,CORN CROP,CORN CROP,CORN CROP,CORN CROP","0,0,0,0,0,0,0,0","20,20,20,20,20,20,20,20","10,10,10,10,10,10,10,10","20,20,20,20,20,20,20,20","20,20,20,20,20,20,20,20","20,20,20,20,20,20,20,20","0,0,0,0,0,0,0,0","20,20,20,20,20,20,20,20","10,10,10,10,10,10,10,10","20,20,20,20,20,20,20,20","20,20,20,20,20,20,20,20","20,20,20,20,20,20,20,20","0,0,1,0,0,0,0,1","3188,712,1805,2459,4671,1480,1798,1165","-0.07215548331409095,-65.16392161000901,46.17334675971911,22.063652287306773,-10.258317802904903,22.55996809369988,13.562663558880395,25.146507662246105","9.45042892881144,-14.986115676510437,18.285428483116426,23.293467270923927,-2.9236156490796947,7.732799577870738,-14.92302243505128,2.505079922826848","0","0"
"112","86","text","0","143","1742086","0-0","","","","","","","","","","","","","","","","","","","","","","","","","","","","","","","","","","","","",""
"","","plant-game","0","144","1761999","0-0","","200","160","8","WHEAT CROP","Right","200","120","4","THISTLE WEED","experimental","59","1,2,3,4,5,6,7,8","120,89.35243329100916,91.34461483097965,136.50320620283213,160,186.70641215844492,209.51809984552125,202.3420658856609","4,3,2,1,4,3,2,1","THISTLE WEED,THISTLE WEED,THISTLE WEED,THISTLE WEED,NETTLE WEED,NETTLE WEED,NETTLE WEED,NETTLE WEED","160,146.77677572104804,153.16276502882792,150.9326121282312,185.0415390855668,242.13377008064037,208.32181526971823,203.8871240575829","8,7,6,5,4,3,2,1","WHEAT CROP,WHEAT CROP,WHEAT CROP,WHEAT CROP,WHEAT CROP,WHEAT CROP,WHEAT CROP,WHEAT CROP","0,0,0,0,0,0,0,0","20,20,20,20,20,20,20,20","10,10,10,10,10,10,10,10","20,20,20,20,20,20,20,20","20,20,20,20,20,20,20,20","20,20,20,20,20,20,20,20","0,0,0,0,0,0,0,0","20,20,20,20,20,20,20,20","10,10,10,10,10,10,10,10","20,20,20,20,20,20,20,20","20,20,20,20,20,20,20,20","20,20,20,20,20,20,20,20","0,0,0,1,1,0,0,1","4437,681,761,693,3282,1844,1480,1257","-30.64756670899083,1.9921815399704867,45.15859137185249,20.712440976466233,26.70641215844492,22.811687687076315,-7.176033959860342,41.820393196508334","-13.223224278951966,6.38598930777987,-2.230152900596724,34.108926957335605,57.092230995073585,-33.81195481092214,-4.434691212135335,4.8373076620813045","0","0"
"764","86","text","0","145","1762853","0-0","","","","","","","","","","","","","","","","","","","","","","","","","","","","","","","","","","","","",""
"","","plant-game","0","146","1778325","0-0","","200","160","2","CORN CROP","Left","200","160","2","THISTLE WEED","experimental","60","1,2","160,229.2861629111024","2,1","CORN CROP,CORN CROP","160,186.40239286636367","2,1","THISTLE WEED,THISTLE WEED","20,20","20,20","10,10","20,20","0,0","20,20","20,20","20,20","10,10","20,20","0,0","20,20","0,1","11540,929","69.2861629111024,-5.658102492310343","26.40239286636368,-14.175529229455226","0","0"
"627","86","text","0","147","1779040","0-0","","","","","","","","","","","","","","","","","","","","","","","","","","","","","","","","","","","","",""
"","","plant-game","0","148","1796968","0-0","","200","180","1","WHEAT CROP","Right","200","160","8","NETTLE WEED","experimental","61","1,2,3,4,5,6,7,8","160,168.77598825781354,140.1621705661322,131.81419087537674,133.4702341620025,150.29848508831367,143.3194162148709,174.12632989204036","8,7,6,5,4,3,2,1","NETTLE WEED,NETTLE WEED,NETTLE WEED,NETTLE WEED,NETTLE WEED,NETTLE WEED,NETTLE WEED,NETTLE WEED","180,130,128.4510079944423,100.54450799072085,111.16139016951122,129.20781536404564,131.43080415959002,164.86733591944252","1,7,6,5,4,3,2,1","WHEAT CROP,CORN CROP,CORN CROP,CORN CROP,CORN CROP,CORN CROP,CORN CROP,CORN CROP","0,0,0,0,0,0,0,0","20,20,20,20,20,20,20,20","10,10,10,10,10,10,10,10","20,20,20,20,20,20,20,20","20,20,20,20,20,20,20,20","20,20,20,20,20,20,20,20","0,0,0,0,0,0,0,0","20,20,20,20,20,20,20,20","10,10,10,10,10,10,10,10","20,20,20,20,20,20,20,20","20,20,20,20,20,20,20,20","20,20,20,20,20,20,20,20","1,0,0,1,1,0,1,0","2106,5860,877,779,457,702,329,668","8.775988257813527,-28.61381769168134,-8.347979690755476,1.6560432866257742,16.828250926311167,-6.979068873442772,30.806913677169476,16.272730833115617","18.145143533366298,-1.5489920055577056,-27.90650000372146,10.616882178790373,18.046425194534418,2.222988795544391,33.43653175985251,61.01245191707023","0","0"
"570","86","text","0","149","1797640","0-0","","","","","","","","","","","","","","","","","","","","","","","","","","","","","","","","","","","","",""
"","","plant-game","0","150","1814353","0-0","","200","190","4","WHEAT CROP","Right","200","180","1","THISTLE WEED","experimental","62","1,2,3,4","180,170,200.94732686894918,219.25441721566574","1,3,2,1","THISTLE WEED,NETTLE WEED,NETTLE WEED,NETTLE WEED","190,177.51699746938087,193.10957090304055,226.5703541137601","4,3,2,1","WHEAT CROP,WHEAT CROP,WHEAT CROP,WHEAT CROP","0,0,0,0","20,20,20,20","10,10,10,10","20,20,20,20","20,20,20,20","20,20,20,20","0,0,0,0","20,20,20,20","10,10,10,10","20,20,20,20","20,20,20,20","20,20,20,20","0,1,1,0","5150,2327,4167,621","-26.87729912820821,30.94732686894919,18.307090346716567,17.544202654773354","-12.483002530619123,15.59257343365968,33.46078321071954,-47.62693606768687","0","0"
"83","86","text","0","151","1814506","0-0","","","","","","","","","","","","","","","","","","","","","","","","","","","","","","","","","","","","",""
"","","plant-game","0","152","1838412","0-0","","200","190","1","WHEAT CROP","Left","200","180","8","NETTLE WEED","experimental","63","1,2,3,4,5,6,7,8","190,130,161.0202580780776,166.9550427996417,186.19999899188207,150.8919990513844,160.75382512971964,194.22095369952785","1,7,6,5,4,3,2,1","WHEAT CROP,CORN CROP,CORN CROP,CORN CROP,CORN CROP,CORN CROP,CORN CROP,CORN CROP","180,177.8869181125482,164.69059685466803,155.0647205904046,185.95727415481034,178.45663469796045,194.3493741676514,213.85306104244629","8,7,6,5,4,3,2,1","NETTLE WEED,NETTLE WEED,NETTLE WEED,NETTLE WEED,NETTLE WEED,NETTLE WEED,NETTLE WEED,NETTLE WEED","20,20,20,20,20,20,20,20","20,20,20,20,20,20,20,20","10,10,10,10,10,10,10,10","20,20,20,20,20,20,20,20","0,0,0,0,0,0,0,0","20,20,20,20,20,20,20,20","20,20,20,20,20,20,20,20","20,20,20,20,20,20,20,20","10,10,10,10,10,10,10,10","20,20,20,20,20,20,20,20","0,0,0,0,0,0,0,0","20,20,20,20,20,20,20,20","0,1,1,0,1,0,0,0","6151,5356,3782,1082,524,606,1053,1268","25.680101960993873,31.020258078077596,5.934784721564096,19.244956192240366,-35.30799994049766,9.861826078335234,33.467128569808224,16.076417371987272","-2.113081887451827,-13.19632125788015,-9.62587626426345,30.89255356440574,-7.500639456849879,15.892739469690952,19.50368687479488,0.8529159989629491","0","0"
"470","86","text","0","153","1838962","0-0","","","","","","","","","","","","","","","","","","","","","","","","","","","","","","","","","","","","",""
"","","plant-game","0","154","1854995","0-0","","200","190","2","WHEAT CROP","Left","200","160","8","NETTLE WEED","experimental","64","1,2,3,4,5,6,7,8","190,176.87132518741606,140,140.75762104123177,129.67901507551832,147.12343915731185,185.0255947174413,202.71179833173193","2,1,6,5,4,3,2,1","WHEAT CROP,WHEAT CROP,CORN CROP,CORN CROP,CORN CROP,CORN CROP,CORN CROP,CORN CROP","160,163.94287203510348,190.37703577318862,183.8507321254975,185.78102874869043,239.58826344053892,279.49824999165577,318.29315109713286","8,7,6,5,4,3,2,1","NETTLE WEED,NETTLE WEED,NETTLE WEED,NETTLE WEED,NETTLE WEED,NETTLE WEED,NETTLE WEED,NETTLE WEED","20,20,20,20,20,20,20,20","20,20,20,20,20,20,20,20","10,10,10,10,10,10,10,10","20,20,20,20,20,20,20,20","0,0,0,0,0,0,0,0","20,20,20,20,20,20,20,20","20,20,20,20,20,20,20,20","20,20,20,20,20,20,20,20","10,10,10,10,10,10,10,10","20,20,20,20,20,20,20,20","0,0,0,0,0,0,0,0","20,20,20,20,20,20,20,20","0,0,1,1,0,0,0,0","3049,2042,4914,374,629,65,538,129","-13.128674812583931,23.110401631695318,0.7576210412317752,-11.078605965713441,17.444424081793528,37.90215556012944,17.686203614290637,4.203327528292803","3.9428720351034876,26.43416373808514,-6.526303647691114,1.930296623192922,53.80723469184849,39.909986551116866,38.79490110547712,33.23885060907466","0","0"
"4787","86","text","0","155","1860022","0-0","","","","","","","","","","","","","","","","","","","","","","","","","","","","","","","","","","","","",""
"","","plant-game","0","156","1867693","0-0","","200","160","4","WHEAT CROP","Left","200","120","4","NETTLE WEED","experimental","65","1,2,3,4","160,190.2902956193994,194.77674753087646,210.18209071415376","4,3,2,1","WHEAT CROP,WHEAT CROP,WHEAT CROP,WHEAT CROP","120,153.88181661358348,169.2378944244009,163.25177880565974","4,3,2,1","NETTLE WEED,NETTLE WEED,NETTLE WEED,NETTLE WEED","20,20,20,20","20,20,20,20","10,10,10,10","20,20,20,20","0,0,0,0","20,20,20,20","20,20,20,20","20,20,20,20","10,10,10,10","20,20,20,20","0,0,0,0","20,20,20,20","0,1,1,0","2304,1233,568,784","30.290295619399377,4.486451911477076,15.4053431832773,0.7602498728635396","33.88181661358349,15.356077810817437,-5.986115618741161,23.65856922877092","0","0"
"156","86","text","0","157","1867919","0-0","","","","","","","","","","","","","","","","","","","","","","","","","","","","","","","","","","","","",""
"","","plant-game","0","158","1874899","0-0","","200","190","1","WHEAT CROP","Right","200","190","1","NETTLE WEED","experimental","66","1","190","1","NETTLE WEED","190","1","WHEAT CROP","0","20","10","20","20","20","0","20","10","20","20","20","1","4687","-2.7167515741859525","20.47685299027874","0","0"
"527","86","text","0","159","1875507","0-0","","","","","","","","","","","","","","","","","","","","","","","","","","","","","","","","","","","","",""
"","","plant-game","0","160","1886845","0-0","","200","190","2","CORN CROP","Left","200","180","1","NETTLE WEED","experimental","67","1,2","190,160.71775019795388","2,1","CORN CROP,CORN CROP","180,190","1,1","NETTLE WEED,THISTLE WEED","20,20","20,20","10,10","20,20","0,0","20,20","20,20","20,20","10,10","20,20","0,0","20,20","1,1","3843,3297","-29.282249802046124,34.245066998285","-13.222311131614209,-10.32825631104785","0","0"
"75","86","text","0","161","1886980","0-0","","","","","","","","","","","","","","","","","","","","","","","","","","","","","","","","","","","","",""
"","","plant-game","0","162","1905220","0-0","","200","160","8","CORN CROP","Left","200","120","8","THISTLE WEED","experimental","68","1,2,3,4,5,6,7,8","160,178.73272963629591,204.8047290539276,222.68726308594617,227.5171141424845,235.7065001344969,200.46855181066158,180.6607380659523","8,7,6,5,4,3,2,1","CORN CROP,CORN CROP,CORN CROP,CORN CROP,CORN CROP,CORN CROP,CORN CROP,CORN CROP","120,113.43574971519075,120.9823992445929,141.84878220904366,104.87719516033413,97.8284585019304,93.29667929849276,110.07318801356848","8,7,6,5,4,3,2,1","THISTLE WEED,THISTLE WEED,THISTLE WEED,THISTLE WEED,THISTLE WEED,THISTLE WEED,THISTLE WEED,THISTLE WEED","20,20,20,20,20,20,20,20","20,20,20,20,20,20,20,20","10,10,10,10,10,10,10,10","20,20,20,20,20,20,20,20","0,0,0,0,0,0,0,0","20,20,20,20,20,20,20,20","20,20,20,20,20,20,20,20","20,20,20,20,20,20,20,20","10,10,10,10,10,10,10,10","20,20,20,20,20,20,20,20","0,0,0,0,0,0,0,0","20,20,20,20,20,20,20,20","1,1,1,1,1,1,0,0","2214,426,6485,609,500,373,2552,2142","18.732729636295907,26.07199941763166,17.882534032018576,4.82985105653832,8.189385992012413,-35.23794832383532,-19.80781374470928,39.22159330738209","-6.5642502848092406,7.546649529402152,20.866382964450757,-36.97158704870954,-7.0487366584037305,-4.53177920343764,16.776508715075725,2.6698790840201028","0","0"
"70","86","text","0","163","1905370","0-0","","","","","","","","","","","","","","","","","","","","","","","","","","","","","","","","","","","","",""
"","","plant-game","0","164","1909930","0-0","","200","190","1","WHEAT CROP","Left","200","160","1","NETTLE WEED","experimental","69","1","190","1","WHEAT CROP","160","1","NETTLE WEED","20","20","10","20","0","20","20","20","10","20","0","20","0","1930","21.885719191214456","-1.9586287240808886","0","0"
"678","86","text","0","165","1910699","0-0","","","","","","","","","","","","","","","","","","","","","","","","","","","","","","","","","","","","",""
"","","plant-game","0","166","1920633","0-0","","200","190","1","CORN CROP","Right","200","180","2","NETTLE WEED","experimental","70","1,2","180,221.35235635835517","2,1","NETTLE WEED,NETTLE WEED","190,190","1,1","CORN CROP,WHEAT CROP","0,0","20,20","10,10","20,20","20,20","20,20","0,0","20,20","10,10","20,20","20,20","20,20","1,1","2889,3580","41.35235635835518,16.660819252574854","21.716366517245064,21.66367234898025","0","0"
"504","86","text","0","167","1921217","0-0","","","","","","","","","","","","","","","","","","","","","","","","","","","","","","","","","","","","",""
"","","plant-game","0","168","1938987","0-0","","200","180","4","WHEAT CROP","Left","200","180","4","THISTLE WEED","experimental","71","1,2,3,4","180,214.83908200111466,234.46379095267457,233.7739421202969","4,3,2,1","WHEAT CROP,WHEAT CROP,WHEAT CROP,WHEAT CROP","180,202.94166012923145,186.9487171560556,221.67548947636496","4,3,2,1","THISTLE WEED,THISTLE WEED,THISTLE WEED,THISTLE WEED","20,20,20,20","20,20,20,20","10,10,10,10","20,20,20,20","0,0,0,0","20,20,20,20","20,20,20,20","20,20,20,20","10,10,10,10","20,20,20,20","0,0,0,0","20,20,20,20","0,1,1,0","6794,3519,2264,1635","34.839082001114654,19.624708951559903,-0.6898488323776607,28.85417483698718","22.94166012923146,-15.992942973175843,34.72677232030936,25.60316059619246","1","0"
"192","86","text","0","169","1939256","0-0","","","","","","","","","","","","","","","","","","","","","","","","","","","","","","","","","","","","",""
"","","plant-game","0","170","1951206","0-0","","200","190","2","CORN CROP","Left","200","120","4","THISTLE WEED","experimental","72","1,2,3,4","190,195.85281915431392,180,211.12817780421057","2,1,2,1","CORN CROP,CORN CROP,WHEAT CROP,WHEAT CROP","120,159.38493626047656,151.5877045933578,185.64160837742483","4,3,2,1","THISTLE WEED,THISTLE WEED,THISTLE WEED,THISTLE WEED","20,20,20,20","20,20,20,20","10,10,10,10","20,20,20,20","0,0,0,0","20,20,20,20","20,20,20,20","20,20,20,20","10,10,10,10","20,20,20,20","0,0,0,0","20,20,20,20","0,0,0,1","2560,1426,3294,1015","5.852819154313913,17.303208713768925,31.12817780421057,10.572082876026197","39.384936260476564,-7.797231667118748,34.05390378406702,-18.199112922635095","0","0"
"427","86","text","0","171","1951733","0-0","","","","","","","","","","","","","","","","","","","","","","","","","","","","","","","","","","","","",""
"","","plant-game","0","172","1967533","0-0","","200","180","2","WHEAT CROP","Right","200","190","8","THISTLE WEED","experimental","73","1,2,3,4,5,6,7,8","190,209.39933189514554,223.29870377148168,217.46735185504903,241.80313520610625,251.1795763252093,295.68596653153804,322.1109911864171","8,7,6,5,4,3,2,1","THISTLE WEED,THISTLE WEED,THISTLE WEED,THISTLE WEED,THISTLE WEED,THISTLE WEED,THISTLE WEED,THISTLE WEED","180,189.47490471459844,140,162.96775517960737,176.12765487473115,215.3090179472706,225.6836369814424,263.28364980609297","2,1,6,5,4,3,2,1","WHEAT CROP,WHEAT CROP,CORN CROP,CORN CROP,CORN CROP,CORN CROP,CORN CROP,CORN CROP","0,0,0,0,0,0,0,0","20,20,20,20,20,20,20,20","10,10,10,10,10,10,10,10","20,20,20,20,20,20,20,20","20,20,20,20,20,20,20,20","20,20,20,20,20,20,20,20","0,0,0,0,0,0,0,0","20,20,20,20,20,20,20,20","10,10,10,10,10,10,10,10","20,20,20,20,20,20,20,20","20,20,20,20,20,20,20,20","20,20,20,20,20,20,20,20","1,1,1,1,1,1,1,1","2049,895,5003,250,205,185,413,1563","19.399331895145526,13.89937187633615,-5.831351916432645,24.335783351057206,9.376441119103054,44.50639020632873,26.42502465487904,16.38267705821555","9.474904714598441,6.596969521555447,22.967755179607355,13.159899695123777,39.181363072539455,10.374619034171783,37.60001282465059,32.20948050442378","0","0"
"226","86","text","0","173","1967829","0-0","","","","","","","","","","","","","","","","","","","","","","","","","","","","","","","","","","","","",""
"","","plant-game","0","174","1989388","0-0","","200","160","1","WHEAT CROP","Left","200","190","8","THISTLE WEED","experimental","74","1,2,3,4,5,6,7,8","160,130,146.38237835747168,146.6294187769383,142.50597107121374,144.38670184070494,155.1984662187387,167.71149400350498","1,7,6,5,4,3,2,1","WHEAT CROP,CORN CROP,CORN CROP,CORN CROP,CORN CROP,CORN CROP,CORN CROP,CORN CROP","190,184.11192578690046,184.08399364720958,184.61432523349526,207.05771315748467,225.86609615083327,237.67294019564923,265.062511977156","8,7,6,5,4,3,2,1","THISTLE WEED,THISTLE WEED,THISTLE WEED,THISTLE WEED,THISTLE WEED,THISTLE WEED,THISTLE WEED,THISTLE WEED","20,20,20,20,20,20,20,20","20,20,20,20,20,20,20,20","10,10,10,10,10,10,10,10","20,20,20,20,20,20,20,20","0,0,0,0,0,0,0,0","20,20,20,20,20,20,20,20","20,20,20,20,20,20,20,20","20,20,20,20,20,20,20,20","10,10,10,10,10,10,10,10","20,20,20,20,20,20,20,20","0,0,0,0,0,0,0,0","20,20,20,20,20,20,20,20","1,1,1,1,1,1,1,0","3547,8305,544,399,1566,357,597,945","-0.5883706369971304,16.382378357471673,0.24704041946663594,-4.123447705724564,1.8807307694912079,10.811764378033757,12.513027784766283,23.760576639362746","-5.888074213099552,-0.02793213969087035,0.5303315862856692,22.443387923989405,18.808382993348612,11.806844044815975,27.389571781506795,24.81257528581095","0","0"
"390","86","text","0","175","1989848","0-0","","","","","","","","","","","","","","","","","","","","","","","","","","","","","","","","","","","","",""
"","","plant-game","0","176","2007437","0-0","","200","190","1","WHEAT CROP","Right","200","120","8","NETTLE WEED","experimental","75","1,2,3,4,5,6,7,8","120,143.3268177513989,154.53446462610245,173.08274016545133,154.12347338149024,131.43215448946492,170.5378723511089,163.49137281554914","8,7,6,5,4,3,2,1","NETTLE WEED,NETTLE WEED,NETTLE WEED,NETTLE WEED,NETTLE WEED,NETTLE WEED,NETTLE WEED,NETTLE WEED","190,130,128.51891545822696,173.074817566768,204.0567823532338,206.0975094584782,232.75286002893864,248.38037335384","1,7,6,5,4,3,2,1","WHEAT CROP,CORN CROP,CORN CROP,CORN CROP,CORN CROP,CORN CROP,CORN CROP,CORN CROP","0,0,0,0,0,0,0,0","20,20,20,20,20,20,20,20","10,10,10,10,10,10,10,10","20,20,20,20,20,20,20,20","20,20,20,20,20,20,20,20","20,20,20,20,20,20,20,20","0,0,0,0,0,0,0,0","20,20,20,20,20,20,20,20","10,10,10,10,10,10,10,10","20,20,20,20,20,20,20,20","20,20,20,20,20,20,20,20","20,20,20,20,20,20,20,20","1,0,1,1,0,1,0,1","1594,3950,519,895,2267,1640,512,894","23.326817751398906,11.207646874703553,18.548275539348875,-18.959266783961077,-22.69131889202532,39.10571786164396,-7.046499535559748,16.152767368985597","58.861699538681634,-1.481084541773031,44.55590210854104,30.981964786465838,2.0407271052444025,26.655350570460442,15.627513324901363,16.606295296757413","0","0"
"440","86","text","0","177","2007977","0-0","","","","","","","","","","","","","","","","","","","","","","","","","","","","","","","","","","","","",""
"","","plant-game","0","178","2039092","0-0","","200","120","8","CORN CROP","Left","200","160","4","THISTLE WEED","experimental","76","1,2,3,4,5,6,7,8","120,150.65068884574762,170.38388785961658,196.89722213295016,215.37507860959278,227.92022801377266,253.87505245231577,227.40314734735057","8,7,6,5,4,3,2,1","CORN CROP,CORN CROP,CORN CROP,CORN CROP,CORN CROP,CORN CROP,CORN CROP,CORN CROP","160,185.83443518865033,213.64781475848457,221.99562503953186,160,165.9791455777069,174.44155246108403,214.56145342384627","4,3,2,1,4,3,2,1","THISTLE WEED,THISTLE WEED,THISTLE WEED,THISTLE WEED,NETTLE WEED,NETTLE WEED,NETTLE WEED,NETTLE WEED","20,20,20,20,20,20,20,20","20,20,20,20,20,20,20,20","10,10,10,10,10,10,10,10","20,20,20,20,20,20,20,20","0,0,0,0,0,0,0,0","20,20,20,20,20,20,20,20","20,20,20,20,20,20,20,20","20,20,20,20,20,20,20,20","10,10,10,10,10,10,10,10","20,20,20,20,20,20,20,20","0,0,0,0,0,0,0,0","20,20,20,20,20,20,20,20","0,1,0,0,1,1,1,1","10947,763,1342,939,7964,758,534,2529","30.65068884574763,19.733199013868948,26.513334273333594,18.47785647664261,12.54514940417989,25.954824438543103,-26.47190510496521,20.43607794091595","25.834435188650346,27.81337956983423,8.347810281047286,17.778041138646323,5.979145577706912,8.462406883377131,40.11990096276226,-9.206029210461216","0","0"
"758","86","text","0","179","2039950","0-0","","","","","","","","","","","","","","","","","","","","","","","","","","","","","","","","","","","","",""
"","","plant-game","0","180","2051041","0-0","","200","160","2","WHEAT CROP","Left","200","180","4","NETTLE WEED","experimental","77","1,2,3,4","160,132.95215451969415,180,184.02637027727573","2,1,2,1","WHEAT CROP,WHEAT CROP,CORN CROP,CORN CROP","180,184.49015050170615,189.8747651328449,175.17791591992037","4,3,2,1","NETTLE WEED,NETTLE WEED,NETTLE WEED,NETTLE WEED","20,20,20,20","20,20,20,20","10,10,10,10","20,20,20,20","0,0,0,0","20,20,20,20","20,20,20,20","20,20,20,20","10,10,10,10","20,20,20,20","0,0,0,0","20,20,20,20","1,1,1,1","3711,825,2413,495","-27.04784548030586,15.393882981502756,4.026370277275718,-0.2414673206193156","4.490150501706155,5.384614631138752,-14.696849212924546,-0.46994954886929563","0","0"
"537","86","text","0","181","2051668","0-0","","","","","","","","","","","","","","","","","","","","","","","","","","","","","","","","","","","","",""
"","","plant-game","0","182","2067675","0-0","","200","190","4","CORN CROP","Left","200","180","4","NETTLE WEED","experimental","78","1,2,3,4","190,218.9426377482413,235.23005808964533,248.80502908253433","4,3,2,1","CORN CROP,CORN CROP,CORN CROP,CORN CROP","180,191.61038758693735,244.60777427130193,219.69416445957765","4,3,2,1","NETTLE WEED,NETTLE WEED,NETTLE WEED,NETTLE WEED","20,20,20,20","20,20,20,20","10,10,10,10","20,20,20,20","0,0,0,0","20,20,20,20","20,20,20,20","20,20,20,20","10,10,10,10","20,20,20,20","0,0,0,0","20,20,20,20","0,1,1,1","8796,650,2450,620","28.942637748241303,16.28742034140401,13.574970992889018,22.196282864491977","11.61038758693736,52.99738668436457,-24.913609811724275,21.231607709931172","0","0"
"346","86","text","0","183","2068121","0-0","","","","","","","","","","","","","","","","","","","","","","","","","","","","","","","","","","","","",""
"","","plant-game","0","184","2076294","0-0","","200","190","4","CORN CROP","Right","200","160","4","NETTLE WEED","experimental","79","1,2,3,4","160,133.33855724060163,203.37151385575123,190.35125333535188","4,3,2,1","NETTLE WEED,NETTLE WEED,NETTLE WEED,NETTLE WEED","190,218.05061857689415,239.85593194504503,206.3671153586873","4,3,2,1","CORN CROP,CORN CROP,CORN CROP,CORN CROP","0,0,0,0","20,20,20,20","10,10,10,10","20,20,20,20","20,20,20,20","20,20,20,20","0,0,0,0","20,20,20,20","10,10,10,10","20,20,20,20","20,20,20,20","20,20,20,20","1,1,0,1","2696,476,1517,866","-26.661442759398362,70.0329566151496,-13.020260520399347,16.93337565336064","28.05061857689416,21.805313368150884,-33.48881658635772,8.604040727255153","0","0"
"124","86","text","0","185","2076498","0-0","","","","","","","","","","","","","","","","","","","","","","","","","","","","","","","","","","","","",""
