"rt","key_press","trial_type","trial_index","trial_index_global","time_elapsed","internal_chunk_id","responses","experimental_goal_height","experimental_start_height","experimental_weeks_total","experimental_crop_type","experimental_crop_side","fixed_goal_height","fixed_start_height","fixed_weeks_total","fixed_crop_type","trial_kind","trial_number","stage","left_current_height","left_weeks_remaining","left_crop_type","right_current_height","right_weeks_remaining","right_crop_type","mean_left_growth_given_left","sd_left_growth_given_left","mean_left_growth_given_middle","sd_left_growth_given_middle","mean_left_growth_given_right","sd_left_growth_given_right","mean_right_growth_given_left","sd_right_growth_given_left","mean_right_growth_given_middle","sd_right_growth_given_middle","mean_right_growth_given_right","sd_right_growth_given_right","response","response_time","left_growth","right_growth","other_key_pressed","mouse_clicked"
"1649630","87","text","0","0","1649710","0-0","","","","","","","","","","","","","","","","","","","","","","","","","","","","","","","","","","","","",""
"5531","","survey-text","0","1","1656269","0-0","{""Q0"":""19""}","","","","","","","","","","","","","","","","","","","","","","","","","","","","","","","","","","","",""
"4705","86","text","0","2","4783","0-0","","","","","","","","","","","","","","","","","","","","","","","","","","","","","","","","","","","","",""
"","","plant-game","0","3","59066","0-0","","200","120","8","CORN CROP","Left","200","120","8","THISTLE WEED","practice","1","1,2,3,4,5,6,7,8","120,137.4504804767061,163.78932465248707,178.5541234912295,169.70437391164825,199.10077049146753,210.7530270020659,214.39543488017034","8,7,6,5,4,3,2,1","CORN CROP,CORN CROP,CORN CROP,CORN CROP,CORN CROP,CORN CROP,CORN CROP,CORN CROP","120,141.6043897528517,176.27501805556778,175.55909788865824,172.33551463320447,194.03939686784636,172.1881805563173,189.0373977679481","8,7,6,5,4,3,2,1","THISTLE WEED,THISTLE WEED,THISTLE WEED,THISTLE WEED,THISTLE WEED,THISTLE WEED,THISTLE WEED,THISTLE WEED","20,20,20,20,20,20,20,20","20,20,20,20,20,20,20,20","10,10,10,10,10,10,10,10","20,20,20,20,20,20,20,20","0,0,0,0,0,0,0,0","20,20,20,20,20,20,20,20","20,20,20,20,20,20,20,20","20,20,20,20,20,20,20,20","10,10,10,10,10,10,10,10","20,20,20,20,20,20,20,20","0,0,0,0,0,0,0,0","20,20,20,20,20,20,20,20","0,0,1,1,0,1,0,0","4640,3987,3189,1328,1434,1914,4902,1798","17.450480476706108,26.338844175780963,14.764798838742426,-8.84974957958123,29.396396579819296,11.652256510598376,3.642407878104443,15.542095990621286","21.6043897528517,34.67062830271611,-0.7159201669095306,-3.2235832554537702,21.703882234641895,-21.85121631152906,16.84921721163081,-1.4967975198815076","0","0"
"971","86","text","0","4","60167","0-0","","","","","","","","","","","","","","","","","","","","","","","","","","","","","","","","","","","","",""
"","","plant-game","0","5","88629","0-0","","200","160","4","CORN CROP","Right","200","160","4","NETTLE WEED","practice","2","1,2,3,4","160,149.14775577134748,159.75936879332332,195.10674621282863","4,3,2,1","NETTLE WEED,NETTLE WEED,NETTLE WEED,NETTLE WEED","160,188.83483332680223,180.23306760899564,171.67281378588993","4,3,2,1","CORN CROP,CORN CROP,CORN CROP,CORN CROP","0,0,0,0","20,20,20,20","10,10,10,10","20,20,20,20","20,20,20,20","20,20,20,20","0,0,0,0","20,20,20,20","10,10,10,10","20,20,20,20","20,20,20,20","20,20,20,20","0,0,1,0","3827,1584,1035,864","-10.85224422865252,10.611613021975845,35.34737741950532,-8.270471572726368","28.834833326802215,-8.601765717806579,-8.5602538231057,-13.986893484675363","0","0"
"798","86","text","0","6","89551","0-0","","","","","","","","","","","","","","","","","","","","","","","","","","","","","","","","","","","","",""
"","","plant-game","0","7","109389","0-0","","200","180","2","CORN CROP","Left","200","180","2","NETTLE WEED","practice","3","1,2","180,204.9131548582904","2,1","CORN CROP,CORN CROP","180,188.46978702252844","2,1","NETTLE WEED,NETTLE WEED","20,20","20,20","10,10","20,20","0,0","20,20","20,20","20,20","10,10","20,20","0,0","20,20","0,0","2281,3136","24.9131548582904,53.0681178230611","8.469787022528447,12.21453844272768","0","0"
"623","86","text","0","8","110112","0-0","","","","","","","","","","","","","","","","","","","","","","","","","","","","","","","","","","","","",""
"","","plant-game","0","9","135234","0-0","","200","190","1","WHEAT CROP","Left","200","190","1","THISTLE WEED","practice","4","1","190","1","WHEAT CROP","190","1","THISTLE WEED","20","20","10","20","0","20","20","20","10","20","0","20","0","2511","29.940203008018635","18.760838946919424","0","0"
"584","86","text","0","10","135954","0-0","","","","","","","","","","","","","","","","","","","","","","","","","","","","","","","","","","","","",""
"","","plant-game","0","11","165554","0-0","","200","120","8","WHEAT CROP","Right","200","160","8","NETTLE WEED","practice","5","1,2,3,4,5,6,7,8","160,125.26372800875362,124.64653914796345,143.04521520318806,131.89448411687246,188.02124452273068,196.22550745377197,217.8388099578602","8,7,6,5,4,3,2,1","NETTLE WEED,NETTLE WEED,NETTLE WEED,NETTLE WEED,NETTLE WEED,NETTLE WEED,NETTLE WEED,NETTLE WEED","120,167.8407956046457,165.82658992293926,183.37175299880656,201.96766364353226,210.16711215527008,217.67101256421233,213.56330023463227","8,7,6,5,4,3,2,1","WHEAT CROP,WHEAT CROP,WHEAT CROP,WHEAT CROP,WHEAT CROP,WHEAT CROP,WHEAT CROP,WHEAT CROP","0,0,0,0,0,0,0,0","20,20,20,20,20,20,20,20","10,10,10,10,10,10,10,10","20,20,20,20,20,20,20,20","20,20,20,20,20,20,20,20","20,20,20,20,20,20,20,20","0,0,0,0,0,0,0,0","20,20,20,20,20,20,20,20","10,10,10,10,10,10,10,10","20,20,20,20,20,20,20,20","20,20,20,20,20,20,20,20","20,20,20,20,20,20,20,20","1,0,1,0,1,0,1,1","1091,2849,971,982,1875,1977,1648,5353","-34.73627199124638,-0.6171888607901657,18.398676055224602,-11.15073108631561,56.12676040585821,8.204262931041272,21.613302504088246,22.61625152920294","47.840795604645706,-2.0142056817064535,17.545163075867304,18.595910644725702,8.199448511737806,7.503900408942244,-4.107712329580075,36.41755018137927","0","0"
"783","86","text","0","12","166427","0-0","","","","","","","","","","","","","","","","","","","","","","","","","","","","","","","","","","","","",""
"","","plant-game","0","13","184737","0-0","","200","180","4","CORN CROP","Right","200","160","4","THISTLE WEED","practice","6","1,2,3,4","160,125.33488159281069,151.59160194245047,125.59876402725915","4,3,2,1","THISTLE WEED,THISTLE WEED,THISTLE WEED,THISTLE WEED","180,169.15831119943516,187.30607947371612,155.6904875155059","4,3,2,1","CORN CROP,CORN CROP,CORN CROP,CORN CROP","0,0,0,0","20,20,20,20","10,10,10,10","20,20,20,20","20,20,20,20","20,20,20,20","0,0,0,0","20,20,20,20","10,10,10,10","20,20,20,20","20,20,20,20","20,20,20,20","0,0,0,1","6089,1270,1889,988","-34.665118407189304,26.256720349639778,-25.992837915191313,25.415987186687246","-10.841688800564832,18.147768274280956,-31.61559195821022,16.56941506153329","1","0"
"693","86","text","0","14","185555","0-0","","","","","","","","","","","","","","","","","","","","","","","","","","","","","","","","","","","","",""
"","","plant-game","0","15","197192","0-0","","200","180","2","CORN CROP","Right","200","190","2","THISTLE WEED","practice","7","1,2","190,181.55540594029216","2,1","THISTLE WEED,THISTLE WEED","180,168.1676887581993","2,1","CORN CROP,CORN CROP","0,0","20,20","10,10","20,20","20,20","20,20","0,0","20,20","10,10","20,20","20,20","20,20","0,0","451,2255","-8.444594059707846,-30.31824252756698","-11.8323112418007,-5.199525383731464","1","0"
"686","86","text","0","16","197987","0-0","","","","","","","","","","","","","","","","","","","","","","","","","","","","","","","","","","","","",""
"","","plant-game","0","17","239075","0-0","","200","120","4","WHEAT CROP","Right","200","120","8","THISTLE WEED","practice","8","1,2,3,4,5,6,7,8","120,138.80216716242322,155.4366109489696,177.51980796998208,194.38375886551222,188.38476863572282,170.02381307102038,202.42998122531782","8,7,6,5,4,3,2,1","THISTLE WEED,THISTLE WEED,THISTLE WEED,THISTLE WEED,THISTLE WEED,THISTLE WEED,THISTLE WEED,THISTLE WEED","120,120.53294750273625,148.21373806691145,143.56434319690098,160,179.94034027923135,169.6697940662074,181.7630576116394","4,3,2,1,4,3,2,1","WHEAT CROP,WHEAT CROP,WHEAT CROP,WHEAT CROP,CORN CROP,CORN CROP,CORN CROP,CORN CROP","0,0,0,0,0,0,0,0","20,20,20,20,20,20,20,20","10,10,10,10,10,10,10,10","20,20,20,20,20,20,20,20","20,20,20,20,20,20,20,20","20,20,20,20,20,20,20,20","0,0,0,0,0,0,0,0","20,20,20,20,20,20,20,20","10,10,10,10,10,10,10,10","20,20,20,20,20,20,20,20","20,20,20,20,20,20,20,20","20,20,20,20,20,20,20,20","1,0,0,1,0,0,1,1","395,1471,792,1038,9501,1878,2978,3798","18.802167162423224,16.634443786546363,22.083197021012495,16.863950895530138,-5.9989902297894115,-18.360955564702447,32.40616815429742,7.567632054896629","0.5329475027362456,27.680790564175204,-4.649394870010461,2.7710676889140693,19.940340279231357,-10.270546213023941,12.093263545431991,37.37079249135919","0","0"
"623","86","text","0","18","239832","0-0","","","","","","","","","","","","","","","","","","","","","","","","","","","","","","","","","","","","",""
"","","plant-game","0","19","277975","0-0","","200","160","4","CORN CROP","Left","200","160","2","THISTLE WEED","practice","9","1,2,3,4","160,178.91272476521607,209.50166074087082,226.8520358095576","4,3,2,1","CORN CROP,CORN CROP,CORN CROP,CORN CROP","160,147.3019200417853,180,168.0773970367626","2,1,2,1","THISTLE WEED,THISTLE WEED,NETTLE WEED,NETTLE WEED","20,20,20,20","20,20,20,20","10,10,10,10","20,20,20,20","0,0,0,0","20,20,20,20","20,20,20,20","20,20,20,20","10,10,10,10","20,20,20,20","0,0,0,0","20,20,20,20","0,0,1,1","944,1167,7277,1694","18.91272476521607,30.588935975654735,17.350375068686784,11.777860699788796","-12.698079958214706,33.38139558488923,-11.9226029632374,-11.287276589260077","0","0"
"673","86","text","0","20","278788","0-0","","","","","","","","","","","","","","","","","","","","","","","","","","","","","","","","","","","","",""
"","","plant-game","0","21","312650","0-0","","200","180","2","WHEAT CROP","Left","200","180","1","NETTLE WEED","practice","10","1,2","180,164.1814651825219","2,1","WHEAT CROP,WHEAT CROP","180,190","1,1","NETTLE WEED,THISTLE WEED","20,20","20,20","10,10","20,20","0,0","20,20","20,20","20,20","10,10","20,20","0,0","20,20","1,0","1007,3897","-15.818534817478113,10.645279996385597","11.748650335647103,-24.02888173690223","0","0"
"882","86","text","0","22","313657","0-0","","","","","","","","","","","","","","","","","","","","","","","","","","","","","","","","","","","","",""
"","","plant-game","0","23","345023","0-0","","200","120","8","CORN CROP","Right","200","160","4","THISTLE WEED","practice","11","1,2,3,4,5,6,7,8","160,166.1773120084731,162.58700111762957,190.62761696222714,160,160.33306510003675,134.08549925811832,130.0996221330462","4,3,2,1,4,3,2,1","THISTLE WEED,THISTLE WEED,THISTLE WEED,THISTLE WEED,NETTLE WEED,NETTLE WEED,NETTLE WEED,NETTLE WEED","120,101.38444645516509,163.01203292862107,160.33658388824986,168.82162649694052,172.44124875928384,165.33241972486576,142.53962779307295","8,7,6,5,4,3,2,1","CORN CROP,CORN CROP,CORN CROP,CORN CROP,CORN CROP,CORN CROP,CORN CROP,CORN CROP","0,0,0,0,0,0,0,0","20,20,20,20,20,20,20,20","10,10,10,10,10,10,10,10","20,20,20,20,20,20,20,20","20,20,20,20,20,20,20,20","20,20,20,20,20,20,20,20","0,0,0,0,0,0,0,0","20,20,20,20,20,20,20,20","10,10,10,10,10,10,10,10","20,20,20,20,20,20,20,20","20,20,20,20,20,20,20,20","20,20,20,20,20,20,20,20","0,1,1,0,0,0,0,0","786,1527,719,641,2127,1013,731,915","6.177312008473103,-3.5903108908435435,28.040615844597568,-21.893965086213782,0.3330651000367499,-26.247565841918433,-3.9858771250721214,8.365398773946707","-18.615553544834903,61.62758647345598,-2.675449040371216,8.48504260869065,3.6196222623433134,-7.108829034418086,-22.79279193179281,5.001732979180517","0","0"
"531","86","text","0","24","345694","0-0","","","","","","","","","","","","","","","","","","","","","","","","","","","","","","","","","","","","",""
"","","plant-game","0","25","375321","0-0","","200","180","2","CORN CROP","Right","200","160","4","NETTLE WEED","practice","12","1,2,3,4","160,192.5081519944104,198.18712910741516,187.8585695180952","4,3,2,1","NETTLE WEED,NETTLE WEED,NETTLE WEED,NETTLE WEED","180,217.3155306541701,180,162.78752984880916","2,1,2,1","CORN CROP,CORN CROP,WHEAT CROP,WHEAT CROP","0,0,0,0","20,20,20,20","10,10,10,10","20,20,20,20","20,20,20,20","20,20,20,20","0,0,0,0","20,20,20,20","10,10,10,10","20,20,20,20","20,20,20,20","20,20,20,20","1,0,0,1","386,3102,1909,1934","32.508151994410426,5.6789771130047555,-10.328559589319958,20.823809327760742","37.31553065417009,24.391163963100766,-17.212470151190836,39.539050309368676","0","0"
"533","86","text","0","26","376044","0-0","","","","","","","","","","","","","","","","","","","","","","","","","","","","","","","","","","","","",""
"537","86","text","0","27","377708","0-0","","","","","","","","","","","","","","","","","","","","","","","","","","","","","","","","","","","","",""
"","","plant-game","0","28","392248","0-0","","200","190","2","WHEAT CROP","Left","200","120","2","NETTLE WEED","experimental","1","1,2","190,208.78362784649295","2,1","WHEAT CROP,WHEAT CROP","120,114.26925998638558","2,1","NETTLE WEED,NETTLE WEED","20,20","20,20","10,10","20,20","0,0","20,20","20,20","20,20","10,10","20,20","0,0","20,20","0,0","8518,1031","18.783627846492955,-6.237456491653916","-5.730740013614426,40.401412909402154","0","0"
"781","86","text","0","29","393179","0-0","","","","","","","","","","","","","","","","","","","","","","","","","","","","","","","","","","","","",""
"","","plant-game","0","30","425208","0-0","","200","120","8","CORN CROP","Right","200","120","1","THISTLE WEED","experimental","2","1,2,3,4,5,6,7,8","120,130,139.6296488479677,182.4757388336194,159.21891456524554,168.50383644732716,190.57906231300467,178.31396335899686","1,7,6,5,4,3,2,1","THISTLE WEED,NETTLE WEED,NETTLE WEED,NETTLE WEED,NETTLE WEED,NETTLE WEED,NETTLE WEED,NETTLE WEED","120,133.90116350359486,179.00425407273906,186.39861985871624,179.20100930498327,214.55017986344075,266.43716330444477,249.87933104086994","8,7,6,5,4,3,2,1","CORN CROP,CORN CROP,CORN CROP,CORN CROP,CORN CROP,CORN CROP,CORN CROP,CORN CROP","0,0,0,0,0,0,0,0","20,20,20,20,20,20,20,20","10,10,10,10,10,10,10,10","20,20,20,20,20,20,20,20","20,20,20,20,20,20,20,20","20,20,20,20,20,20,20,20","0,0,0,0,0,0,0,0","20,20,20,20,20,20,20,20","10,10,10,10,10,10,10,10","20,20,20,20,20,20,20,20","20,20,20,20,20,20,20,20","20,20,20,20,20,20,20,20","0,1,1,0,1,0,0,0","7284,3552,860,2314,559,2789,2904,1213","-1.251982052449999,9.629648847967715,42.8460899856517,-23.256824268373848,9.284921882081614,22.075225865677503,-12.26509895400781,-20.794958635381033","13.901163503594866,45.10309056914419,7.3943657859772,-7.197610553732968,35.34917055845749,51.886983441004034,-16.557832263574838,1.0995580863533","1","0"
"560","86","text","0","31","425898","0-0","","","","","","","","","","","","","","","","","","","","","","","","","","","","","","","","","","","","",""
"","","plant-game","0","32","450876","0-0","","200","190","8","CORN CROP","Left","200","190","1","THISTLE WEED","experimental","3","1,2,3,4,5,6,7,8","190,198.1889738171073,192.4938523349389,226.8809208886326,211.65577161013698,213.87958709842815,241.78996468971727,239.84801649383397","8,7,6,5,4,3,2,1","CORN CROP,CORN CROP,CORN CROP,CORN CROP,CORN CROP,CORN CROP,CORN CROP,CORN CROP","190,130,123.0009649843946,134.88810805778417,121.08815731408103,112.60121119151523,120.95363383382913,98.92625657400502","1,7,6,5,4,3,2,1","THISTLE WEED,NETTLE WEED,NETTLE WEED,NETTLE WEED,NETTLE WEED,NETTLE WEED,NETTLE WEED,NETTLE WEED","20,20,20,20,20,20,20,20","20,20,20,20,20,20,20,20","10,10,10,10,10,10,10,10","20,20,20,20,20,20,20,20","0,0,0,0,0,0,0,0","20,20,20,20,20,20,20,20","20,20,20,20,20,20,20,20","20,20,20,20,20,20,20,20","10,10,10,10,10,10,10,10","20,20,20,20,20,20,20,20","0,0,0,0,0,0,0,0","20,20,20,20,20,20,20,20","1,1,0,1,0,0,1,0","4932,4549,607,2365,680,1298,750,816","8.188973817107307,-5.695121482168376,34.38706855369368,-15.225149278495625,2.2238154882911587,27.910377591289116,-1.941948195883285,7.566947859469341","-5.651617941718577,-6.999035015605401,11.887143073389563,-13.799950743703137,-8.486946122565794,8.3524226423139,-22.027377259824107,15.523678603444774","0","0"
"984","86","text","0","33","452020","0-0","","","","","","","","","","","","","","","","","","","","","","","","","","","","","","","","","","","","",""
"","","plant-game","0","34","479275","0-0","","200","160","4","CORN CROP","Left","200","160","8","THISTLE WEED","experimental","4","1,2,3,4,5,6,7,8","160,129.94968436643978,166.09071301970312,167.38173846263115,160,185.3650039412214,175.61963916839773,182.62543252087917","4,3,2,1,4,3,2,1","CORN CROP,CORN CROP,CORN CROP,CORN CROP,WHEAT CROP,WHEAT CROP,WHEAT CROP,WHEAT CROP","160,159.20918575953073,164.69915976125966,167.09265448687958,189.07512360401307,172.62164046906935,195.40371272838902,240.48337474634684","8,7,6,5,4,3,2,1","THISTLE WEED,THISTLE WEED,THISTLE WEED,THISTLE WEED,THISTLE WEED,THISTLE WEED,THISTLE WEED,THISTLE WEED","20,20,20,20,20,20,20,20","20,20,20,20,20,20,20,20","10,10,10,10,10,10,10,10","20,20,20,20,20,20,20,20","0,0,0,0,0,0,0,0","20,20,20,20,20,20,20,20","20,20,20,20,20,20,20,20","20,20,20,20,20,20,20,20","10,10,10,10,10,10,10,10","20,20,20,20,20,20,20,20","0,0,0,0,0,0,0,0","20,20,20,20,20,20,20,20","1,0,1,0,1,1,1,0","7592,663,2405,1087,4911,797,544,1557","-30.050315633560206,36.14102865326332,1.2910254429280186,-14.029890061002263,25.3650039412214,-9.745364772823692,7.005793352481454,9.833666183830783","-0.790814240469262,5.48997400172895,2.3934947256199255,21.982469117133476,-16.45348313494372,22.782072259319687,45.07966201795781,-27.712837654798733","0","0"
"553","86","text","0","35","479959","0-0","","","","","","","","","","","","","","","","","","","","","","","","","","","","","","","","","","","","",""
"","","plant-game","0","36","494952","0-0","","200","190","4","CORN CROP","Left","200","160","4","NETTLE WEED","experimental","5","1,2,3,4","190,178.09000905763327,176.64980913294272,199.43715301492188","4,3,2,1","CORN CROP,CORN CROP,CORN CROP,CORN CROP","160,191.3464522719744,207.60817628889617,214.10340310070353","4,3,2,1","NETTLE WEED,NETTLE WEED,NETTLE WEED,NETTLE WEED","20,20,20,20","20,20,20,20","10,10,10,10","20,20,20,20","0,0,0,0","20,20,20,20","20,20,20,20","20,20,20,20","10,10,10,10","20,20,20,20","0,0,0,0","20,20,20,20","0,1,0,0","7043,1143,2107,374","-11.909990942366719,-1.4401999246905441,22.787343881979155,6.8934710976246265","31.346452271974407,16.261724016921768,6.495226811807353,25.60725465814354","0","0"
"547","86","text","0","37","495644","0-0","","","","","","","","","","","","","","","","","","","","","","","","","","","","","","","","","","","","",""
"","","plant-game","0","38","508924","0-0","","200","180","1","CORN CROP","Left","200","180","2","THISTLE WEED","experimental","6","1,2","180,190","1,1","CORN CROP,WHEAT CROP","180,203.4638794529222","2,1","THISTLE WEED,THISTLE WEED","20,20","20,20","10,10","20,20","0,0","20,20","20,20","20,20","10,10","20,20","0,0","20,20","0,0","5334,2492","5.868803108789235,11.662375201051528","23.463879452922214,6.096724140443095","0","0"
"479","86","text","0","39","509543","0-0","","","","","","","","","","","","","","","","","","","","","","","","","","","","","","","","","","","","",""
"","","plant-game","0","40","530435","0-0","","200","120","4","WHEAT CROP","Left","200","120","8","NETTLE WEED","experimental","7","1,2,3,4,5,6,7,8","120,99.25929398470674,127.93014946434775,150.71895995303865,160,176.50842479264284,157.8138955430622,167.1748934567804","4,3,2,1,4,3,2,1","WHEAT CROP,WHEAT CROP,WHEAT CROP,WHEAT CROP,CORN CROP,CORN CROP,CORN CROP,CORN CROP","120,124.7162156028757,130.0057468251456,132.7109269422133,140.09868763855494,166.3835660709068,160.28818894928278,182.24788679244998","8,7,6,5,4,3,2,1","NETTLE WEED,NETTLE WEED,NETTLE WEED,NETTLE WEED,NETTLE WEED,NETTLE WEED,NETTLE WEED,NETTLE WEED","20,20,20,20,20,20,20,20","20,20,20,20,20,20,20,20","10,10,10,10,10,10,10,10","20,20,20,20,20,20,20,20","0,0,0,0,0,0,0,0","20,20,20,20,20,20,20,20","20,20,20,20,20,20,20,20","20,20,20,20,20,20,20,20","10,10,10,10,10,10,10,10","20,20,20,20,20,20,20,20","0,0,0,0,0,0,0,0","20,20,20,20,20,20,20,20","1,0,0,0,0,1,0,1","5973,859,662,612,2687,841,588,614","-20.740706015293256,28.670855479641002,22.78881048869089,55.79305080444283,16.50842479264285,-18.69452924958067,9.360997913718236,-14.298845222623429","4.716215602875712,5.28953122226989,2.7051801170676875,7.387760696341656,26.284878432351874,-6.095377121624011,21.9596978431672,26.086197305817027","0","0"
"576","86","text","0","41","531101","0-0","","","","","","","","","","","","","","","","","","","","","","","","","","","","","","","","","","","","",""
"","","plant-game","0","42","552445","0-0","","200","160","8","WHEAT CROP","Left","200","160","2","NETTLE WEED","experimental","8","1,2,3,4,5,6,7,8","160,147.50066782608937,151.76550621976034,181.60969889046942,168.95558069480003,162.40497483105568,183.7378972473636,201.15018073695455","8,7,6,5,4,3,2,1","WHEAT CROP,WHEAT CROP,WHEAT CROP,WHEAT CROP,WHEAT CROP,WHEAT CROP,WHEAT CROP,WHEAT CROP","160,200.1691822700586,140,147.6265185418201,142.93873252814095,109.71811768321412,143.70388548722792,174.76781883217222","2,1,6,5,4,3,2,1","NETTLE WEED,NETTLE WEED,THISTLE WEED,THISTLE WEED,THISTLE WEED,THISTLE WEED,THISTLE WEED,THISTLE WEED","20,20,20,20,20,20,20,20","20,20,20,20,20,20,20,20","10,10,10,10,10,10,10,10","20,20,20,20,20,20,20,20","0,0,0,0,0,0,0,0","20,20,20,20,20,20,20,20","20,20,20,20,20,20,20,20","20,20,20,20,20,20,20,20","10,10,10,10,10,10,10,10","20,20,20,20,20,20,20,20","0,0,0,0,0,0,0,0","20,20,20,20,20,20,20,20","0,0,1,1,0,0,0,0","3268,1906,1494,2643,918,671,694,1887","-12.499332173910638,4.2648383936709635,29.844192670709084,-12.654118195669373,-6.550605863744352,21.332922416307937,17.41228348959094,39.611843863789744","40.169182270058606,24.223255447361737,7.626518541820097,-4.687786013679171,-33.22061484492683,33.98576780401382,31.06393334494431,3.779963493259956","0","0"
"675","86","text","0","43","553240","0-0","","","","","","","","","","","","","","","","","","","","","","","","","","","","","","","","","","","","",""
"","","plant-game","0","44","563247","0-0","","200","180","4","CORN CROP","Left","200","120","4","THISTLE WEED","experimental","9","1,2,3,4","180,193.6173479941147,212.919612306156,226.2875452992037","4,3,2,1","CORN CROP,CORN CROP,CORN CROP,CORN CROP","120,166.0552048800115,204.80296207710532,204.31594238496834","4,3,2,1","THISTLE WEED,THISTLE WEED,THISTLE WEED,THISTLE WEED","20,20,20,20","20,20,20,20","10,10,10,10","20,20,20,20","0,0,0,0","20,20,20,20","20,20,20,20","20,20,20,20","10,10,10,10","20,20,20,20","0,0,0,0","20,20,20,20","0,0,1,1","1831,388,2553,731","13.617347994114716,19.302264312041316,13.367932993047713,-17.44901797162976","46.0552048800115,38.74775719709382,-0.487019692136991,51.85566617880184","0","0"
"631","86","text","0","45","563988","0-0","","","","","","","","","","","","","","","","","","","","","","","","","","","","","","","","","","","","",""
"","","plant-game","0","46","574317","0-0","","200","180","2","CORN CROP","Right","200","190","2","THISTLE WEED","experimental","10","1,2","190,189.44642318683736","2,1","THISTLE WEED,THISTLE WEED","180,188.54318531767964","2,1","CORN CROP,CORN CROP","0,0","20,20","10,10","20,20","20,20","20,20","0,0","20,20","10,10","20,20","20,20","20,20","0,0","2455,3714","-0.5535768131626396,-28.049261167648133","8.543185317679631,-44.90105306660248","0","0"
"837","86","text","0","47","575279","0-0","","","","","","","","","","","","","","","","","","","","","","","","","","","","","","","","","","","","",""
"","","plant-game","0","48","602630","0-0","","200","160","8","CORN CROP","Left","200","190","4","NETTLE WEED","experimental","11","1,2,3,4,5,6,7,8","160,181.2590414116449,197.89155780036307,221.5192991811981,195.25492651912487,210.35299203092254,235.31743323801592,239.84660077967155","8,7,6,5,4,3,2,1","CORN CROP,CORN CROP,CORN CROP,CORN CROP,CORN CROP,CORN CROP,CORN CROP,CORN CROP","190,179.02563870640924,195.9063190791402,220.24842451329602,160,189.9347103294354,218.479426746457,210.53681153487858","4,3,2,1,4,3,2,1","NETTLE WEED,NETTLE WEED,NETTLE WEED,NETTLE WEED,THISTLE WEED,THISTLE WEED,THISTLE WEED,THISTLE WEED","20,20,20,20,20,20,20,20","20,20,20,20,20,20,20,20","10,10,10,10,10,10,10,10","20,20,20,20,20,20,20,20","0,0,0,0,0,0,0,0","20,20,20,20,20,20,20,20","20,20,20,20,20,20,20,20","20,20,20,20,20,20,20,20","10,10,10,10,10,10,10,10","20,20,20,20,20,20,20,20","0,0,0,0,0,0,0,0","20,20,20,20,20,20,20,20","1,0,1,1,0,0,1,1","2703,1810,790,3998,2176,2909,3228,411","21.259041411644873,16.632516388718184,23.62774138083504,-26.264372662073235,15.098065511797675,24.964441207093383,4.529167541655631,10.608744930236808","-10.974361293590748,16.880680372730964,24.34210543415584,-21.846584713417514,29.9347103294354,28.544716417021597,-7.942615211578402,-21.1804492838807","0","0"
"610","86","text","0","49","603430","0-0","","","","","","","","","","","","","","","","","","","","","","","","","","","","","","","","","","","","",""
"","","plant-game","0","50","619799","0-0","","200","120","2","CORN CROP","Right","200","180","1","NETTLE WEED","experimental","12","1,2","180,190","1,1","NETTLE WEED,THISTLE WEED","120,117.76678402074839","2,1","CORN CROP,CORN CROP","0,0","20,20","10,10","20,20","20,20","20,20","0,0","20,20","10,10","20,20","20,20","20,20","1,0","4895,3315","11.436104543215272,21.674652736048582","-2.2332159792516038,16.56891466779841","0","0"
"810","86","text","0","51","620795","0-0","","","","","","","","","","","","","","","","","","","","","","","","","","","","","","","","","","","","",""
"","","plant-game","0","52","644417","0-0","","200","120","8","CORN CROP","Left","200","190","2","NETTLE WEED","experimental","13","1,2,3,4,5,6,7,8","120,84.21965186890995,46.443786870180155,83.90801839815245,75.85462282003773,71.57922103625648,146.19057480686126,107.78358015751203","8,7,6,5,4,3,2,1","CORN CROP,CORN CROP,CORN CROP,CORN CROP,CORN CROP,CORN CROP,CORN CROP,CORN CROP","190,177.13840683986814,140,169.82389416373974,210.06918255701018,179.40634506485586,220.60670189831694,246.56718092884256","2,1,6,5,4,3,2,1","NETTLE WEED,NETTLE WEED,THISTLE WEED,THISTLE WEED,THISTLE WEED,THISTLE WEED,THISTLE WEED,THISTLE WEED","20,20,20,20,20,20,20,20","20,20,20,20,20,20,20,20","10,10,10,10,10,10,10,10","20,20,20,20,20,20,20,20","0,0,0,0,0,0,0,0","20,20,20,20,20,20,20,20","20,20,20,20,20,20,20,20","20,20,20,20,20,20,20,20","10,10,10,10,10,10,10,10","20,20,20,20,20,20,20,20","0,0,0,0,0,0,0,0","20,20,20,20,20,20,20,20","1,1,0,1,0,0,1,0","3943,1881,963,3111,3732,381,959,447","-35.780348131090044,-37.775864998729794,37.46423152797229,-8.053395578114719,-4.275401783781248,74.6113537706048,-38.40699464934922,-2.4204820933865747","-12.861593160131875,-12.622491387869648,29.823894163739737,40.245288393270435,-30.662837492154324,41.2003568334611,25.960479030525626,36.14586116636069","0","0"
"627","86","text","0","53","645294","0-0","","","","","","","","","","","","","","","","","","","","","","","","","","","","","","","","","","","","",""
"","","plant-game","0","54","665314","0-0","","200","190","4","WHEAT CROP","Left","200","120","8","NETTLE WEED","experimental","14","1,2,3,4,5,6,7,8","190,236.14996927223402,262.2011949571635,301.17486205090495,160,192.59901020604872,175.36440128806257,138.51950990019603","4,3,2,1,4,3,2,1","WHEAT CROP,WHEAT CROP,WHEAT CROP,WHEAT CROP,CORN CROP,CORN CROP,CORN CROP,CORN CROP","120,124.42850118902341,124.76524450526537,142.40753200380527,146.780884296982,189.21554491909868,196.1839747175103,194.44179642528437","8,7,6,5,4,3,2,1","NETTLE WEED,NETTLE WEED,NETTLE WEED,NETTLE WEED,NETTLE WEED,NETTLE WEED,NETTLE WEED,NETTLE WEED","20,20,20,20,20,20,20,20","20,20,20,20,20,20,20,20","10,10,10,10,10,10,10,10","20,20,20,20,20,20,20,20","0,0,0,0,0,0,0,0","20,20,20,20,20,20,20,20","20,20,20,20,20,20,20,20","20,20,20,20,20,20,20,20","10,10,10,10,10,10,10,10","20,20,20,20,20,20,20,20","0,0,0,0,0,0,0,0","20,20,20,20,20,20,20,20","0,0,0,0,0,1,1,1","1975,2065,716,788,3052,839,1298,923","46.14996927223402,26.05122568492952,38.9736670937414,46.21443565060386,32.5990102060487,-17.23460891798616,-36.84489138786654,16.427915082377925","4.428501189023404,0.33674331624196796,17.642287498539908,4.3733522931767315,42.43466062211667,6.968429798411606,-1.7421782922259335,27.340082173247566","0","0"
"584","86","text","0","55","666088","0-0","","","","","","","","","","","","","","","","","","","","","","","","","","","","","","","","","","","","",""
"","","plant-game","0","56","684072","0-0","","200","120","2","WHEAT CROP","Left","200","180","8","NETTLE WEED","experimental","15","1,2,3,4,5,6,7,8","120,128.18722906083892,140,164.33647958527897,215.9169940396313,247.1245296492356,269.77640988707424,269.3558597341869","2,1,6,5,4,3,2,1","WHEAT CROP,WHEAT CROP,CORN CROP,CORN CROP,CORN CROP,CORN CROP,CORN CROP,CORN CROP","180,203.80158085273158,192.43451799817828,202.84341017818835,213.254145431067,240.52272573992573,247.29285027852904,263.686049587365","8,7,6,5,4,3,2,1","NETTLE WEED,NETTLE WEED,NETTLE WEED,NETTLE WEED,NETTLE WEED,NETTLE WEED,NETTLE WEED,NETTLE WEED","20,20,20,20,20,20,20,20","20,20,20,20,20,20,20,20","10,10,10,10,10,10,10,10","20,20,20,20,20,20,20,20","0,0,0,0,0,0,0,0","20,20,20,20,20,20,20,20","20,20,20,20,20,20,20,20","20,20,20,20,20,20,20,20","10,10,10,10,10,10,10,10","20,20,20,20,20,20,20,20","0,0,0,0,0,0,0,0","20,20,20,20,20,20,20,20","1,1,0,0,0,1,1,1","3154,1484,1261,1199,444,487,288,152","8.187229060838904,14.035360828460163,24.336479585278976,51.58051445435234,31.207535609604285,22.65188023783866,-0.4205501528873523,-17.274368506701045","23.801580852731572,-11.367062854553309,10.408892180010074,10.410735252878661,27.268580308858724,6.7701245386033175,16.39319930883594,14.071871280028232","0","0"
"670","86","text","0","57","684922","0-0","","","","","","","","","","","","","","","","","","","","","","","","","","","","","","","","","","","","",""
"","","plant-game","0","58","705358","0-0","","200","190","8","CORN CROP","Right","200","120","1","NETTLE WEED","experimental","16","1,2,3,4,5,6,7,8","120,130,108.49400664095995,141.42338152623992,132.03044156278185,95.09328368367827,58.2221569776727,58.57750924735698","1,7,6,5,4,3,2,1","NETTLE WEED,THISTLE WEED,THISTLE WEED,THISTLE WEED,THISTLE WEED,THISTLE WEED,THISTLE WEED,THISTLE WEED","190,181.8894692923258,199.68305045756753,216.9065164476727,217.45874662613394,226.97663802926056,220.8244935914492,234.25673616357415","8,7,6,5,4,3,2,1","CORN CROP,CORN CROP,CORN CROP,CORN CROP,CORN CROP,CORN CROP,CORN CROP,CORN CROP","0,0,0,0,0,0,0,0","20,20,20,20,20,20,20,20","10,10,10,10,10,10,10,10","20,20,20,20,20,20,20,20","20,20,20,20,20,20,20,20","20,20,20,20,20,20,20,20","0,0,0,0,0,0,0,0","20,20,20,20,20,20,20,20","10,10,10,10,10,10,10,10","20,20,20,20,20,20,20,20","20,20,20,20,20,20,20,20","20,20,20,20,20,20,20,20","0,0,0,0,0,0,0,0","3258,2498,1288,1019,680,540,966,668","-1.1078226175480925,-21.50599335904004,32.92937488527997,-9.39293996345809,-36.93715787910357,-36.87112670600557,0.35535226968428535,5.957692430673608","-8.110530707674203,17.79358116524174,17.22346599010515,0.5522301784612522,9.517891403126605,-6.15214443781135,13.432242572124942,-5.851349251604791","0","0"
"7214","86","text","0","59","712792","0-0","","","","","","","","","","","","","","","","","","","","","","","","","","","","","","","","","","","","",""
"","","plant-game","0","60","722058","0-0","","200","190","1","CORN CROP","Left","200","180","1","NETTLE WEED","experimental","17","1","190","1","CORN CROP","180","1","NETTLE WEED","20","20","10","20","0","20","20","20","10","20","0","20","0","5545","40.58397787360406","9.829306056761652","0","0"
"530","86","text","0","61","722817","0-0","","","","","","","","","","","","","","","","","","","","","","","","","","","","","","","","","","","","",""
"","","plant-game","0","62","732798","0-0","","200","180","1","CORN CROP","Left","200","120","2","NETTLE WEED","experimental","18","1,2","180,190","1,1","CORN CROP,WHEAT CROP","120,169.0780090621063","2,1","NETTLE WEED,NETTLE WEED","20,20","20,20","10,10","20,20","0,0","20,20","20,20","20,20","10,10","20,20","0,0","20,20","0,0","2140,2622","22.149979073983666,47.650750273548155","49.078009062106304,50.76846991585893","0","0"
"597","86","text","0","63","733596","0-0","","","","","","","","","","","","","","","","","","","","","","","","","","","","","","","","","","","","",""
"","","plant-game","0","64","741409","0-0","","200","120","1","CORN CROP","Left","200","160","1","NETTLE WEED","experimental","19","1","120","1","CORN CROP","160","1","NETTLE WEED","20","20","10","20","0","20","20","20","10","20","0","20","0","4076","17.03269027192784","16.633768318934905","0","0"
"820","86","text","0","65","742459","0-0","","","","","","","","","","","","","","","","","","","","","","","","","","","","","","","","","","","","",""
"","","plant-game","0","66","752561","0-0","","200","120","1","WHEAT CROP","Left","200","190","2","NETTLE WEED","experimental","20","1,2","120,190","1,1","WHEAT CROP,CORN CROP","190,247.64919090772332","2,1","NETTLE WEED,NETTLE WEED","20,20","20,20","10,10","20,20","0,0","20,20","20,20","20,20","10,10","20,20","0,0","20,20","1,0","1966,1716","-8.229908740657677,80.14666144134205","57.64919090772334,41.230587194720684","0","0"
"558","86","text","0","67","753318","0-0","","","","","","","","","","","","","","","","","","","","","","","","","","","","","","","","","","","","",""
"","","plant-game","0","68","781047","0-0","","200","190","2","CORN CROP","Left","200","180","4","THISTLE WEED","experimental","21","1,2,3,4","190,211.73901837413084,180,181.41893735036086","2,1,2,1","CORN CROP,CORN CROP,WHEAT CROP,WHEAT CROP","180,205.3212326849845,202.44261247362527,249.33707509270482","4,3,2,1","THISTLE WEED,THISTLE WEED,THISTLE WEED,THISTLE WEED","20,20,20,20","20,20,20,20","10,10,10,10","20,20,20,20","0,0,0,0","20,20,20,20","20,20,20,20","20,20,20,20","10,10,10,10","20,20,20,20","0,0,0,0","20,20,20,20","0,1,0,0","14254,893,4266,662","21.739018374130826,-33.042913685474886,1.4189373503608493,23.450736606633413","25.32123268498449,-2.8786202113592205,46.89446261907953,-12.368935522949378","0","0"
"575","86","text","0","69","781849","0-0","","","","","","","","","","","","","","","","","","","","","","","","","","","","","","","","","","","","",""
"","","plant-game","0","70","794478","0-0","","200","120","8","WHEAT CROP","Left","200","180","1","THISTLE WEED","experimental","22","1,2,3,4,5,6,7,8","120,118.8858802894111,144.36106003659222,171.36040640196597,184.25962228387266,156.00122745416388,132.92632778743447,144.24872375800064","8,7,6,5,4,3,2,1","WHEAT CROP,WHEAT CROP,WHEAT CROP,WHEAT CROP,WHEAT CROP,WHEAT CROP,WHEAT CROP,WHEAT CROP","180,130,152.07811921979197,166.75868151753923,212.64322374637396,213.8866344180418,272.3883628608786,277.6688881274115","1,7,6,5,4,3,2,1","THISTLE WEED,NETTLE WEED,NETTLE WEED,NETTLE WEED,NETTLE WEED,NETTLE WEED,NETTLE WEED,NETTLE WEED","20,20,20,20,20,20,20,20","20,20,20,20,20,20,20,20","10,10,10,10,10,10,10,10","20,20,20,20,20,20,20,20","0,0,0,0,0,0,0,0","20,20,20,20,20,20,20,20","20,20,20,20,20,20,20,20","20,20,20,20,20,20,20,20","10,10,10,10,10,10,10,10","20,20,20,20,20,20,20,20","0,0,0,0,0,0,0,0","20,20,20,20,20,20,20,20","0,0,0,0,1,1,1,0","1318,975,404,370,1488,397,569,199","-1.1141197105888914,25.4751797471811,26.999346365373746,12.899215881906695,-28.258394829708777,-23.074899666729397,11.322395970566156,37.26092085732647","25.056313409723366,22.07811921979198,14.680562297747262,45.884542228834746,1.2434106716678355,58.5017284428368,5.280525266532862,34.22056558653273","0","0"
"770","86","text","0","71","795428","0-0","","","","","","","","","","","","","","","","","","","","","","","","","","","","","","","","","","","","",""
"","","plant-game","0","72","815390","0-0","","200","190","4","CORN CROP","Right","200","180","2","NETTLE WEED","experimental","23","1,2,3,4","180,194.01535550502857,180,217.26118759754405","2,1,2,1","NETTLE WEED,NETTLE WEED,THISTLE WEED,THISTLE WEED","190,226.576594506891,198.7334500410309,246.2769632644383","4,3,2,1","CORN CROP,CORN CROP,CORN CROP,CORN CROP","0,0,0,0","20,20,20,20","10,10,10,10","20,20,20,20","20,20,20,20","20,20,20,20","0,0,0,0","20,20,20,20","10,10,10,10","20,20,20,20","20,20,20,20","20,20,20,20","1,0,1,0","6945,2822,845,2335","14.01535550502856,6.845620874880108,37.26118759754405,33.969822784979165","36.57659450689101,-27.84314446586012,47.54351322340741,-10.649540385126613","0","0"
"600","86","text","0","73","816090","0-0","","","","","","","","","","","","","","","","","","","","","","","","","","","","","","","","","","","","",""
"","","plant-game","0","74","824063","0-0","","200","190","2","WHEAT CROP","Right","200","180","2","THISTLE WEED","experimental","24","1,2","180,199.93399817678332","2,1","THISTLE WEED,THISTLE WEED","190,182.12751381172305","2,1","WHEAT CROP,WHEAT CROP","0,0","20,20","10,10","20,20","20,20","20,20","0,0","20,20","10,10","20,20","20,20","20,20","1,1","2805,1402","19.93399817678333,5.549947205831028","-7.872486188276962,22.66036529084487","0","0"
"563","86","text","0","75","824786","0-0","","","","","","","","","","","","","","","","","","","","","","","","","","","","","","","","","","","","",""
"","","plant-game","0","76","842209","0-0","","200","190","1","CORN CROP","Right","200","180","4","NETTLE WEED","experimental","25","1,2,3,4","180,198.02897716367633,218.68221610739596,218.10044936781276","4,3,2,1","NETTLE WEED,NETTLE WEED,NETTLE WEED,NETTLE WEED","190,170,142.211101502671,152.48959822908483","1,3,2,1","CORN CROP,WHEAT CROP,WHEAT CROP,WHEAT CROP","0,0,0,0","20,20,20,20","10,10,10,10","20,20,20,20","20,20,20,20","20,20,20,20","0,0,0,0","20,20,20,20","10,10,10,10","20,20,20,20","20,20,20,20","20,20,20,20","1,0,0,0","3224,3357,2325,319","18.028977163676334,20.653238943719614,-0.581766739583206,8.402174173512801","42.90374562127859,-27.78889849732899,10.278496726413849,-14.186824885785574","0","0"
"597","86","text","0","77","842976","0-0","","","","","","","","","","","","","","","","","","","","","","","","","","","","","","","","","","","","",""
"","","plant-game","0","78","870335","0-0","","200","180","2","CORN CROP","Left","200","160","8","THISTLE WEED","experimental","26","1,2,3,4,5,6,7,8","180,209.88804599808913,140,160.6275682096965,146.3500071840604,145.70359712377444,177.52380334755182,184.83833170447116","2,1,6,5,4,3,2,1","CORN CROP,CORN CROP,WHEAT CROP,WHEAT CROP,WHEAT CROP,WHEAT CROP,WHEAT CROP,WHEAT CROP","160,169.84442627992095,184.68477928249325,164.54637467870455,187.39164262902224,170.81040810430036,169.98062769252158,209.85101177566725","8,7,6,5,4,3,2,1","THISTLE WEED,THISTLE WEED,THISTLE WEED,THISTLE WEED,THISTLE WEED,THISTLE WEED,THISTLE WEED,THISTLE WEED","20,20,20,20,20,20,20,20","20,20,20,20,20,20,20,20","10,10,10,10,10,10,10,10","20,20,20,20,20,20,20,20","0,0,0,0,0,0,0,0","20,20,20,20,20,20,20,20","20,20,20,20,20,20,20,20","20,20,20,20,20,20,20,20","10,10,10,10,10,10,10,10","20,20,20,20,20,20,20,20","0,0,0,0,0,0,0,0","20,20,20,20,20,20,20,20","0,1,1,1,1,1,0,1","3400,2679,7248,943,564,861,1112,987","29.888045998089115,-5.957618671266555,20.627568209696506,-14.27756102563613,-0.6464100602859496,31.820206223777376,7.314528356919336,-9.88351217141969","9.844426279920942,14.840353002572307,-20.138404603788697,22.84526795031769,-16.581234524721875,-0.8297804117787906,39.87038408314568,13.027836733587893","0","0"
"192","86","text","0","79","870633","0-0","","","","","","","","","","","","","","","","","","","","","","","","","","","","","","","","","","","","",""
"","","plant-game","0","80","883023","0-0","","200","160","1","CORN CROP","Left","200","180","2","NETTLE WEED","experimental","27","1,2","160,190","1,1","CORN CROP,WHEAT CROP","180,210.979780461694","2,1","NETTLE WEED,NETTLE WEED","20,20","20,20","10,10","20,20","0,0","20,20","20,20","20,20","10,10","20,20","0,0","20,20","0,1","666,6347","-12.772855473364999,15.303574841567764","30.97978046169398,16.452413521991957","0","0"
"450","86","text","0","81","883623","0-0","","","","","","","","","","","","","","","","","","","","","","","","","","","","","","","","","","","","",""
"","","plant-game","0","82","892869","0-0","","200","180","2","CORN CROP","Right","200","190","1","THISTLE WEED","experimental","28","1,2","190,190","1,1","THISTLE WEED,NETTLE WEED","180,182.12169931066595","2,1","CORN CROP,CORN CROP","0,0","20,20","10,10","20,20","20,20","20,20","0,0","20,20","10,10","20,20","20,20","20,20","0,1","1881,1298","12.201581890134609,17.964391697958142","2.1216993106659525,33.63694999524978","0","0"
"965","86","text","0","83","894019","0-0","","","","","","","","","","","","","","","","","","","","","","","","","","","","","","","","","","","","",""
"","","plant-game","0","84","911739","0-0","","200","120","1","CORN CROP","Left","200","120","2","THISTLE WEED","experimental","29","1,2","120,190","1,1","CORN CROP,WHEAT CROP","120,154.74229755616693","2,1","THISTLE WEED,THISTLE WEED","20,20","20,20","10,10","20,20","0,0","20,20","20,20","20,20","10,10","20,20","0,0","20,20","0,0","2959,3039","48.95203922279936,42.018303106333775","34.74229755616694,-7.999216884207634","0","0"
"650","86","text","0","85","912559","0-0","","","","","","","","","","","","","","","","","","","","","","","","","","","","","","","","","","","","",""
"","","plant-game","0","86","930975","0-0","","200","190","8","WHEAT CROP","Right","200","160","8","NETTLE WEED","experimental","30","1,2,3,4,5,6,7,8","160,132.25724782745885,122.85603766943356,148.66686724521884,178.43979050876993,219.09477611638266,219.27043248243226,197.80457030571716","8,7,6,5,4,3,2,1","NETTLE WEED,NETTLE WEED,NETTLE WEED,NETTLE WEED,NETTLE WEED,NETTLE WEED,NETTLE WEED,NETTLE WEED","190,202.62967606062878,205.07634316977007,191.18021716254682,222.173533362807,223.86838838217358,236.8841718616032,271.3891875867282","8,7,6,5,4,3,2,1","WHEAT CROP,WHEAT CROP,WHEAT CROP,WHEAT CROP,WHEAT CROP,WHEAT CROP,WHEAT CROP,WHEAT CROP","0,0,0,0,0,0,0,0","20,20,20,20,20,20,20,20","10,10,10,10,10,10,10,10","20,20,20,20,20,20,20,20","20,20,20,20,20,20,20,20","20,20,20,20,20,20,20,20","0,0,0,0,0,0,0,0","20,20,20,20,20,20,20,20","10,10,10,10,10,10,10,10","20,20,20,20,20,20,20,20","20,20,20,20,20,20,20,20","20,20,20,20,20,20,20,20","0,0,0,1,1,0,0,0","2492,1651,882,973,3029,1061,672,958","-27.742752172541152,-9.401210158025298,25.810829575785274,29.772923263551085,40.654985607612716,0.1756563660495902,-21.465862176715078,-4.8139236947009945","12.62967606062877,2.4466671091412917,-13.896126007223232,30.99331620026017,1.6948550193665675,13.01578347942963,34.50501572512505,19.20666005375774","0","0"
"750","86","text","0","87","931925","0-0","","","","","","","","","","","","","","","","","","","","","","","","","","","","","","","","","","","","",""
"","","plant-game","0","88","940421","0-0","","200","180","4","CORN CROP","Left","200","190","4","NETTLE WEED","experimental","31","1,2,3,4","180,186.8491514299807,188.02237872053777,174.5707445017651","4,3,2,1","CORN CROP,CORN CROP,CORN CROP,CORN CROP","190,215.03760006086162,196.74129422826826,195.4091446197785","4,3,2,1","NETTLE WEED,NETTLE WEED,NETTLE WEED,NETTLE WEED","20,20,20,20","20,20,20,20","10,10,10,10","20,20,20,20","0,0,0,0","20,20,20,20","20,20,20,20","20,20,20,20","10,10,10,10","20,20,20,20","0,0,0,0","20,20,20,20","0,1,1,0","2770,568,382,667","6.8491514299807115,1.1732272905570769,-13.451634218772677,-0.20079138560323528","25.037600060861624,-18.296305832593347,-1.3321496084897653,29.594967257963372","0","0"
"184","86","text","0","89","940745","0-0","","","","","","","","","","","","","","","","","","","","","","","","","","","","","","","","","","","","",""
"","","plant-game","0","90","948701","0-0","","200","120","4","CORN CROP","Left","200","180","4","NETTLE WEED","experimental","32","1,2,3,4","120,103.1130869494931,131.07372020070608,96.8664256727781","4,3,2,1","CORN CROP,CORN CROP,CORN CROP,CORN CROP","180,173.79537931227895,165.49856389201491,174.30160240229085","4,3,2,1","NETTLE WEED,NETTLE WEED,NETTLE WEED,NETTLE WEED","20,20,20,20","20,20,20,20","10,10,10,10","20,20,20,20","0,0,0,0","20,20,20,20","20,20,20,20","20,20,20,20","10,10,10,10","20,20,20,20","0,0,0,0","20,20,20,20","1,1,1,1","1450,443,466,1598","-16.8869130505069,27.960633251212986,-34.20729452792797,-15.349909054591087","-6.204620687721034,-8.296815420264029,8.803038510275949,23.170619479067884","0","0"
"8791","86","text","0","91","957664","0-0","","","","","","","","","","","","","","","","","","","","","","","","","","","","","","","","","","","","",""
"","","plant-game","0","92","985093","0-0","","200","160","1","WHEAT CROP","Left","200","160","8","THISTLE WEED","experimental","33","1,2,3,4,5,6,7,8","160,130,141.66339693374417,138.43869084472246,127.90289523005703,173.7862531479854,182.21498402302274,191.382783817771","1,7,6,5,4,3,2,1","WHEAT CROP,CORN CROP,CORN CROP,CORN CROP,CORN CROP,CORN CROP,CORN CROP,CORN CROP","160,159.51226883898178,137.33743196488842,139.53465016125057,144.25772389177385,177.8936957216245,174.32177068919844,186.09456924634102","8,7,6,5,4,3,2,1","THISTLE WEED,THISTLE WEED,THISTLE WEED,THISTLE WEED,THISTLE WEED,THISTLE WEED,THISTLE WEED,THISTLE WEED","20,20,20,20,20,20,20,20","20,20,20,20,20,20,20,20","10,10,10,10,10,10,10,10","20,20,20,20,20,20,20,20","0,0,0,0,0,0,0,0","20,20,20,20,20,20,20,20","20,20,20,20,20,20,20,20","20,20,20,20,20,20,20,20","10,10,10,10,10,10,10,10","20,20,20,20,20,20,20,20","0,0,0,0,0,0,0,0","20,20,20,20,20,20,20,20","1,1,0,1,0,1,0,0","1702,4529,1362,473,1087,1172,1273,891","-20.94986257129429,11.663396933744162,-3.224706089021705,-10.535795614665432,45.88335791792838,8.428730875037324,9.167799794748285,19.473862770597535","-0.48773116101820646,-22.174836874093373,2.197218196362158,4.723073730523295,33.63597182985065,-3.571925032426066,11.772798557142586,16.463917921611152","0","0"
"853","86","text","0","93","986126","0-0","","","","","","","","","","","","","","","","","","","","","","","","","","","","","","","","","","","","",""
"","","plant-game","0","94","1011836","0-0","","200","190","2","CORN CROP","Right","200","190","8","NETTLE WEED","experimental","34","1,2,3,4,5,6,7,8","190,230.22602509868494,233.19251022502408,232.2510588792224,251.4987648374088,296.08076570326665,326.18864864173986,319.1373456468127","8,7,6,5,4,3,2,1","NETTLE WEED,NETTLE WEED,NETTLE WEED,NETTLE WEED,NETTLE WEED,NETTLE WEED,NETTLE WEED,NETTLE WEED","190,217.0642341354636,140,158.54618984271775,166.21868959080794,193.50246127509362,191.10923618468098,243.159839049989","2,1,6,5,4,3,2,1","CORN CROP,CORN CROP,WHEAT CROP,WHEAT CROP,WHEAT CROP,WHEAT CROP,WHEAT CROP,WHEAT CROP","0,0,0,0,0,0,0,0","20,20,20,20,20,20,20,20","10,10,10,10,10,10,10,10","20,20,20,20,20,20,20,20","20,20,20,20,20,20,20,20","20,20,20,20,20,20,20,20","0,0,0,0,0,0,0,0","20,20,20,20,20,20,20,20","10,10,10,10,10,10,10,10","20,20,20,20,20,20,20,20","20,20,20,20,20,20,20,20","20,20,20,20,20,20,20,20","1,0,1,1,1,0,0,0","10261,1228,3915,403,640,540,309,283","40.22602509868493,2.9664851263391387,-0.9414513458016955,19.247705958186412,44.58200086585784,30.107882938473182,-7.0513029949271555,-12.80597494466306","27.06423413546361,-8.433854434491085,18.54618984271775,7.672499748090189,27.28377168428568,-2.3932250904126464,52.050602865307994,-8.640358431757067","0","0"
"631","86","text","0","95","1012613","0-0","","","","","","","","","","","","","","","","","","","","","","","","","","","","","","","","","","","","",""
"","","plant-game","0","96","1020986","0-0","","200","120","4","CORN CROP","Left","200","120","4","NETTLE WEED","experimental","35","1,2,3,4","120,137.15304821224228,110.62482621439977,118.37267134637929","4,3,2,1","CORN CROP,CORN CROP,CORN CROP,CORN CROP","120,137.46296412355912,133.2679758265487,154.9288247993808","4,3,2,1","NETTLE WEED,NETTLE WEED,NETTLE WEED,NETTLE WEED","20,20,20,20","20,20,20,20","10,10,10,10","20,20,20,20","0,0,0,0","20,20,20,20","20,20,20,20","20,20,20,20","10,10,10,10","20,20,20,20","0,0,0,0","20,20,20,20","0,1,1,1","2385,557,539,487","17.153048212242286,-26.5282219978425,7.747845131979517,-35.36010546458058","17.462964123559132,-4.19498829701042,21.6608489728321,-23.006966236527568","0","0"
"656","86","text","0","97","1021802","0-0","","","","","","","","","","","","","","","","","","","","","","","","","","","","","","","","","","","","",""
"","","plant-game","0","98","1027926","0-0","","200","180","2","WHEAT CROP","Right","200","160","2","NETTLE WEED","experimental","36","1,2","160,189.25611570813186","2,1","NETTLE WEED,NETTLE WEED","180,181.34553993396543","2,1","WHEAT CROP,WHEAT CROP","0,0","20,20","10,10","20,20","20,20","20,20","0,0","20,20","10,10","20,20","20,20","20,20","0,1","1467,683","29.25611570813186,37.24087727887637","1.3455399339654135,-31.85154367184363","0","0"
"620","86","text","0","99","1028646","0-0","","","","","","","","","","","","","","","","","","","","","","","","","","","","","","","","","","","","",""
"","","plant-game","0","100","1040535","0-0","","200","160","2","CORN CROP","Left","200","180","8","NETTLE WEED","experimental","37","1,2,3,4,5,6,7,8","160,179.45209800888176,140,143.6491236072224,152.20816985595957,139.39046284239973,132.39610960374654,119.06224434016919","2,1,6,5,4,3,2,1","CORN CROP,CORN CROP,WHEAT CROP,WHEAT CROP,WHEAT CROP,WHEAT CROP,WHEAT CROP,WHEAT CROP","180,192.33909910700152,207.8857137987107,196.69306397739496,186.6909693327008,147.24054419575185,162.3814303484236,166.96375167258748","8,7,6,5,4,3,2,1","NETTLE WEED,NETTLE WEED,NETTLE WEED,NETTLE WEED,NETTLE WEED,NETTLE WEED,NETTLE WEED,NETTLE WEED","20,20,20,20,20,20,20,20","20,20,20,20,20,20,20,20","10,10,10,10,10,10,10,10","20,20,20,20,20,20,20,20","0,0,0,0,0,0,0,0","20,20,20,20,20,20,20,20","20,20,20,20,20,20,20,20","20,20,20,20,20,20,20,20","10,10,10,10,10,10,10,10","20,20,20,20,20,20,20,20","0,0,0,0,0,0,0,0","20,20,20,20,20,20,20,20","1,0,1,1,1,0,1,1","1530,1003,2007,360,301,723,425,140","19.45209800888176,48.71488276847359,3.6491236072224136,8.55904624873717,-12.81770701355983,-6.99435323865319,-13.333865263577351,13.400010563454849","12.339099107001523,15.546614691709193,-11.19264982131574,-10.00209464469415,-39.45042513694895,15.140886152671742,4.582321324163877,2.330989071348632","0","0"
"487","86","text","0","101","1041132","0-0","","","","","","","","","","","","","","","","","","","","","","","","","","","","","","","","","","","","",""
"","","plant-game","0","102","1060817","0-0","","200","160","8","WHEAT CROP","Left","200","120","2","NETTLE WEED","experimental","38","1,2,3,4,5,6,7,8","160,200.68329092236326,222.66664014181902,250.4358609488465,255.57020894298927,277.282158341763,263.5407853988272,263.6755469574677","8,7,6,5,4,3,2,1","WHEAT CROP,WHEAT CROP,WHEAT CROP,WHEAT CROP,WHEAT CROP,WHEAT CROP,WHEAT CROP,WHEAT CROP","120,162.92452307213478,140,186.69545051793978,182.81018010035453,199.80543203559498,188.56092108062452,132.2307755004485","2,1,6,5,4,3,2,1","NETTLE WEED,NETTLE WEED,THISTLE WEED,THISTLE WEED,THISTLE WEED,THISTLE WEED,THISTLE WEED,THISTLE WEED","20,20,20,20,20,20,20,20","20,20,20,20,20,20,20,20","10,10,10,10,10,10,10,10","20,20,20,20,20,20,20,20","0,0,0,0,0,0,0,0","20,20,20,20,20,20,20,20","20,20,20,20,20,20,20,20","20,20,20,20,20,20,20,20","10,10,10,10,10,10,10,10","20,20,20,20,20,20,20,20","0,0,0,0,0,0,0,0","20,20,20,20,20,20,20,20","0,0,0,1,1,1,1,1","787,1937,1539,975,1130,1728,1414,1517","40.683290922363256,21.98334921945576,27.7692208070275,5.134347994142759,21.71194939877377,-13.741372942935824,0.13476155864047243,24.925609750048352","42.92452307213476,-22.6867755967693,46.69545051793976,-3.885270417585252,16.99525193524044,-11.244510954970451,-56.33014558017604,-6.167729841814268","0","0"
"589","86","text","0","103","1061515","0-0","","","","","","","","","","","","","","","","","","","","","","","","","","","","","","","","","","","","",""
"","","plant-game","0","104","1077363","0-0","","200","180","8","CORN CROP","Left","200","120","4","THISTLE WEED","experimental","39","1,2,3,4,5,6,7,8","180,212.24281604770476,210.11903718646585,228.21189111565536,219.43923908963328,240.7525370545082,226.94012930263798,199.73704027245836","8,7,6,5,4,3,2,1","CORN CROP,CORN CROP,CORN CROP,CORN CROP,CORN CROP,CORN CROP,CORN CROP,CORN CROP","120,171.35126187068568,199.81154857874284,192.97442169892273,160,148.0702525147579,135.61955912060583,130.39201587709883","4,3,2,1,4,3,2,1","THISTLE WEED,THISTLE WEED,THISTLE WEED,THISTLE WEED,NETTLE WEED,NETTLE WEED,NETTLE WEED,NETTLE WEED","20,20,20,20,20,20,20,20","20,20,20,20,20,20,20,20","10,10,10,10,10,10,10,10","20,20,20,20,20,20,20,20","0,0,0,0,0,0,0,0","20,20,20,20,20,20,20,20","20,20,20,20,20,20,20,20","20,20,20,20,20,20,20,20","10,10,10,10,10,10,10,10","20,20,20,20,20,20,20,20","0,0,0,0,0,0,0,0","20,20,20,20,20,20,20,20","0,1,1,1,1,1,1,0","2001,961,1173,675,109,1319,821,697","32.242816047704764,-2.1237788612389097,18.092853929189502,-8.772652026022076,21.313297964874906,-13.812407751870202,-27.203089030179626,-0.48390066231199214","51.35126187068568,28.460286708057158,-6.837126879820122,9.00629537454439,-11.929747485242109,-12.450693394152076,-5.227543243506995,7.13817809594962","0","0"
"616","86","text","0","105","1078099","0-0","","","","","","","","","","","","","","","","","","","","","","","","","","","","","","","","","","","","",""
"","","plant-game","0","106","1085813","0-0","","200","160","8","WHEAT CROP","Left","200","160","8","THISTLE WEED","experimental","40","1,2,3,4,5,6,7,8","160,151.24851715483808,180.77137102454304,170.42579487943442,198.85719006919305,175.65212145337821,160.3507872713023,163.56376300874925","8,7,6,5,4,3,2,1","WHEAT CROP,WHEAT CROP,WHEAT CROP,WHEAT CROP,WHEAT CROP,WHEAT CROP,WHEAT CROP,WHEAT CROP","160,189.47225844488818,216.8499617838364,211.99081458882637,237.36457736008364,245.79740870815831,227.8391623361618,234.22021199797564","8,7,6,5,4,3,2,1","THISTLE WEED,THISTLE WEED,THISTLE WEED,THISTLE WEED,THISTLE WEED,THISTLE WEED,THISTLE WEED,THISTLE WEED","20,20,20,20,20,20,20,20","20,20,20,20,20,20,20,20","10,10,10,10,10,10,10,10","20,20,20,20,20,20,20,20","0,0,0,0,0,0,0,0","20,20,20,20,20,20,20,20","20,20,20,20,20,20,20,20","20,20,20,20,20,20,20,20","10,10,10,10,10,10,10,10","20,20,20,20,20,20,20,20","0,0,0,0,0,0,0,0","20,20,20,20,20,20,20,20","0,1,1,1,1,1,1,1","843,433,640,367,574,426,64,83","-8.751482845161917,29.52285386970496,-10.345576145108614,28.431395189758632,-23.20506861581483,-15.301334182075923,3.2129757374469485,-21.468732322589194","29.472258444888187,27.37770333894822,-4.859147195010036,25.373762771257283,8.43283134807466,-17.95824637199653,6.381049661813853,-2.7841548212071485","0","0"
"756","86","text","0","107","1086679","0-0","","","","","","","","","","","","","","","","","","","","","","","","","","","","","","","","","","","","",""
"","","plant-game","0","108","1092422","0-0","","200","190","1","WHEAT CROP","Right","200","120","1","THISTLE WEED","experimental","41","1","120","1","THISTLE WEED","190","1","WHEAT CROP","0","20","10","20","20","20","0","20","10","20","20","20","0","1655","-25.123147719865074","8.037065452247594","0","0"
"600","86","text","0","109","1093162","0-0","","","","","","","","","","","","","","","","","","","","","","","","","","","","","","","","","","","","",""
"","","plant-game","0","110","1103815","0-0","","200","160","1","CORN CROP","Left","200","120","2","NETTLE WEED","experimental","42","1,2","160,190","1,1","CORN CROP,WHEAT CROP","120,140.17225305425237","2,1","NETTLE WEED,NETTLE WEED","20,20","20,20","10,10","20,20","0,0","20,20","20,20","20,20","10,10","20,20","0,0","20,20","1,0","1794,1135","18.474081187448405,27.32950494138193","20.17225305425236,26.564402617790165","0","0"
"654","86","text","0","111","1104636","0-0","","","","","","","","","","","","","","","","","","","","","","","","","","","","","","","","","","","","",""
"","","plant-game","0","112","1115957","0-0","","200","160","2","WHEAT CROP","Left","200","120","1","NETTLE WEED","experimental","43","1,2","160,173.20951315832957","2,1","WHEAT CROP,WHEAT CROP","120,190","1,1","NETTLE WEED,THISTLE WEED","20,20","20,20","10,10","20,20","0,0","20,20","20,20","20,20","10,10","20,20","0,0","20,20","0,1","1774,1683","13.209513158329585,-17.04271283182509","43.10849317520882,25.962909685830002","0","0"
"574","86","text","0","113","1116681","0-0","","","","","","","","","","","","","","","","","","","","","","","","","","","","","","","","","","","","",""
"","","plant-game","0","114","1128890","0-0","","200","180","2","WHEAT CROP","Right","200","180","1","THISTLE WEED","experimental","44","1,2","180,190","1,1","THISTLE WEED,NETTLE WEED","180,212.06339692974836","2,1","WHEAT CROP,WHEAT CROP","0,0","20,20","10,10","20,20","20,20","20,20","0,0","20,20","10,10","20,20","20,20","20,20","1,0","3130,1966","25.222277391229653,-0.9223569773289725","32.06339692974837,27.820564761805127","0","0"
"564","86","text","0","115","1129614","0-0","","","","","","","","","","","","","","","","","","","","","","","","","","","","","","","","","","","","",""
"","","plant-game","0","116","1142261","0-0","","200","120","1","CORN CROP","Left","200","190","4","THISTLE WEED","experimental","45","1,2,3,4","120,170,152.4588085234917,145.67267764751026","1,3,2,1","CORN CROP,WHEAT CROP,WHEAT CROP,WHEAT CROP","190,195.15052523231267,182.76845784191488,154.1323690638209","4,3,2,1","THISTLE WEED,THISTLE WEED,THISTLE WEED,THISTLE WEED","20,20,20,20","20,20,20,20","10,10,10,10","20,20,20,20","0,0,0,0","20,20,20,20","20,20,20,20","20,20,20,20","10,10,10,10","20,20,20,20","0,0,0,0","20,20,20,20","1,1,1,0","4044,759,876,946","21.74466388510008,-17.541191476508285,-6.786130875981468,12.573679233652875","5.150525232312667,-12.382067390397783,-28.63608877809397,9.812300945919558","0","0"
"237","86","text","0","117","1142591","0-0","","","","","","","","","","","","","","","","","","","","","","","","","","","","","","","","","","","","",""
"","","plant-game","0","118","1154603","0-0","","200","190","1","WHEAT CROP","Right","200","180","8","NETTLE WEED","experimental","46","1,2,3,4,5,6,7,8","180,210.05293679839582,238.5765014532716,249.19286893262546,263.5020807086895,270.08986356330536,269.82303029549274,298.1313942507835","8,7,6,5,4,3,2,1","NETTLE WEED,NETTLE WEED,NETTLE WEED,NETTLE WEED,NETTLE WEED,NETTLE WEED,NETTLE WEED,NETTLE WEED","190,130,155.73814579945304,194.2758083831641,188.56155232200155,218.66436177064503,269.7089828287388,265.76694429403915","1,7,6,5,4,3,2,1","WHEAT CROP,CORN CROP,CORN CROP,CORN CROP,CORN CROP,CORN CROP,CORN CROP,CORN CROP","0,0,0,0,0,0,0,0","20,20,20,20,20,20,20,20","10,10,10,10,10,10,10,10","20,20,20,20,20,20,20,20","20,20,20,20,20,20,20,20","20,20,20,20,20,20,20,20","0,0,0,0,0,0,0,0","20,20,20,20,20,20,20,20","10,10,10,10,10,10,10,10","20,20,20,20,20,20,20,20","20,20,20,20,20,20,20,20","20,20,20,20,20,20,20,20","0,1,1,0,1,1,1,1","1659,1033,661,443,553,49,74,209","30.052936798395805,28.523564654875777,10.616367479353869,14.309211776064037,6.587782854615831,-0.26683326781262195,28.308363955290755,8.773055037360571","46.61460929815973,25.738145799453036,38.537662583711075,-5.714256061162555,30.10280944864348,51.044621058093746,-3.9420385346996447,-19.522554632969175","0","0"
"409","86","text","0","119","1155140","0-0","","","","","","","","","","","","","","","","","","","","","","","","","","","","","","","","","","","","",""
"","","plant-game","0","120","1165803","0-0","","200","190","1","WHEAT CROP","Right","200","190","4","NETTLE WEED","experimental","47","1,2,3,4","190,206.8269321073147,215.45923434775432,268.2094333931707","4,3,2,1","NETTLE WEED,NETTLE WEED,NETTLE WEED,NETTLE WEED","190,170,162.9809767043802,153.08662985138596","1,3,2,1","WHEAT CROP,CORN CROP,CORN CROP,CORN CROP","0,0,0,0","20,20,20,20","10,10,10,10","20,20,20,20","20,20,20,20","20,20,20,20","0,0,0,0","20,20,20,20","10,10,10,10","20,20,20,20","20,20,20,20","20,20,20,20","1,0,1,1","1216,3057,586,75","16.8269321073147,8.632302240439643,52.750199045416366,20.19726029492611","32.260462636352614,-7.019023295619803,-9.894346852994236,18.817190169553157","0","0"
"400","86","text","0","121","1166343","0-0","","","","","","","","","","","","","","","","","","","","","","","","","","","","","","","","","","","","",""
"","","plant-game","0","122","1177270","0-0","","200","160","4","WHEAT CROP","Right","200","190","2","THISTLE WEED","experimental","48","1,2,3,4","190,194.10663237981743,180,212.06072923963293","2,1,2,1","THISTLE WEED,THISTLE WEED,NETTLE WEED,NETTLE WEED","160,153.16611088304944,139.57767779966295,131.9425011622271","4,3,2,1","WHEAT CROP,WHEAT CROP,WHEAT CROP,WHEAT CROP","0,0,0,0","20,20,20,20","10,10,10,10","20,20,20,20","20,20,20,20","20,20,20,20","0,0,0,0","20,20,20,20","10,10,10,10","20,20,20,20","20,20,20,20","20,20,20,20","0,1,1,0","1668,649,2380,1215","4.1066323798174285,30.778269809230586,32.060729239632934,4.54242240239813","-6.833889116950558,-13.588433083386484,-7.635176637435851,4.840544118992591","0","0"
"2902","86","text","0","123","1180332","0-0","","","","","","","","","","","","","","","","","","","","","","","","","","","","","","","","","","","","",""
"","","plant-game","0","124","1197839","0-0","","200","120","8","WHEAT CROP","Right","200","120","2","THISTLE WEED","experimental","49","1,2,3,4,5,6,7,8","120,142.7265583685765,140,147.33847222651585,154.9944149247486,168.43120464186873,155.15207183501437,162.24884997821138","2,1,6,5,4,3,2,1","THISTLE WEED,THISTLE WEED,NETTLE WEED,NETTLE WEED,NETTLE WEED,NETTLE WEED,NETTLE WEED,NETTLE WEED","120,130.6950898797887,163.67091598799823,215.45355139988908,208.87205777943848,200.63895163972674,249.99099280703763,280.04228858392815","8,7,6,5,4,3,2,1","WHEAT CROP,WHEAT CROP,WHEAT CROP,WHEAT CROP,WHEAT CROP,WHEAT CROP,WHEAT CROP,WHEAT CROP","0,0,0,0,0,0,0,0","20,20,20,20,20,20,20,20","10,10,10,10,10,10,10,10","20,20,20,20,20,20,20,20","20,20,20,20,20,20,20,20","20,20,20,20,20,20,20,20","0,0,0,0,0,0,0,0","20,20,20,20,20,20,20,20","10,10,10,10,10,10,10,10","20,20,20,20,20,20,20,20","20,20,20,20,20,20,20,20","20,20,20,20,20,20,20,20","1,0,1,1,0,1,1,1","1035,602,2853,3225,706,519,1483,707","22.726558368576487,4.54401871964808,7.338472226515847,7.655942698232774,13.436789717120112,-13.279132806854356,7.096778143197026,8.335787264024791","10.695089879788691,32.97582610820954,51.78263541189085,-6.581493620450615,-8.233106139711735,49.35204116731089,30.051295776890505,-5.549418424821756","0","0"
"736","86","text","0","125","1198725","0-0","","","","","","","","","","","","","","","","","","","","","","","","","","","","","","","","","","","","",""
"","","plant-game","0","126","1218862","0-0","","200","190","1","CORN CROP","Right","200","190","8","THISTLE WEED","experimental","50","1,2,3,4,5,6,7,8","190,196.36588417180107,209.52752223257312,248.96573854796105,300.1681168007093,301.5805616959089,294.96266300971945,298.22489734794505","8,7,6,5,4,3,2,1","THISTLE WEED,THISTLE WEED,THISTLE WEED,THISTLE WEED,THISTLE WEED,THISTLE WEED,THISTLE WEED,THISTLE WEED","190,130,151.99592226765313,176.49961787957278,226.51568947747327,224.29628695221487,228.80738825744507,229.30301073995994","1,7,6,5,4,3,2,1","CORN CROP,WHEAT CROP,WHEAT CROP,WHEAT CROP,WHEAT CROP,WHEAT CROP,WHEAT CROP,WHEAT CROP","0,0,0,0,0,0,0,0","20,20,20,20,20,20,20,20","10,10,10,10,10,10,10,10","20,20,20,20,20,20,20,20","20,20,20,20,20,20,20,20","20,20,20,20,20,20,20,20","0,0,0,0,0,0,0,0","20,20,20,20,20,20,20,20","10,10,10,10,10,10,10,10","20,20,20,20,20,20,20,20","20,20,20,20,20,20,20,20","20,20,20,20,20,20,20,20","0,1,1,1,0,0,0,0","5197,3902,627,472,364,203,352,361","6.365884171801057,13.161638060772049,39.43821631538795,51.20237825274823,1.4124448951996238,-6.617898686189422,3.2622343382255807,-6.908891694028359","13.96702648429736,21.99592226765312,24.50369561191964,50.01607159790049,-2.2194025252583893,4.511101305230206,0.49562248251486385,25.43325361735524","0","0"
"550","86","text","0","127","1219552","0-0","","","","","","","","","","","","","","","","","","","","","","","","","","","","","","","","","","","","",""
"","","plant-game","0","128","1228635","0-0","","200","190","1","WHEAT CROP","Left","200","160","2","THISTLE WEED","experimental","51","1,2","190,190","1,1","WHEAT CROP,CORN CROP","160,164.0831821463768","2,1","THISTLE WEED,THISTLE WEED","20,20","20,20","10,10","20,20","0,0","20,20","20,20","20,20","10,10","20,20","0,0","20,20","0,0","2275,1241","-8.4625682971939,26.496583442542075","4.08318214637681,38.53366756628355","0","0"
"743","86","text","0","129","1229558","0-0","","","","","","","","","","","","","","","","","","","","","","","","","","","","","","","","","","","","",""
"","","plant-game","0","130","1248279","0-0","","200","180","4","WHEAT CROP","Left","200","120","1","NETTLE WEED","experimental","52","1,2,3,4","180,239.39365164592184,282.71424282313853,272.9768781506402","4,3,2,1","WHEAT CROP,WHEAT CROP,WHEAT CROP,WHEAT CROP","120,170,165.83543437196084,169.7368109242459","1,3,2,1","NETTLE WEED,THISTLE WEED,THISTLE WEED,THISTLE WEED","20,20,20,20","20,20,20,20","10,10,10,10","20,20,20,20","0,0,0,0","20,20,20,20","20,20,20,20","20,20,20,20","10,10,10,10","20,20,20,20","0,0,0,0","20,20,20,20","0,1,1,1","1816,2139,698,555","59.39365164592183,43.32059117721671,-9.737364672498385,4.562083530748654","6.738934278886628,-4.164565628039153,3.901376552285067,-34.12446796587988","0","0"
"503","86","text","0","131","1248982","0-0","","","","","","","","","","","","","","","","","","","","","","","","","","","","","","","","","","","","",""
"","","plant-game","0","132","1260282","0-0","","200","160","2","WHEAT CROP","Right","200","190","4","NETTLE WEED","experimental","53","1,2,3,4","190,169.83629590815457,179.81411802853157,181.16369157848453","4,3,2,1","NETTLE WEED,NETTLE WEED,NETTLE WEED,NETTLE WEED","160,170.91215932372705,180,177.60952190001768","2,1,2,1","WHEAT CROP,WHEAT CROP,CORN CROP,CORN CROP","0,0,0,0","20,20,20,20","10,10,10,10","20,20,20,20","20,20,20,20","20,20,20,20","0,0,0,0","20,20,20,20","10,10,10,10","20,20,20,20","20,20,20,20","20,20,20,20","0,1,1,1","877,503,2326,602","-20.16370409184543,9.977822120377011,1.349573549952975,12.608268139753473","10.912159323727062,25.60060138771343,-2.390478099982328,31.578750259667316","0","0"
"557","86","text","0","133","1260969","0-0","","","","","","","","","","","","","","","","","","","","","","","","","","","","","","","","","","","","",""
"","","plant-game","0","134","1274878","0-0","","200","190","8","CORN CROP","Left","200","190","8","THISTLE WEED","experimental","54","1,2,3,4,5,6,7,8","190,220.34461330685735,240.4539557256131,260.990515601712,302.2773332484988,295.5569075320437,294.9216050880542,283.59657930337795","8,7,6,5,4,3,2,1","CORN CROP,CORN CROP,CORN CROP,CORN CROP,CORN CROP,CORN CROP,CORN CROP,CORN CROP","190,182.41052292305272,192.82969780625555,190.38913596178716,223.05868399159016,205.27872458852622,197.33427994155824,210.38489433925628","8,7,6,5,4,3,2,1","THISTLE WEED,THISTLE WEED,THISTLE WEED,THISTLE WEED,THISTLE WEED,THISTLE WEED,THISTLE WEED,THISTLE WEED","20,20,20,20,20,20,20,20","20,20,20,20,20,20,20,20","10,10,10,10,10,10,10,10","20,20,20,20,20,20,20,20","0,0,0,0,0,0,0,0","20,20,20,20,20,20,20,20","20,20,20,20,20,20,20,20","20,20,20,20,20,20,20,20","10,10,10,10,10,10,10,10","20,20,20,20,20,20,20,20","0,0,0,0,0,0,0,0","20,20,20,20,20,20,20,20","0,0,1,0,1,1,1,1","1524,3462,974,1080,518,410,680,859","30.344613306857347,20.10934241875574,20.5365598760989,41.2868176467868,-6.720425716455133,-0.6353024439894777,-11.325025784676255,15.357240828048372","-7.589477076947272,10.419174883202823,-2.4405618444683927,32.66954802980301,-17.77995940306393,-7.944444646967992,13.050614397698034,-2.164691929088103","0","0"
"341","86","text","0","135","1275375","0-0","","","","","","","","","","","","","","","","","","","","","","","","","","","","","","","","","","","","",""
"","","plant-game","0","136","1286775","0-0","","200","180","1","WHEAT CROP","Right","200","190","2","NETTLE WEED","experimental","55","1,2","190,149.24154826739195","2,1","NETTLE WEED,NETTLE WEED","180,190","1,1","WHEAT CROP,CORN CROP","0,0","20,20","10,10","20,20","20,20","20,20","0,0","20,20","10,10","20,20","20,20","20,20","0,1","990,2940","-40.75845173260805,64.67246327808428","-13.114361974130544,3.7479860413653263","0","0"
"448","86","text","0","137","1287383","0-0","","","","","","","","","","","","","","","","","","","","","","","","","","","","","","","","","","","","",""
"","","plant-game","0","138","1300799","0-0","","200","180","2","CORN CROP","Left","200","160","4","NETTLE WEED","experimental","56","1,2,3,4","180,203.31861425718932,180,245.08470224587995","2,1,2,1","CORN CROP,CORN CROP,WHEAT CROP,WHEAT CROP","160,172.8550170366767,206.19162204522567,244.86690180893495","4,3,2,1","NETTLE WEED,NETTLE WEED,NETTLE WEED,NETTLE WEED","20,20,20,20","20,20,20,20","10,10,10,10","20,20,20,20","0,0,0,0","20,20,20,20","20,20,20,20","20,20,20,20","10,10,10,10","20,20,20,20","0,0,0,0","20,20,20,20","0,0,0,1","1230,2348,3008,885","23.31861425718933,32.64129996236386,65.08470224587995,11.189257393914577","12.855017036676713,33.33660500854896,38.67527976370929,48.185147318442645","0","0"
"559","86","text","0","139","1301502","0-0","","","","","","","","","","","","","","","","","","","","","","","","","","","","","","","","","","","","",""
"","","plant-game","0","140","1318294","0-0","","200","160","4","CORN CROP","Right","200","190","8","NETTLE WEED","experimental","57","1,2,3,4,5,6,7,8","190,195.52579517009505,239.370718208384,248.7498943893225,276.4924304439418,308.3625107565455,286.6634434180444,284.87497530914965","8,7,6,5,4,3,2,1","NETTLE WEED,NETTLE WEED,NETTLE WEED,NETTLE WEED,NETTLE WEED,NETTLE WEED,NETTLE WEED,NETTLE WEED","160,183.49245982368376,211.4688998310042,244.8062650236191,160,129.571871033852,127.92507232496224,93.38832797281748","4,3,2,1,4,3,2,1","CORN CROP,CORN CROP,CORN CROP,CORN CROP,WHEAT CROP,WHEAT CROP,WHEAT CROP,WHEAT CROP","0,0,0,0,0,0,0,0","20,20,20,20,20,20,20,20","10,10,10,10,10,10,10,10","20,20,20,20,20,20,20,20","20,20,20,20,20,20,20,20","20,20,20,20,20,20,20,20","0,0,0,0,0,0,0,0","20,20,20,20,20,20,20,20","10,10,10,10,10,10,10,10","20,20,20,20,20,20,20,20","20,20,20,20,20,20,20,20","20,20,20,20,20,20,20,20","0,1,1,0,1,0,0,0","959,735,686,1492,2735,616,524,296","5.52579517009506,43.84492303828897,9.3791761809385,27.74253605461935,31.870080312603655,-21.699067338501123,-1.788468108894714,-26.800653688377004","23.492459823683753,27.976440007320427,33.3373651926149,35.033245941279425,-30.428128966147987,-1.6467987088897595,-34.536744352144765,9.771910432172499","0","0"
"643","86","text","0","141","1319077","0-0","","","","","","","","","","","","","","","","","","","","","","","","","","","","","","","","","","","","",""
"","","plant-game","0","142","1328031","0-0","","200","120","1","WHEAT CROP","Left","200","120","1","THISTLE WEED","experimental","58","1","120","1","WHEAT CROP","120","1","THISTLE WEED","20","20","10","20","0","20","20","20","10","20","0","20","0","3695","-9.925964007193183","-19.379135487976626","0","0"
"798","86","text","0","143","1329048","0-0","","","","","","","","","","","","","","","","","","","","","","","","","","","","","","","","","","","","",""
"","","plant-game","0","144","1340978","0-0","","200","120","4","WHEAT CROP","Right","200","160","4","THISTLE WEED","experimental","59","1,2,3,4","160,168.5318179358752,224.0265746827755,265.4952190773146","4,3,2,1","THISTLE WEED,THISTLE WEED,THISTLE WEED,THISTLE WEED","120,97.62853763179422,133.23107535160491,130.44996562649462","4,3,2,1","WHEAT CROP,WHEAT CROP,WHEAT CROP,WHEAT CROP","0,0,0,0","20,20,20,20","10,10,10,10","20,20,20,20","20,20,20,20","20,20,20,20","0,0,0,0","20,20,20,20","10,10,10,10","20,20,20,20","20,20,20,20","20,20,20,20","1,1,0,0","5749,688,696,689","8.531817935875225,55.49475674690028,41.46864439453904,-10.463646113650157","-22.37146236820579,35.60253771981069,-2.7811097251103107,-1.318884646137763","0","0"
"565","86","text","0","145","1341693","0-0","","","","","","","","","","","","","","","","","","","","","","","","","","","","","","","","","","","","",""
"","","plant-game","0","146","1353585","0-0","","200","160","1","CORN CROP","Left","200","120","4","NETTLE WEED","experimental","60","1,2,3,4","160,170,203.15078743921163,239.55107445424755","1,3,2,1","CORN CROP,WHEAT CROP,WHEAT CROP,WHEAT CROP","120,166.30723342171135,152.50790037202717,152.1854471094262","4,3,2,1","NETTLE WEED,NETTLE WEED,NETTLE WEED,NETTLE WEED","20,20,20,20","20,20,20,20","10,10,10,10","20,20,20,20","0,0,0,0","20,20,20,20","20,20,20,20","20,20,20,20","10,10,10,10","20,20,20,20","0,0,0,0","20,20,20,20","0,0,0,0","1654,1733,1063,622","1.0165627744462142,33.150787439211626,36.400287015035914,28.671747427416275","46.30723342171135,-13.799333049684186,-0.3224532626009555,21.61961515153229","0","0"
"510","86","text","0","147","1354276","0-0","","","","","","","","","","","","","","","","","","","","","","","","","","","","","","","","","","","","",""
"","","plant-game","0","148","1368618","0-0","","200","190","4","CORN CROP","Left","200","180","1","THISTLE WEED","experimental","61","1,2,3,4","190,216.66832460444817,277.27140772433313,329.6390531416252","4,3,2,1","CORN CROP,CORN CROP,CORN CROP,CORN CROP","180,170,169.08916827468755,199.74838150093635","1,3,2,1","THISTLE WEED,NETTLE WEED,NETTLE WEED,NETTLE WEED","20,20,20,20","20,20,20,20","10,10,10,10","20,20,20,20","0,0,0,0","20,20,20,20","20,20,20,20","20,20,20,20","10,10,10,10","20,20,20,20","0,0,0,0","20,20,20,20","0,0,0,1","968,1376,656,993","26.668324604448166,60.603083119884985,52.36764541729206,-2.2435432537692637","10.36437302241965,-0.9108317253124412,30.659213226248795,6.357318556220033","0","0"
"614","86","text","0","149","1369412","0-0","","","","","","","","","","","","","","","","","","","","","","","","","","","","","","","","","","","","",""
"","","plant-game","0","150","1375435","0-0","","200","120","2","CORN CROP","Left","200","190","2","THISTLE WEED","experimental","62","1,2","120,116.4087737939366","2,1","CORN CROP,CORN CROP","190,188.37497779587113","2,1","THISTLE WEED,THISTLE WEED","20,20","20,20","10,10","20,20","0,0","20,20","20,20","20,20","10,10","20,20","0,0","20,20","1,1","2138,576","-3.5912262060634004,4.25954135635541","-1.6250222041288547,-10.464865600643641","0","0"
"1126","86","text","0","151","1376731","0-0","","","","","","","","","","","","","","","","","","","","","","","","","","","","","","","","","","","","",""
"","","plant-game","0","152","1391275","0-0","","200","120","4","CORN CROP","Left","200","160","8","NETTLE WEED","experimental","63","1,2,3,4,5,6,7,8","120,163.37310077040328,187.65817840228277,209.6316980656735,160,171.35564906141536,173.82704510160394,193.51927112771284","4,3,2,1,4,3,2,1","CORN CROP,CORN CROP,CORN CROP,CORN CROP,WHEAT CROP,WHEAT CROP,WHEAT CROP,WHEAT CROP","160,153.1757293052237,155.50837775639872,176.04830401528588,222.70541464483986,256.13257084057426,294.47541425831946,321.6596288748243","8,7,6,5,4,3,2,1","NETTLE WEED,NETTLE WEED,NETTLE WEED,NETTLE WEED,NETTLE WEED,NETTLE WEED,NETTLE WEED,NETTLE WEED","20,20,20,20,20,20,20,20","20,20,20,20,20,20,20,20","10,10,10,10,10,10,10,10","20,20,20,20,20,20,20,20","0,0,0,0,0,0,0,0","20,20,20,20,20,20,20,20","20,20,20,20,20,20,20,20","20,20,20,20,20,20,20,20","10,10,10,10,10,10,10,10","20,20,20,20,20,20,20,20","0,0,0,0,0,0,0,0","20,20,20,20,20,20,20,20","1,0,0,0,1,0,0,0","2534,1010,415,1376,1685,713,278,79","43.37310077040328,24.285077631879503,21.973519663390732,18.235623826022636,11.355649061415354,2.471396040188573,19.692226026108884,22.3845751222659","-6.824270694776294,2.3326484511749896,20.53992625888717,46.65711062955399,33.427156195734405,38.34284341774521,27.184214616504825,58.125553031111814","0","0"
"559","86","text","0","153","1391985","0-0","","","","","","","","","","","","","","","","","","","","","","","","","","","","","","","","","","","","",""
"","","plant-game","0","154","1404321","0-0","","200","160","4","WHEAT CROP","Left","200","180","1","NETTLE WEED","experimental","64","1,2,3,4","160,147.74734965213565,189.51134151192778,215.98840819009143","4,3,2,1","WHEAT CROP,WHEAT CROP,WHEAT CROP,WHEAT CROP","180,170,183.53205789969599,192.31774856222242","1,3,2,1","NETTLE WEED,THISTLE WEED,THISTLE WEED,THISTLE WEED","20,20,20,20","20,20,20,20","10,10,10,10","20,20,20,20","0,0,0,0","20,20,20,20","20,20,20,20","20,20,20,20","10,10,10,10","20,20,20,20","0,0,0,0","20,20,20,20","1,0,1,1","3078,889,559,1411","-12.25265034786434,41.76399185979213,26.477066678163656,-27.878877407907567","-26.513643514252735,13.532057899695975,8.785690662526434,20.98302795119077","0","0"
"783","86","text","0","155","1405234","0-0","","","","","","","","","","","","","","","","","","","","","","","","","","","","","","","","","","","","",""
"","","plant-game","0","156","1419571","0-0","","200","180","8","WHEAT CROP","Left","200","190","2","THISTLE WEED","experimental","65","1,2,3,4,5,6,7,8","180,197.6734894707142,179.27723395108708,212.85069701377085,229.13226349947377,225.48630738191954,235.7157213733825,208.1242332063503","8,7,6,5,4,3,2,1","WHEAT CROP,WHEAT CROP,WHEAT CROP,WHEAT CROP,WHEAT CROP,WHEAT CROP,WHEAT CROP,WHEAT CROP","190,208.44976575909902,140,190.63731066192358,181.05809577348853,201.9820385542953,193.42646009401994,205.31146909853973","2,1,6,5,4,3,2,1","THISTLE WEED,THISTLE WEED,NETTLE WEED,NETTLE WEED,NETTLE WEED,NETTLE WEED,NETTLE WEED,NETTLE WEED","20,20,20,20,20,20,20,20","20,20,20,20,20,20,20,20","10,10,10,10,10,10,10,10","20,20,20,20,20,20,20,20","0,0,0,0,0,0,0,0","20,20,20,20,20,20,20,20","20,20,20,20,20,20,20,20","20,20,20,20,20,20,20,20","10,10,10,10,10,10,10,10","20,20,20,20,20,20,20,20","0,0,0,0,0,0,0,0","20,20,20,20,20,20,20,20","0,1,0,1,0,1,1,1","826,1052,639,2558,745,576,448,1170","17.673489470714195,-18.396255519627115,33.573463062683786,16.281566485702918,-3.645956117554231,10.229413991462959,-27.591488167032182,-20.362010791998465","18.449765759099016,-18.650518793282483,50.63731066192358,-9.579214888435054,20.92394278080676,-8.555578460275346,11.885009004519787,0.9188638732938079","0","0"
"84","86","text","0","157","1419735","0-0","","","","","","","","","","","","","","","","","","","","","","","","","","","","","","","","","","","","",""
"","","plant-game","0","158","1432465","0-0","","200","120","2","WHEAT CROP","Right","200","160","1","THISTLE WEED","experimental","66","1,2","160,190","1,1","THISTLE WEED,NETTLE WEED","120,121.3855805707285","2,1","WHEAT CROP,WHEAT CROP","0,0","20,20","10,10","20,20","20,20","20,20","0,0","20,20","10,10","20,20","20,20","20,20","1,1","4781,1874","40.51878374220341,-1.6327493930089751","1.3855805707284965,57.830742351379754","0","0"
"560","86","text","0","159","1433185","0-0","","","","","","","","","","","","","","","","","","","","","","","","","","","","","","","","","","","","",""
"","","plant-game","0","160","1444744","0-0","","200","120","2","CORN CROP","Right","200","120","4","THISTLE WEED","experimental","67","1,2,3,4","120,138.57869262875153,177.1612144551853,184.2038960924014","4,3,2,1","THISTLE WEED,THISTLE WEED,THISTLE WEED,THISTLE WEED","120,153.21100898032128,180,198.10348799168997","2,1,2,1","CORN CROP,CORN CROP,WHEAT CROP,WHEAT CROP","0,0,0,0","20,20,20,20","10,10,10,10","20,20,20,20","20,20,20,20","20,20,20,20","0,0,0,0","20,20,20,20","10,10,10,10","20,20,20,20","20,20,20,20","20,20,20,20","0,0,0,0","1698,999,1755,911","18.578692628751536,38.58252182643377,7.042681637216093,19.88893236615767","33.21100898032128,22.878520772070857,18.103487991689985,-16.433714055051382","0","0"
"507","86","text","0","161","1445411","0-0","","","","","","","","","","","","","","","","","","","","","","","","","","","","","","","","","","","","",""
"","","plant-game","0","162","1461114","0-0","","200","160","1","CORN CROP","Left","200","160","4","THISTLE WEED","experimental","68","1,2,3,4","160,170,188.77115092725145,192.18485253342578","1,3,2,1","CORN CROP,WHEAT CROP,WHEAT CROP,WHEAT CROP","160,184.61931095937803,204.16735875520047,208.4412140790659","4,3,2,1","THISTLE WEED,THISTLE WEED,THISTLE WEED,THISTLE WEED","20,20,20,20","20,20,20,20","10,10,10,10","20,20,20,20","0,0,0,0","20,20,20,20","20,20,20,20","20,20,20,20","10,10,10,10","20,20,20,20","0,0,0,0","20,20,20,20","0,0,1,0","2070,877,487,3658","14.01872941179241,18.771150927251455,3.4137016061743237,-2.08332470317119","24.619310959378012,19.54804779582244,4.273855323865424,55.3240117041785","0","0"
"576","86","text","0","163","1461810","0-0","","","","","","","","","","","","","","","","","","","","","","","","","","","","","","","","","","","","",""
"","","plant-game","0","164","1469190","0-0","","200","160","4","CORN CROP","Left","200","120","4","THISTLE WEED","experimental","69","1,2,3,4","160,184.79721637179324,240.783226817122,262.6716474492954","4,3,2,1","CORN CROP,CORN CROP,CORN CROP,CORN CROP","120,127.77436001379449,143.5193592464728,176.17313274286505","4,3,2,1","THISTLE WEED,THISTLE WEED,THISTLE WEED,THISTLE WEED","20,20,20,20","20,20,20,20","10,10,10,10","20,20,20,20","0,0,0,0","20,20,20,20","20,20,20,20","20,20,20,20","10,10,10,10","20,20,20,20","0,0,0,0","20,20,20,20","0,0,0,0","919,372,864,1455","24.797216371793255,55.986010445328745,21.888420632173375,29.489322259465546","7.774360013794489,15.744999232678282,32.653773496392276,-15.907092656748524","0","0"
"571","86","text","0","165","1469891","0-0","","","","","","","","","","","","","","","","","","","","","","","","","","","","","","","","","","","","",""
"","","plant-game","0","166","1483460","0-0","","200","180","4","CORN CROP","Left","200","180","8","NETTLE WEED","experimental","70","1,2,3,4,5,6,7,8","180,186.71008814962926,202.3085029656901,183.8649632635839,160,169.19165446459786,181.2196592897852,228.8445397297363","4,3,2,1,4,3,2,1","CORN CROP,CORN CROP,CORN CROP,CORN CROP,WHEAT CROP,WHEAT CROP,WHEAT CROP,WHEAT CROP","180,223.896718360026,221.21883637138288,252.15074819751618,290.8432207048637,297.18730221107995,267.77394294332856,274.5118333811115","8,7,6,5,4,3,2,1","NETTLE WEED,NETTLE WEED,NETTLE WEED,NETTLE WEED,NETTLE WEED,NETTLE WEED,NETTLE WEED,NETTLE WEED","20,20,20,20,20,20,20,20","20,20,20,20,20,20,20,20","10,10,10,10,10,10,10,10","20,20,20,20,20,20,20,20","0,0,0,0,0,0,0,0","20,20,20,20,20,20,20,20","20,20,20,20,20,20,20,20","20,20,20,20,20,20,20,20","10,10,10,10,10,10,10,10","20,20,20,20,20,20,20,20","0,0,0,0,0,0,0,0","20,20,20,20,20,20,20,20","0,0,0,0,1,1,1,1","1305,1165,533,1628,1625,336,309,290","6.710088149629247,15.598414816060856,-18.443539702106236,-13.018925299555967,9.191654464597868,12.028004825187333,47.6248804399511,1.7362394707158748","43.896718360025986,-2.6778819886431116,30.931911826133287,38.69247250734756,6.344081506216231,-29.41335926775141,6.737890437782942,11.106841443958936","0","0"
"530","86","text","0","167","1484131","0-0","","","","","","","","","","","","","","","","","","","","","","","","","","","","","","","","","","","","",""
"","","plant-game","0","168","1496580","0-0","","200","180","1","WHEAT CROP","Left","200","180","4","NETTLE WEED","experimental","71","1,2,3,4","180,170,186.2808942412143,216.45782670515007","1,3,2,1","WHEAT CROP,CORN CROP,CORN CROP,CORN CROP","180,161.85799157817357,147.7799052291759,169.82273904003236","4,3,2,1","NETTLE WEED,NETTLE WEED,NETTLE WEED,NETTLE WEED","20,20,20,20","20,20,20,20","10,10,10,10","20,20,20,20","0,0,0,0","20,20,20,20","20,20,20,20","20,20,20,20","10,10,10,10","20,20,20,20","0,0,0,0","20,20,20,20","1,1,0,0","1097,2770,597,1057","17.58879219279891,16.28089424121429,30.17693246393578,-9.829265876941772","-18.14200842182644,-14.078086348997651,22.04283381085644,10.376961793513376","0","0"
"647","86","text","0","169","1497351","0-0","","","","","","","","","","","","","","","","","","","","","","","","","","","","","","","","","","","","",""
"","","plant-game","0","170","1512553","0-0","","200","160","1","WHEAT CROP","Right","200","120","8","NETTLE WEED","experimental","72","1,2,3,4,5,6,7,8","120,110.92560616831051,107.82526292655373,155.02520899893517,167.76912045576316,158.03756846215228,175.0305496308797,157.7848631160305","8,7,6,5,4,3,2,1","NETTLE WEED,NETTLE WEED,NETTLE WEED,NETTLE WEED,NETTLE WEED,NETTLE WEED,NETTLE WEED,NETTLE WEED","160,130,113.35155812757064,149.92260892254365,142.62322393562536,125.19665070871392,107.10626110627068,126.01017803935784","1,7,6,5,4,3,2,1","WHEAT CROP,CORN CROP,CORN CROP,CORN CROP,CORN CROP,CORN CROP,CORN CROP,CORN CROP","0,0,0,0,0,0,0,0","20,20,20,20,20,20,20,20","10,10,10,10,10,10,10,10","20,20,20,20,20,20,20,20","20,20,20,20,20,20,20,20","20,20,20,20,20,20,20,20","0,0,0,0,0,0,0,0","20,20,20,20,20,20,20,20","10,10,10,10,10,10,10,10","20,20,20,20,20,20,20,20","20,20,20,20,20,20,20,20","20,20,20,20,20,20,20,20","0,0,1,0,0,0,1,1","1824,2226,484,681,823,494,592,347","-9.074393831689486,-3.100343241756777,47.19994607238145,12.743911456827998,-9.73155199361088,16.992981168727425,-17.24568651484921,26.186515344154753","22.902592781380182,-16.648441872429363,36.57105079497301,-7.299384986918293,-17.42657322691144,-18.09038960244324,18.90391693308716,14.748434005489756","0","0"
"548","86","text","0","171","1513226","0-0","","","","","","","","","","","","","","","","","","","","","","","","","","","","","","","","","","","","",""
"","","plant-game","0","172","1524204","0-0","","200","120","2","CORN CROP","Left","200","120","8","NETTLE WEED","experimental","73","1,2,3,4,5,6,7,8","120,97.85365170392326,140,150.92543650889738,163.3119648807786,139.96092619157454,156.52393595851282,136.49228427863875","2,1,6,5,4,3,2,1","CORN CROP,CORN CROP,WHEAT CROP,WHEAT CROP,WHEAT CROP,WHEAT CROP,WHEAT CROP,WHEAT CROP","120,136.2710933475787,149.56151577373168,162.06987055469423,164.45360275768599,170.66379669592428,207.63963756165484,193.48001963998766","8,7,6,5,4,3,2,1","NETTLE WEED,NETTLE WEED,NETTLE WEED,NETTLE WEED,NETTLE WEED,NETTLE WEED,NETTLE WEED,NETTLE WEED","20,20,20,20,20,20,20,20","20,20,20,20,20,20,20,20","10,10,10,10,10,10,10,10","20,20,20,20,20,20,20,20","0,0,0,0,0,0,0,0","20,20,20,20,20,20,20,20","20,20,20,20,20,20,20,20","20,20,20,20,20,20,20,20","10,10,10,10,10,10,10,10","20,20,20,20,20,20,20,20","0,0,0,0,0,0,0,0","20,20,20,20,20,20,20,20","0,0,1,1,0,0,1,1","2740,675,483,444,245,306,273,360","-22.146348296076738,28.41574196371567,10.925436508897368,12.386528371881218,-23.351038689204053,16.56300976693828,-20.03165167987408,48.873061136596824","16.271093347578713,13.290422426152986,12.508354780962561,2.3837322029917463,6.210193938238291,36.97584086573057,-14.15961792166717,1.4926078025908995","0","0"
"496","86","text","0","173","1524820","0-0","","","","","","","","","","","","","","","","","","","","","","","","","","","","","","","","","","","","",""
"","","plant-game","0","174","1538235","0-0","","200","190","8","WHEAT CROP","Right","200","180","2","THISTLE WEED","experimental","74","1,2,3,4,5,6,7,8","180,201.7519045144856,140,150.05370089973212,197.7627187552642,198.4606357408549,212.64867872628525,272.29012723753556","2,1,6,5,4,3,2,1","THISTLE WEED,THISTLE WEED,NETTLE WEED,NETTLE WEED,NETTLE WEED,NETTLE WEED,NETTLE WEED,NETTLE WEED","190,178.0081137443578,182.1285045674671,203.6672078223334,254.55413708693618,244.21971565791102,263.113663025844,300.4928548886203","8,7,6,5,4,3,2,1","WHEAT CROP,WHEAT CROP,WHEAT CROP,WHEAT CROP,WHEAT CROP,WHEAT CROP,WHEAT CROP,WHEAT CROP","0,0,0,0,0,0,0,0","20,20,20,20,20,20,20,20","10,10,10,10,10,10,10,10","20,20,20,20,20,20,20,20","20,20,20,20,20,20,20,20","20,20,20,20,20,20,20,20","0,0,0,0,0,0,0,0","20,20,20,20,20,20,20,20","10,10,10,10,10,10,10,10","20,20,20,20,20,20,20,20","20,20,20,20,20,20,20,20","20,20,20,20,20,20,20,20","1,0,1,1,0,1,1,1","3415,757,660,463,881,605,551,103","21.7519045144856,6.382938788636664,10.053700899732135,47.709017855532075,0.6979169855907292,14.188042985430336,59.64144851125028,13.26822917949404","-11.991886255642214,4.120390823109316,21.5387032548663,50.88692926460278,-10.334421429025156,18.893947367932974,37.37919186277625,50.14108368882414","0","0"
"529","86","text","0","175","1538884","0-0","","","","","","","","","","","","","","","","","","","","","","","","","","","","","","","","","","","","",""
"","","plant-game","0","176","1552361","0-0","","200","180","1","CORN CROP","Right","200","160","2","NETTLE WEED","experimental","75","1,2","160,184.60985660684793","2,1","NETTLE WEED,NETTLE WEED","180,190","1,1","CORN CROP,WHEAT CROP","0,0","20,20","10,10","20,20","20,20","20,20","0,0","20,20","10,10","20,20","20,20","20,20","1,0","4297,1743","24.609856606847924,-9.361401669675951","16.64605105185407,35.76141124870552","0","0"
"978","86","text","0","177","1553508","0-0","","","","","","","","","","","","","","","","","","","","","","","","","","","","","","","","","","","","",""
"","","plant-game","0","178","1565794","0-0","","200","160","8","CORN CROP","Left","200","180","4","THISTLE WEED","experimental","76","1,2,3,4,5,6,7,8","160,129.4959787399889,150.6413084572186,164.82833669735652,174.34994862677988,175.36934690000953,195.61404800482777,229.19343872336287","8,7,6,5,4,3,2,1","CORN CROP,CORN CROP,CORN CROP,CORN CROP,CORN CROP,CORN CROP,CORN CROP,CORN CROP","180,199.9853507970819,198.56453986524025,228.4143246814421,160,214.19005193318628,202.12764388935656,210.92952194281813","4,3,2,1,4,3,2,1","THISTLE WEED,THISTLE WEED,THISTLE WEED,THISTLE WEED,NETTLE WEED,NETTLE WEED,NETTLE WEED,NETTLE WEED","20,20,20,20,20,20,20,20","20,20,20,20,20,20,20,20","10,10,10,10,10,10,10,10","20,20,20,20,20,20,20,20","0,0,0,0,0,0,0,0","20,20,20,20,20,20,20,20","20,20,20,20,20,20,20,20","20,20,20,20,20,20,20,20","10,10,10,10,10,10,10,10","20,20,20,20,20,20,20,20","0,0,0,0,0,0,0,0","20,20,20,20,20,20,20,20","1,0,0,0,0,0,0,0","4111,481,390,623,311,65,56,57","-30.504021260011086,21.145329717229693,14.18702824013793,9.521611929423354,1.0193982732296654,20.244701104818244,33.579390718535095,5.408166207127296","19.985350797081907,-1.4208109318416575,29.84978481620187,6.643218243131436,54.19005193318629,-12.062408043829727,8.801878053461564,-5.1844115138336555","0","0"
"590","86","text","0","179","1566491","0-0","","","","","","","","","","","","","","","","","","","","","","","","","","","","","","","","","","","","",""
"","","plant-game","0","180","1578737","0-0","","200","160","4","WHEAT CROP","Left","200","120","1","THISTLE WEED","experimental","77","1,2,3,4","160,171.51107511057992,189.51422273554894,171.2713076650533","4,3,2,1","WHEAT CROP,WHEAT CROP,WHEAT CROP,WHEAT CROP","120,170,194.52460513722474,201.50061504885278","1,3,2,1","THISTLE WEED,NETTLE WEED,NETTLE WEED,NETTLE WEED","20,20,20,20","20,20,20,20","10,10,10,10","20,20,20,20","0,0,0,0","20,20,20,20","20,20,20,20","20,20,20,20","10,10,10,10","20,20,20,20","0,0,0,0","20,20,20,20","0,0,1,1","1774,2664,584,497","11.511075110579931,18.003147624969024,-18.242915070495613,-15.920712884996274","4.317865012669275,24.524605137224725,6.9760099116280285,29.87177477920706","0","0"
"571","86","text","0","181","1579443","0-0","","","","","","","","","","","","","","","","","","","","","","","","","","","","","","","","","","","","",""
"","","plant-game","0","182","1589971","0-0","","200","180","4","CORN CROP","Left","200","190","2","NETTLE WEED","experimental","78","1,2,3,4","180,220.88636287721502,272.36198141969265,326.84691165503455","4,3,2,1","CORN CROP,CORN CROP,CORN CROP,CORN CROP","190,184.59367330961496,180,197.13255743395897","2,1,2,1","NETTLE WEED,NETTLE WEED,THISTLE WEED,THISTLE WEED","20,20,20,20","20,20,20,20","10,10,10,10","20,20,20,20","0,0,0,0","20,20,20,20","20,20,20,20","20,20,20,20","10,10,10,10","20,20,20,20","0,0,0,0","20,20,20,20","0,0,0,0","1494,1176,991,857","40.88636287721502,51.47561854247763,54.484930235341906,34.5220630269329","-5.406326690385047,-13.358796723616209,17.13255743395897,21.853995035999205","0","0"
"533","86","text","0","183","1590655","0-0","","","","","","","","","","","","","","","","","","","","","","","","","","","","","","","","","","","","",""
"","","plant-game","0","184","1607400","0-0","","200","160","8","CORN CROP","Left","200","190","1","NETTLE WEED","experimental","79","1,2,3,4,5,6,7,8","160,186.96024422123946,182.41067029759708,205.61979745323623,241.1548251481875,278.8933529757696,232.65938824005192,242.45650825589613","8,7,6,5,4,3,2,1","CORN CROP,CORN CROP,CORN CROP,CORN CROP,CORN CROP,CORN CROP,CORN CROP,CORN CROP","190,130,132.59019810948925,169.7468377124233,174.05426175886208,206.23002562124344,229.05904563375228,229.24320168526128","1,7,6,5,4,3,2,1","NETTLE WEED,THISTLE WEED,THISTLE WEED,THISTLE WEED,THISTLE WEED,THISTLE WEED,THISTLE WEED,THISTLE WEED","20,20,20,20,20,20,20,20","20,20,20,20,20,20,20,20","10,10,10,10,10,10,10,10","20,20,20,20,20,20,20,20","0,0,0,0,0,0,0,0","20,20,20,20,20,20,20,20","20,20,20,20,20,20,20,20","20,20,20,20,20,20,20,20","10,10,10,10,10,10,10,10","20,20,20,20,20,20,20,20","0,0,0,0,0,0,0,0","20,20,20,20,20,20,20,20","0,1,0,1,0,1,1,1","3926,790,864,2278,808,594,365,337","26.960244221239453,-4.549573923642386,23.209127155639155,35.53502769495128,37.73852782758206,-46.233964735717656,9.7971200158442,-19.65083944721386","33.04091835440979,2.590198109489246,37.156639602934035,4.307424046438806,32.175763862381345,22.829020012508824,0.18415605150899245,24.545872552956002","0","0"
"656","86","text","0","185","1608206","0-0","","","","","","","","","","","","","","","","","","","","","","","","","","","","","","","","","","","","",""
"","","plant-game","0","186","1625427","0-0","","200","180","1","WHEAT CROP","Right","200","160","8","THISTLE WEED","experimental","80","1,2,3,4,5,6,7,8","160,148.53903188649468,139.04583549709295,125.28089414235973,142.48215755286677,176.74327326036783,192.9986076703269,194.8280667763475","8,7,6,5,4,3,2,1","THISTLE WEED,THISTLE WEED,THISTLE WEED,THISTLE WEED,THISTLE WEED,THISTLE WEED,THISTLE WEED,THISTLE WEED","180,130,117.77118695936382,148.01701579039712,163.0556910625119,186.55444226806938,251.78685129495423,296.2002305151445","1,7,6,5,4,3,2,1","WHEAT CROP,CORN CROP,CORN CROP,CORN CROP,CORN CROP,CORN CROP,CORN CROP,CORN CROP","0,0,0,0,0,0,0,0","20,20,20,20,20,20,20,20","10,10,10,10,10,10,10,10","20,20,20,20,20,20,20,20","20,20,20,20,20,20,20,20","20,20,20,20,20,20,20,20","0,0,0,0,0,0,0,0","20,20,20,20,20,20,20,20","10,10,10,10,10,10,10,10","20,20,20,20,20,20,20,20","20,20,20,20,20,20,20,20","20,20,20,20,20,20,20,20","0,0,0,1,1,1,1,1","2126,527,494,33,282,311,3481,1730","-11.460968113505315,-9.493196389401728,-13.764941354733228,17.201263410507035,34.261115707501055,16.255334409959065,1.829459106020618,19.417498595248336","-4.705814616806655,-12.228813040636187,30.245828831033293,15.038675272114778,23.498751205557475,65.23240902688485,44.41337922019024,25.998286898198067","0","0"
"715","86","text","0","187","1626302","0-0","","","","","","","","","","","","","","","","","","","","","","","","","","","","","","","","","","","","",""
"","","plant-game","0","188","1635685","0-0","","200","190","2","CORN CROP","Right","200","120","1","NETTLE WEED","experimental","81","1,2","120,190","1,1","NETTLE WEED,THISTLE WEED","190,210.15702587819942","2,1","CORN CROP,CORN CROP","0,0","20,20","10,10","20,20","20,20","20,20","0,0","20,20","10,10","20,20","20,20","20,20","1,0","1507,1729","17.836116027310926,-33.987597203224794","20.15702587819943,-0.45229677967700743","0","0"
"1877","86","text","0","189","1637792","0-0","","","","","","","","","","","","","","","","","","","","","","","","","","","","","","","","","","","","",""
"","","plant-game","0","190","1659332","0-0","","200","180","8","CORN CROP","Left","200","190","4","NETTLE WEED","experimental","82","1,2,3,4,5,6,7,8","180,178.76225346670833,196.51055339409078,232.2765688739207,232.41484662289903,284.882346439782,285.33084365973116,297.56836111387736","8,7,6,5,4,3,2,1","CORN CROP,CORN CROP,CORN CROP,CORN CROP,CORN CROP,CORN CROP,CORN CROP,CORN CROP","190,175.47765494622752,203.23640813352037,201.93867638466116,160,175.80538992438437,169.05658063313632,201.4584040976992","4,3,2,1,4,3,2,1","NETTLE WEED,NETTLE WEED,NETTLE WEED,NETTLE WEED,THISTLE WEED,THISTLE WEED,THISTLE WEED,THISTLE WEED","20,20,20,20,20,20,20,20","20,20,20,20,20,20,20,20","10,10,10,10,10,10,10,10","20,20,20,20,20,20,20,20","0,0,0,0,0,0,0,0","20,20,20,20,20,20,20,20","20,20,20,20,20,20,20,20","20,20,20,20,20,20,20,20","10,10,10,10,10,10,10,10","20,20,20,20,20,20,20,20","0,0,0,0,0,0,0,0","20,20,20,20,20,20,20,20","1,1,1,1,0,1,0,1","5902,1337,743,890,2071,1396,590,526","-1.2377465332916702,17.748299927382444,35.76601547982991,0.138277748978343,52.467499816882956,0.4484972199491455,12.237517454146204,-45.599463224064294","-14.52234505377249,27.75875318729286,-1.297731748859208,-7.767573292519691,15.80538992438436,-6.7488092912480475,32.40182346456288,7.913813356641782","0","0"
"456","86","text","0","191","1659888","0-0","","","","","","","","","","","","","","","","","","","","","","","","","","","","","","","","","","","","",""
"","","plant-game","0","192","1674070","0-0","","200","180","4","WHEAT CROP","Left","200","190","1","THISTLE WEED","experimental","83","1,2,3,4","180,210.286194058771,265.40638223504214,263.0792552627832","4,3,2,1","WHEAT CROP,WHEAT CROP,WHEAT CROP,WHEAT CROP","190,170,217.94356486479114,213.4442057925761","1,3,2,1","THISTLE WEED,NETTLE WEED,NETTLE WEED,NETTLE WEED","20,20,20,20","20,20,20,20","10,10,10,10","20,20,20,20","0,0,0,0","20,20,20,20","20,20,20,20","20,20,20,20","10,10,10,10","20,20,20,20","0,0,0,0","20,20,20,20","0,0,1,1","3063,3691,714,312","30.28619405877101,55.120188176271164,-2.327126972258941,10.890119226316191","5.804451772804661,47.94356486479113,-4.499359072215055,-9.65451861256653","0","0"
"557","86","text","0","193","1674742","0-0","","","","","","","","","","","","","","","","","","","","","","","","","","","","","","","","","","","","",""
"","","plant-game","0","194","1688366","0-0","","200","160","8","CORN CROP","Left","200","190","2","THISTLE WEED","experimental","84","1,2,3,4,5,6,7,8","160,174.54717574898027,142.76478044489932,151.74863330940585,152.04031572271944,188.4281515105506,166.04100930753503,177.26122741579113","8,7,6,5,4,3,2,1","CORN CROP,CORN CROP,CORN CROP,CORN CROP,CORN CROP,CORN CROP,CORN CROP,CORN CROP","190,218.82866019796677,140,203.06336689854385,196.84785517379999,188.34237549526497,193.80430855591683,235.36024880775943","2,1,6,5,4,3,2,1","THISTLE WEED,THISTLE WEED,NETTLE WEED,NETTLE WEED,NETTLE WEED,NETTLE WEED,NETTLE WEED,NETTLE WEED","20,20,20,20,20,20,20,20","20,20,20,20,20,20,20,20","10,10,10,10,10,10,10,10","20,20,20,20,20,20,20,20","0,0,0,0,0,0,0,0","20,20,20,20,20,20,20,20","20,20,20,20,20,20,20,20","20,20,20,20,20,20,20,20","10,10,10,10,10,10,10,10","20,20,20,20,20,20,20,20","0,0,0,0,0,0,0,0","20,20,20,20,20,20,20,20","0,1,0,1,1,1,0,0","1626,600,952,1446,507,385,1233,1370","14.547175748980258,-31.782395304080953,8.983852864506538,0.2916824133136003,36.38783578783115,-22.387142203015564,11.220218108256091,12.977330081036106","28.828660197966762,10.010348394927899,63.06336689854383,-6.215511724743873,-8.505479678535014,5.461933060651849,41.5559402518426,41.76347508972206","0","0"
"484","86","text","0","195","1688976","0-0","","","","","","","","","","","","","","","","","","","","","","","","","","","","","","","","","","","","",""
