"rt","key_press","trial_type","trial_index","trial_index_global","time_elapsed","internal_chunk_id","responses","experimental_goal_height","experimental_start_height","experimental_weeks_total","experimental_crop_type","experimental_crop_side","fixed_goal_height","fixed_start_height","fixed_weeks_total","fixed_crop_type","trial_kind","trial_number","stage","left_current_height","left_weeks_remaining","left_crop_type","right_current_height","right_weeks_remaining","right_crop_type","mean_left_growth_given_left","sd_left_growth_given_left","mean_left_growth_given_middle","sd_left_growth_given_middle","mean_left_growth_given_right","sd_left_growth_given_right","mean_right_growth_given_left","sd_right_growth_given_left","mean_right_growth_given_middle","sd_right_growth_given_middle","mean_right_growth_given_right","sd_right_growth_given_right","response","response_time","left_growth","right_growth","other_key_pressed","mouse_clicked"
"11032530","77","text","0","0","11032610","0-0","","","","","","","","","","","","","","","","","","","","","","","","","","","","","","","","","","","","",""
"6317","","survey-text","0","1","11039950","0-0","{""Q0"":""19""}","","","","","","","","","","","","","","","","","","","","","","","","","","","","","","","","","","","",""
"3033","86","text","0","2","3111","0-0","","","","","","","","","","","","","","","","","","","","","","","","","","","","","","","","","","","","",""
"","","plant-game","0","3","51403","0-0","","200","120","8","CORN CROP","Left","200","120","8","NETTLE WEED","practice","1","1,2,3,4,5,6,7,8","120,180.46754499015384,203.87098969925734,220.26519872241272,216.76119562135818,212.5910782646696,182.19564831706552,193.5893584481089","8,7,6,5,4,3,2,1","CORN CROP,CORN CROP,CORN CROP,CORN CROP,CORN CROP,CORN CROP,CORN CROP,CORN CROP","120,137.69450144450585,140.80471146297435,118.87581183229486,141.77067510019947,138.3378545344025,144.02602445230858,156.9576483804684","8,7,6,5,4,3,2,1","NETTLE WEED,NETTLE WEED,NETTLE WEED,NETTLE WEED,NETTLE WEED,NETTLE WEED,NETTLE WEED,NETTLE WEED","20,20,20,20,20,20,20,20","20,20,20,20,20,20,20,20","10,10,10,10,10,10,10,10","20,20,20,20,20,20,20,20","0,0,0,0,0,0,0,0","20,20,20,20,20,20,20,20","20,20,20,20,20,20,20,20","20,20,20,20,20,20,20,20","10,10,10,10,10,10,10,10","20,20,20,20,20,20,20,20","0,0,0,0,0,0,0,0","20,20,20,20,20,20,20,20","0,0,1,1,1,1,0,0","3555,3446,2917,1738,1001,998,2807,2759","60.46754499015385,23.403444709103493,16.394209023155383,-3.504003101054547,-4.170117356688584,-30.39542994760406,11.393710131043386,23.402849954517308","17.694501444505857,3.110210018468514,-21.9288996306795,22.894863267904615,-3.432820565796954,5.688169917906054,12.931623928159835,31.52551920297188","0","0"
"802","86","text","0","4","52295","0-0","","","","","","","","","","","","","","","","","","","","","","","","","","","","","","","","","","","","",""
"","","plant-game","0","5","77838","0-0","","200","160","4","CORN CROP","Left","200","160","4","NETTLE WEED","practice","2","1,2,3,4","160,158.70038361567111,209.688566118015,202.7171066019252","4,3,2,1","CORN CROP,CORN CROP,CORN CROP,CORN CROP","160,151.81321817855473,170.01513458247177,181.29662102223114","4,3,2,1","NETTLE WEED,NETTLE WEED,NETTLE WEED,NETTLE WEED","20,20,20,20","20,20,20,20","10,10,10,10","20,20,20,20","0,0,0,0","20,20,20,20","20,20,20,20","20,20,20,20","10,10,10,10","20,20,20,20","0,0,0,0","20,20,20,20","0,0,1,1","2897,983,2819,1181","-1.2996163843288713,50.98818250234386,-6.971459516089789,-22.928298632914114","-8.186781821445269,18.201916403917046,11.281486439759377,28.897028659116955","0","0"
"655","86","text","0","6","78573","0-0","","","","","","","","","","","","","","","","","","","","","","","","","","","","","","","","","","","","",""
"","","plant-game","0","7","102290","0-0","","200","180","2","WHEAT CROP","Right","200","180","2","NETTLE WEED","practice","3","1,2","180,200.29000340335799","2,1","NETTLE WEED,NETTLE WEED","180,179.68824518600738","2,1","WHEAT CROP,WHEAT CROP","0,0","20,20","10,10","20,20","20,20","20,20","0,0","20,20","10,10","20,20","20,20","20,20","1,0","1752,5353","20.29000340335798,-24.548396574298835","-0.3117548139926143,1.9485074639869568","0","0"
"797","86","text","0","8","103167","0-0","","","","","","","","","","","","","","","","","","","","","","","","","","","","","","","","","","","","",""
"","","plant-game","0","9","118391","0-0","","200","190","1","CORN CROP","Right","200","190","1","NETTLE WEED","practice","4","1","190","1","NETTLE WEED","190","1","CORN CROP","0","20","10","20","20","20","0","20","10","20","20","20","1","2711","55.52443951813182","13.804784371250715","0","0"
"753","86","text","0","10","119244","0-0","","","","","","","","","","","","","","","","","","","","","","","","","","","","","","","","","","","","",""
"","","plant-game","0","11","145262","0-0","","200","120","8","CORN CROP","Right","200","160","8","THISTLE WEED","practice","5","1,2,3,4,5,6,7,8","160,151.4012265772423,137.14012293312487,153.59654023142485,173.6533723478547,196.6588699188003,217.48976851669818,198.95995357844737","8,7,6,5,4,3,2,1","THISTLE WEED,THISTLE WEED,THISTLE WEED,THISTLE WEED,THISTLE WEED,THISTLE WEED,THISTLE WEED,THISTLE WEED","120,110.58424854443265,120.01276133913503,141.9508680764468,116.78533739250778,105.15942320565138,108.48486572777918,118.33384729295182","8,7,6,5,4,3,2,1","CORN CROP,CORN CROP,CORN CROP,CORN CROP,CORN CROP,CORN CROP,CORN CROP,CORN CROP","0,0,0,0,0,0,0,0","20,20,20,20,20,20,20,20","10,10,10,10,10,10,10,10","20,20,20,20,20,20,20,20","20,20,20,20,20,20,20,20","20,20,20,20,20,20,20,20","0,0,0,0,0,0,0,0","20,20,20,20,20,20,20,20","10,10,10,10,10,10,10,10","20,20,20,20,20,20,20,20","20,20,20,20,20,20,20,20","20,20,20,20,20,20,20,20","0,0,1,0,0,0,0,0","1444,853,1383,1332,1889,2092,955,2357","-8.598773422757693,-14.261103644117433,16.456417298299975,20.05683211642986,23.005497570945575,20.830898597897885,-18.529814938250816,2.210668624155401","-9.415751455567353,9.42851279470237,21.938106737311784,-25.165530683939018,-11.6259141868564,3.325442522127795,9.84898156517264,41.276086843060966","0","0"
"585","86","text","0","12","145924","0-0","","","","","","","","","","","","","","","","","","","","","","","","","","","","","","","","","","","","",""
"","","plant-game","0","13","167959","0-0","","200","180","4","CORN CROP","Right","200","160","4","THISTLE WEED","practice","6","1,2,3,4","160,177.57191193497067,193.4744822567354,179.00918096180106","4,3,2,1","THISTLE WEED,THISTLE WEED,THISTLE WEED,THISTLE WEED","180,204.73273199473454,203.12064972126822,168.27864183978522","4,3,2,1","CORN CROP,CORN CROP,CORN CROP,CORN CROP","0,0,0,0","20,20,20,20","10,10,10,10","20,20,20,20","20,20,20,20","20,20,20,20","0,0,0,0","20,20,20,20","10,10,10,10","20,20,20,20","20,20,20,20","20,20,20,20","0,0,0,1","1841,1273,1574,1468","17.571911934970665,15.902570321764724,-14.465301294934331,32.14688773619085","24.73273199473452,-1.6120822734663243,-34.84200788148301,30.524339377640715","0","0"
"677","86","text","0","14","168719","0-0","","","","","","","","","","","","","","","","","","","","","","","","","","","","","","","","","","","","",""
"","","plant-game","0","15","182465","0-0","","200","180","2","CORN CROP","Left","200","190","2","NETTLE WEED","practice","7","1,2","180,179.56652103814898","2,1","CORN CROP,CORN CROP","190,239.3635986748078","2,1","NETTLE WEED,NETTLE WEED","20,20","20,20","10,10","20,20","0,0","20,20","20,20","20,20","10,10","20,20","0,0","20,20","0,0","350,1111","-0.4334789618510335,10.449094151412849","49.36359867480779,28.249014193302422","0","0"
"554","86","text","0","16","183116","0-0","","","","","","","","","","","","","","","","","","","","","","","","","","","","","","","","","","","","",""
"","","plant-game","0","17","216393","0-0","","200","120","4","CORN CROP","Left","200","120","8","THISTLE WEED","practice","8","1,2,3,4,5,6,7,8","120,164.61996375938506,205.68735481937648,231.18102210378606,160,189.65375919522717,225.40814007097137,205.30231083399934","4,3,2,1,4,3,2,1","CORN CROP,CORN CROP,CORN CROP,CORN CROP,WHEAT CROP,WHEAT CROP,WHEAT CROP,WHEAT CROP","120,146.42791129562187,135.1094997021692,170.8894242502688,166.5403066482,204.4931067463732,214.32628647161206,223.26699848239377","8,7,6,5,4,3,2,1","THISTLE WEED,THISTLE WEED,THISTLE WEED,THISTLE WEED,THISTLE WEED,THISTLE WEED,THISTLE WEED,THISTLE WEED","20,20,20,20,20,20,20,20","20,20,20,20,20,20,20,20","10,10,10,10,10,10,10,10","20,20,20,20,20,20,20,20","0,0,0,0,0,0,0,0","20,20,20,20,20,20,20,20","20,20,20,20,20,20,20,20","20,20,20,20,20,20,20,20","10,10,10,10,10,10,10,10","20,20,20,20,20,20,20,20","0,0,0,0,0,0,0,0","20,20,20,20,20,20,20,20","0,0,0,1,0,0,1,1","2787,1056,2402,2520,1392,1987,1231,1928","44.61996375938505,41.06739105999142,25.493667284409593,13.262307682316463,29.65375919522716,35.754380875744204,-20.105829236972017,21.750302087735932","26.427911295621882,-11.318411593452673,35.77992454809963,-4.349117602068818,37.952800098173206,9.833179725238876,8.940712010781713,25.897354956212872","0","0"
"597","86","text","0","18","217100","0-0","","","","","","","","","","","","","","","","","","","","","","","","","","","","","","","","","","","","",""
"","","plant-game","0","19","242413","0-0","","200","160","4","WHEAT CROP","Left","200","160","2","NETTLE WEED","practice","9","1,2,3,4","160,156.52679709807856,178.46080500340622,187.2582576648491","4,3,2,1","WHEAT CROP,WHEAT CROP,WHEAT CROP,WHEAT CROP","160,176.9629246584068,180,196.7270162179534","2,1,2,1","NETTLE WEED,NETTLE WEED,THISTLE WEED,THISTLE WEED","20,20,20,20","20,20,20,20","10,10,10,10","20,20,20,20","0,0,0,0","20,20,20,20","20,20,20,20","20,20,20,20","10,10,10,10","20,20,20,20","0,0,0,0","20,20,20,20","0,0,0,0","623,439,1282,1463","-3.4732029019214465,21.934007905327654,8.797452661442888,5.217746375719692","16.962924658406806,23.123607617665392,16.727016217953402,45.67937893687081","0","0"
"732","86","text","0","20","243211","0-0","","","","","","","","","","","","","","","","","","","","","","","","","","","","","","","","","","","","",""
"","","plant-game","0","21","263400","0-0","","200","180","2","CORN CROP","Right","200","180","1","NETTLE WEED","practice","10","1,2","180,190","1,1","NETTLE WEED,THISTLE WEED","180,141.5291325876693","2,1","CORN CROP,CORN CROP","0,0","20,20","10,10","20,20","20,20","20,20","0,0","20,20","10,10","20,20","20,20","20,20","0,1","554,1443","8.827941990690318,40.620856027139396","-38.4708674123307,42.09432527539393","0","0"
"638","86","text","0","22","264118","0-0","","","","","","","","","","","","","","","","","","","","","","","","","","","","","","","","","","","","",""
"","","plant-game","0","23","293656","0-0","","200","120","8","WHEAT CROP","Left","200","160","4","THISTLE WEED","practice","11","1,2,3,4,5,6,7,8","120,131.84026210515657,139.3213419082501,131.39482405369853,115.51950075669343,130.50691759844796,169.1262644502069,152.87663345090306","8,7,6,5,4,3,2,1","WHEAT CROP,WHEAT CROP,WHEAT CROP,WHEAT CROP,WHEAT CROP,WHEAT CROP,WHEAT CROP,WHEAT CROP","160,173.31252252284776,169.33842165046434,153.15500316972125,160,180.47247472574404,215.53646725479422,233.36334989261084","4,3,2,1,4,3,2,1","THISTLE WEED,THISTLE WEED,THISTLE WEED,THISTLE WEED,NETTLE WEED,NETTLE WEED,NETTLE WEED,NETTLE WEED","20,20,20,20,20,20,20,20","20,20,20,20,20,20,20,20","10,10,10,10,10,10,10,10","20,20,20,20,20,20,20,20","0,0,0,0,0,0,0,0","20,20,20,20,20,20,20,20","20,20,20,20,20,20,20,20","20,20,20,20,20,20,20,20","10,10,10,10,10,10,10,10","20,20,20,20,20,20,20,20","0,0,0,0,0,0,0,0","20,20,20,20,20,20,20,20","1,1,1,1,0,0,0,0","423,818,1885,767,1298,825,2059,601","11.84026210515658,7.481079803093529,-7.92651785455159,-15.875323297005098,14.987416841754516,38.619346851758934,-16.249630999303847,27.663330489668205","13.312522522847768,-3.974100872383415,-16.183418480743086,1.0342884846246114,20.472474725744036,35.063992529050196,17.826882637816617,-10.659250834311376","0","0"
"490","86","text","0","24","294246","0-0","","","","","","","","","","","","","","","","","","","","","","","","","","","","","","","","","","","","",""
"","","plant-game","0","25","318070","0-0","","200","180","2","CORN CROP","Left","200","160","4","THISTLE WEED","practice","12","1,2,3,4","180,220.02524198743725,180,200.64993194815384","2,1,2,1","CORN CROP,CORN CROP,WHEAT CROP,WHEAT CROP","160,204.92656206786427,231.43166713366674,205.34164800834702","4,3,2,1","THISTLE WEED,THISTLE WEED,THISTLE WEED,THISTLE WEED","20,20,20,20","20,20,20,20","10,10,10,10","20,20,20,20","0,0,0,0","20,20,20,20","20,20,20,20","20,20,20,20","10,10,10,10","20,20,20,20","0,0,0,0","20,20,20,20","0,1,0,1","477,2438,2500,1566","40.02524198743727,2.480934337193949,20.64993194815385,-18.168544333778126","44.92656206786428,26.505105065802475,-26.090019125319714,-9.45566925725631","0","0"
"1112","86","text","0","26","319272","0-0","","","","","","","","","","","","","","","","","","","","","","","","","","","","","","","","","","","","",""
"10819","86","text","0","27","331185","0-0","","","","","","","","","","","","","","","","","","","","","","","","","","","","","","","","","","","","",""
"","","plant-game","0","28","354494","0-0","","200","120","4","WHEAT CROP","Left","200","160","2","NETTLE WEED","experimental","1","1,2,3,4","120,111.63933778421057,122.97773747145477,89.30450063112488","4,3,2,1","WHEAT CROP,WHEAT CROP,WHEAT CROP,WHEAT CROP","160,145.8450273648715,180,192.61688950775527","2,1,2,1","NETTLE WEED,NETTLE WEED,THISTLE WEED,THISTLE WEED","20,20,20,20","20,20,20,20","10,10,10,10","20,20,20,20","0,0,0,0","20,20,20,20","20,20,20,20","20,20,20,20","10,10,10,10","20,20,20,20","0,0,0,0","20,20,20,20","1,1,1,1","5621,3005,4251,3701","-8.360662215789429,11.338399687244207,-33.67323684032989,-31.004424009327863","-14.154972635128493,-39.2960073459099,12.616889507755287,13.096011359559292","0","0"
"728","86","text","0","29","355328","0-0","","","","","","","","","","","","","","","","","","","","","","","","","","","","","","","","","","","","",""
"","","plant-game","0","30","371934","0-0","","200","160","4","WHEAT CROP","Left","200","180","2","NETTLE WEED","experimental","2","1,2,3,4","160,198.06159661553875,211.19785871201822,233.97813830996964","4,3,2,1","WHEAT CROP,WHEAT CROP,WHEAT CROP,WHEAT CROP","180,221.763972416144,180,161.98167827141413","2,1,2,1","NETTLE WEED,NETTLE WEED,THISTLE WEED,THISTLE WEED","20,20,20,20","20,20,20,20","10,10,10,10","20,20,20,20","0,0,0,0","20,20,20,20","20,20,20,20","20,20,20,20","10,10,10,10","20,20,20,20","0,0,0,0","20,20,20,20","0,1,0,1","3525,1915,3135,1331","38.061596615538754,13.136262096479467,22.780279597951427,-13.038578086321326","41.76397241614397,15.333851375528962,-18.01832172858588,-5.957293794050647","0","0"
"601","86","text","0","31","372625","0-0","","","","","","","","","","","","","","","","","","","","","","","","","","","","","","","","","","","","",""
"","","plant-game","0","32","389909","0-0","","200","180","1","WHEAT CROP","Right","200","160","4","NETTLE WEED","experimental","3","1,2,3,4","160,183.2572141150984,193.26524974309055,195.37699221615657","4,3,2,1","NETTLE WEED,NETTLE WEED,NETTLE WEED,NETTLE WEED","180,170,170.29597940279336,162.4580740921245","1,3,2,1","WHEAT CROP,CORN CROP,CORN CROP,CORN CROP","0,0,0,0","20,20,20,20","10,10,10,10","20,20,20,20","20,20,20,20","20,20,20,20","0,0,0,0","20,20,20,20","10,10,10,10","20,20,20,20","20,20,20,20","20,20,20,20","1,1,0,0","3677,4400,1258,1797","23.2572141150984,10.008035627992147,2.1117424730660215,-10.208889846201394","28.637977047505743,0.2959794027933711,-7.837905310668876,-32.15624358427936","0","0"
"521","86","text","0","33","390510","0-0","","","","","","","","","","","","","","","","","","","","","","","","","","","","","","","","","","","","",""
"","","plant-game","0","34","419507","0-0","","200","180","4","CORN CROP","Right","200","160","8","NETTLE WEED","experimental","4","1,2,3,4,5,6,7,8","160,210.18901512878008,221.22082964165196,221.3874149608859,237.50973479979257,228.39226861347527,272.6094571237693,297.71510900565886","8,7,6,5,4,3,2,1","NETTLE WEED,NETTLE WEED,NETTLE WEED,NETTLE WEED,NETTLE WEED,NETTLE WEED,NETTLE WEED,NETTLE WEED","180,204.10974911583656,251.5149419637632,299.3166286373233,160,154.3169189649012,137.0303162363328,140.83002195793267","4,3,2,1,4,3,2,1","CORN CROP,CORN CROP,CORN CROP,CORN CROP,WHEAT CROP,WHEAT CROP,WHEAT CROP,WHEAT CROP","0,0,0,0,0,0,0,0","20,20,20,20,20,20,20,20","10,10,10,10,10,10,10,10","20,20,20,20,20,20,20,20","20,20,20,20,20,20,20,20","20,20,20,20,20,20,20,20","0,0,0,0,0,0,0,0","20,20,20,20,20,20,20,20","10,10,10,10,10,10,10,10","20,20,20,20,20,20,20,20","20,20,20,20,20,20,20,20","20,20,20,20,20,20,20,20","1,1,1,0,1,1,1,1","5155,1506,1853,1433,7364,444,3296,506","50.189015128780085,11.031814512871879,0.16658531923394193,16.122319838906677,-9.117466186317301,44.21718851029401,25.105651881889546,13.131419619714977","24.10974911583658,47.40519284792663,47.8016866735601,12.135481542279463,-5.683081035098809,-17.286602728568404,3.7997057215998673,21.449314448813276","0","0"
"514","86","text","0","35","420114","0-0","","","","","","","","","","","","","","","","","","","","","","","","","","","","","","","","","","","","",""
"","","plant-game","0","36","429975","0-0","","200","120","1","CORN CROP","Left","200","190","1","THISTLE WEED","experimental","5","1","120","1","CORN CROP","190","1","THISTLE WEED","20","20","10","20","0","20","20","20","10","20","0","20","1","5689","-5.13542748273525","-2.5674082395469666","0","0"
"492","86","text","0","37","430576","0-0","","","","","","","","","","","","","","","","","","","","","","","","","","","","","","","","","","","","",""
"","","plant-game","0","38","451665","0-0","","200","160","8","WHEAT CROP","Right","200","160","4","THISTLE WEED","experimental","6","1,2,3,4,5,6,7,8","160,141.04599808501507,145.41743577976587,180.27170483799122,160,173.86603755578278,186.10148699973263,221.65176172536007","4,3,2,1,4,3,2,1","THISTLE WEED,THISTLE WEED,THISTLE WEED,THISTLE WEED,NETTLE WEED,NETTLE WEED,NETTLE WEED,NETTLE WEED","160,126.37379199401379,131.52090964063416,122.42025069514676,115.00881104738205,89.77760482282515,81.8798438097939,70.90035800242994","8,7,6,5,4,3,2,1","WHEAT CROP,WHEAT CROP,WHEAT CROP,WHEAT CROP,WHEAT CROP,WHEAT CROP,WHEAT CROP,WHEAT CROP","0,0,0,0,0,0,0,0","20,20,20,20,20,20,20,20","10,10,10,10,10,10,10,10","20,20,20,20,20,20,20,20","20,20,20,20,20,20,20,20","20,20,20,20,20,20,20,20","0,0,0,0,0,0,0,0","20,20,20,20,20,20,20,20","10,10,10,10,10,10,10,10","20,20,20,20,20,20,20,20","20,20,20,20,20,20,20,20","20,20,20,20,20,20,20,20","0,1,1,0,1,0,0,0","3580,1670,1660,834,2535,1384,595,1191","-18.954001914984943,4.3714376947507905,34.85426905822535,37.09087823362738,13.866037555782778,12.235449443949841,35.55027472562743,26.188969599995062","-33.626208005986214,5.147117646620371,-9.100658945487396,-7.411439647764705,-25.2312062245569,-7.897761013031256,-10.979485807363954,16.99842708664698","0","0"
"504","86","text","0","39","452279","0-0","","","","","","","","","","","","","","","","","","","","","","","","","","","","","","","","","","","","",""
"","","plant-game","0","40","473169","0-0","","200","160","4","CORN CROP","Right","200","160","8","NETTLE WEED","experimental","7","1,2,3,4,5,6,7,8","160,197.63849344769432,174.93422269131014,181.9148891459973,180.60258677746185,206.40501246318826,195.80090806181585,185.3880048903727","8,7,6,5,4,3,2,1","NETTLE WEED,NETTLE WEED,NETTLE WEED,NETTLE WEED,NETTLE WEED,NETTLE WEED,NETTLE WEED,NETTLE WEED","160,213.92078779094135,239.9879548864242,240.39068390277984,160,143.35727167882268,131.95658309585153,135.7488322027901","4,3,2,1,4,3,2,1","CORN CROP,CORN CROP,CORN CROP,CORN CROP,WHEAT CROP,WHEAT CROP,WHEAT CROP,WHEAT CROP","0,0,0,0,0,0,0,0","20,20,20,20,20,20,20,20","10,10,10,10,10,10,10,10","20,20,20,20,20,20,20,20","20,20,20,20,20,20,20,20","20,20,20,20,20,20,20,20","0,0,0,0,0,0,0,0","20,20,20,20,20,20,20,20","10,10,10,10,10,10,10,10","20,20,20,20,20,20,20,20","20,20,20,20,20,20,20,20","20,20,20,20,20,20,20,20","1,1,0,0,1,0,0,0","2128,3124,1274,467,4661,1563,906,482","37.638493447694316,-22.70427075638417,6.98066645468718,-1.31230236853545,25.80242568572642,-10.60410440137241,-10.412903171443126,25.700449595013172","53.92078779094135,26.06716709548286,0.4027290163556395,-10.250049508643265,-16.64272832117731,-11.40068858297116,3.7922491069385704,17.965958074124792","0","0"
"458","86","text","0","41","473707","0-0","","","","","","","","","","","","","","","","","","","","","","","","","","","","","","","","","","","","",""
"","","plant-game","0","42","485920","0-0","","200","180","8","CORN CROP","Left","200","190","8","NETTLE WEED","experimental","8","1,2,3,4,5,6,7,8","180,163.7936821442293,172.51647857584808,140.96655772770492,138.87602767196503,129.40397496525966,80.34507530977736,132.22955996671362","8,7,6,5,4,3,2,1","CORN CROP,CORN CROP,CORN CROP,CORN CROP,CORN CROP,CORN CROP,CORN CROP,CORN CROP","190,198.4569629407614,201.72372409683416,193.68558914436917,195.92156372900376,210.20001733699348,217.02776695949711,228.69672556475297","8,7,6,5,4,3,2,1","NETTLE WEED,NETTLE WEED,NETTLE WEED,NETTLE WEED,NETTLE WEED,NETTLE WEED,NETTLE WEED,NETTLE WEED","20,20,20,20,20,20,20,20","20,20,20,20,20,20,20,20","10,10,10,10,10,10,10,10","20,20,20,20,20,20,20,20","0,0,0,0,0,0,0,0","20,20,20,20,20,20,20,20","20,20,20,20,20,20,20,20","20,20,20,20,20,20,20,20","10,10,10,10,10,10,10,10","20,20,20,20,20,20,20,20","0,0,0,0,0,0,0,0","20,20,20,20,20,20,20,20","1,1,1,1,1,1,0,0","3717,596,556,1145,488,563,902,115","-16.206317855770706,8.722796431618772,-31.54992084814316,-2.0905300557398934,-9.472052706705368,-49.05889965548231,51.88448465693625,23.79041833440117","8.456962940761398,3.266761156072767,-8.038134952464974,2.235974584634585,14.278453607989704,6.827749622503646,11.668958605255842,11.790871728978232","0","0"
"463","86","text","0","43","486473","0-0","","","","","","","","","","","","","","","","","","","","","","","","","","","","","","","","","","","","",""
"","","plant-game","0","44","499439","0-0","","200","180","1","CORN CROP","Left","200","180","2","THISTLE WEED","experimental","9","1,2","180,190","1,1","CORN CROP,WHEAT CROP","180,233.44401047519534","2,1","THISTLE WEED,THISTLE WEED","20,20","20,20","10,10","20,20","0,0","20,20","20,20","20,20","10,10","20,20","0,0","20,20","0,1","3545,1315","24.893792113533372,-19.19490242663407","53.444010475195356,0.7526434550516558","0","0"
"504","86","text","0","45","500033","0-0","","","","","","","","","","","","","","","","","","","","","","","","","","","","","","","","","","","","",""
"","","plant-game","0","46","521721","0-0","","200","180","8","WHEAT CROP","Right","200","190","1","NETTLE WEED","experimental","10","1,2,3,4,5,6,7,8","190,130,149.09776850179108,195.5822960078807,214.57284751805372,246.52521193687335,252.7430824546034,235.24835150879937","1,7,6,5,4,3,2,1","NETTLE WEED,THISTLE WEED,THISTLE WEED,THISTLE WEED,THISTLE WEED,THISTLE WEED,THISTLE WEED,THISTLE WEED","180,163.96243016893808,228.47829920963596,253.52692941115578,269.512235920061,245.5771521658511,282.40077621097373,262.59429631701823","8,7,6,5,4,3,2,1","WHEAT CROP,WHEAT CROP,WHEAT CROP,WHEAT CROP,WHEAT CROP,WHEAT CROP,WHEAT CROP,WHEAT CROP","0,0,0,0,0,0,0,0","20,20,20,20,20,20,20,20","10,10,10,10,10,10,10,10","20,20,20,20,20,20,20,20","20,20,20,20,20,20,20,20","20,20,20,20,20,20,20,20","0,0,0,0,0,0,0,0","20,20,20,20,20,20,20,20","10,10,10,10,10,10,10,10","20,20,20,20,20,20,20,20","20,20,20,20,20,20,20,20","20,20,20,20,20,20,20,20","0,1,1,0,0,0,0,0","3331,3355,1635,1090,721,3016,839,1707","3.9962391986457475,19.097768501791084,46.484527506089606,18.99055151017302,31.952364418819634,6.217870517730058,-17.494730945804037,5.526673965775809","-16.037569831061905,64.51586904069788,25.048630201519828,15.985306508905218,-23.93508375420993,36.823624045122656,-19.806479893955476,13.83997986653336","0","0"
"597","86","text","0","47","522438","0-0","","","","","","","","","","","","","","","","","","","","","","","","","","","","","","","","","","","","",""
"","","plant-game","0","48","541975","0-0","","200","160","8","CORN CROP","Left","200","190","1","NETTLE WEED","experimental","11","1,2,3,4,5,6,7,8","160,168.06366913669646,197.39260110221875,236.19654882744732,250.8972165507858,267.8776680814908,298.9878383812914,316.34899730691825","8,7,6,5,4,3,2,1","CORN CROP,CORN CROP,CORN CROP,CORN CROP,CORN CROP,CORN CROP,CORN CROP,CORN CROP","190,130,107.75873265875944,127.45682148653621,147.62789691193134,149.51410572834948,172.42327287980547,190.3748084677981","1,7,6,5,4,3,2,1","NETTLE WEED,THISTLE WEED,THISTLE WEED,THISTLE WEED,THISTLE WEED,THISTLE WEED,THISTLE WEED,THISTLE WEED","20,20,20,20,20,20,20,20","20,20,20,20,20,20,20,20","10,10,10,10,10,10,10,10","20,20,20,20,20,20,20,20","0,0,0,0,0,0,0,0","20,20,20,20,20,20,20,20","20,20,20,20,20,20,20,20","20,20,20,20,20,20,20,20","10,10,10,10,10,10,10,10","20,20,20,20,20,20,20,20","0,0,0,0,0,0,0,0","20,20,20,20,20,20,20,20","1,0,0,0,0,0,1,1","3987,1961,555,913,1050,498,1255,1222","8.063669136696452,29.328931965522273,38.80394772522858,14.70066772333848,16.980451530704986,31.11017029980061,17.36115892562684,7.000169962230261","-7.322654344584629,-22.24126734124055,19.698088827776772,20.171075425395127,1.88620881641814,22.909167151455996,17.95153558799263,11.149929873771885","0","0"
"494","86","text","0","49","542539","0-0","","","","","","","","","","","","","","","","","","","","","","","","","","","","","","","","","","","","",""
"","","plant-game","0","50","563873","0-0","","200","120","1","CORN CROP","Right","200","120","8","THISTLE WEED","experimental","12","1,2,3,4,5,6,7,8","120,132.41085237095317,173.8364131177585,202.35718019394884,188.78620541812126,167.17857865009486,139.72399419774894,160.01373121739022","8,7,6,5,4,3,2,1","THISTLE WEED,THISTLE WEED,THISTLE WEED,THISTLE WEED,THISTLE WEED,THISTLE WEED,THISTLE WEED,THISTLE WEED","120,130,181.26392508069776,155.52974414758813,136.16491336298935,134.89455442804473,120.45066325860586,100.95188795429885","1,7,6,5,4,3,2,1","CORN CROP,WHEAT CROP,WHEAT CROP,WHEAT CROP,WHEAT CROP,WHEAT CROP,WHEAT CROP,WHEAT CROP","0,0,0,0,0,0,0,0","20,20,20,20,20,20,20,20","10,10,10,10,10,10,10,10","20,20,20,20,20,20,20,20","20,20,20,20,20,20,20,20","20,20,20,20,20,20,20,20","0,0,0,0,0,0,0,0","20,20,20,20,20,20,20,20","10,10,10,10,10,10,10,10","20,20,20,20,20,20,20,20","20,20,20,20,20,20,20,20","20,20,20,20,20,20,20,20","0,1,0,0,0,0,0,0","6040,3971,963,860,1269,594,436,564","12.410852370953158,41.42556074680534,28.52076707619033,-13.570974775827565,-21.607626768026385,-27.454584452345937,20.289737019641287,-24.996948284594964","0.15291159710108856,51.26392508069777,-25.734180933109634,-19.364830784598766,-1.2703589349446134,-14.443891169438878,-19.498775304307,31.170688310191736","0","0"
"467","86","text","0","51","564420","0-0","","","","","","","","","","","","","","","","","","","","","","","","","","","","","","","","","","","","",""
"","","plant-game","0","52","570942","0-0","","200","180","1","CORN CROP","Right","200","160","1","THISTLE WEED","experimental","13","1","160","1","THISTLE WEED","180","1","CORN CROP","0","20","10","20","20","20","0","20","10","20","20","20","1","2648","40.078243425492865","15.188590011855078","0","0"
"440","86","text","0","53","571462","0-0","","","","","","","","","","","","","","","","","","","","","","","","","","","","","","","","","","","","",""
"","","plant-game","0","54","581417","0-0","","200","190","4","CORN CROP","Left","200","160","4","THISTLE WEED","experimental","14","1,2,3,4","190,194.41343469158258,225.20529830627802,251.2115195209509","4,3,2,1","CORN CROP,CORN CROP,CORN CROP,CORN CROP","160,219.80611969332404,278.5114385271915,289.0366658881316","4,3,2,1","THISTLE WEED,THISTLE WEED,THISTLE WEED,THISTLE WEED","20,20,20,20","20,20,20,20","10,10,10,10","20,20,20,20","0,0,0,0","20,20,20,20","20,20,20,20","20,20,20,20","10,10,10,10","20,20,20,20","0,0,0,0","20,20,20,20","0,0,0,0","2966,860,1482,1157","4.41343469158258,30.791863614695437,26.00622121467289,-2.693959409532379","59.80611969332405,58.70531883386749,10.525227360940107,10.469281567253981","0","0"
"1326","86","text","0","55","582843","0-0","","","","","","","","","","","","","","","","","","","","","","","","","","","","","","","","","","","","",""
"","","plant-game","0","56","598722","0-0","","200","160","8","WHEAT CROP","Right","200","120","2","THISTLE WEED","experimental","15","1,2,3,4,5,6,7,8","120,126.96761856620299,140,169.28620902914457,159.06742655978746,174.64777153241363,169.1280009379723,179.16050558522664","2,1,6,5,4,3,2,1","THISTLE WEED,THISTLE WEED,NETTLE WEED,NETTLE WEED,NETTLE WEED,NETTLE WEED,NETTLE WEED,NETTLE WEED","160,155.7532283617178,147.48161940618039,153.150476305523,126.19818111329606,162.30818496484846,179.60090230010744,179.920000916522","8,7,6,5,4,3,2,1","WHEAT CROP,WHEAT CROP,WHEAT CROP,WHEAT CROP,WHEAT CROP,WHEAT CROP,WHEAT CROP,WHEAT CROP","0,0,0,0,0,0,0,0","20,20,20,20,20,20,20,20","10,10,10,10,10,10,10,10","20,20,20,20,20,20,20,20","20,20,20,20,20,20,20,20","20,20,20,20,20,20,20,20","0,0,0,0,0,0,0,0","20,20,20,20,20,20,20,20","10,10,10,10,10,10,10,10","20,20,20,20,20,20,20,20","20,20,20,20,20,20,20,20","20,20,20,20,20,20,20,20","0,0,1,1,1,1,1,1","3128,369,1221,971,1201,810,1263,620","6.9676185662029795,11.342983391880676,29.28620902914458,-10.218782469357102,15.58034497262615,-5.519770594441322,10.03250464725434,35.85992161488407","-4.246771638282226,-8.271608955537413,5.668856899342604,-26.95229519222694,36.110003851552406,17.292717335258974,0.3190986164145784,27.79235260027011","0","0"
"463","86","text","0","57","599275","0-0","","","","","","","","","","","","","","","","","","","","","","","","","","","","","","","","","","","","",""
"","","plant-game","0","58","615212","0-0","","200","120","4","WHEAT CROP","Left","200","180","2","NETTLE WEED","experimental","16","1,2,3,4","120,127.22794585607612,109.46283589908023,139.17961223953742","4,3,2,1","WHEAT CROP,WHEAT CROP,WHEAT CROP,WHEAT CROP","180,185.36962867621497,180,174.23379953434033","2,1,2,1","NETTLE WEED,NETTLE WEED,THISTLE WEED,THISTLE WEED","20,20,20,20","20,20,20,20","10,10,10,10","20,20,20,20","0,0,0,0","20,20,20,20","20,20,20,20","20,20,20,20","10,10,10,10","20,20,20,20","0,0,0,0","20,20,20,20","0,0,0,1","2743,576,1876,4860","7.227945856076117,-17.76510995699588,29.716776340457187,20.23683111171135","5.369628676214965,41.36015439404906,-5.766200465659654,31.39344451492984","0","0"
"843","86","text","0","59","616165","0-0","","","","","","","","","","","","","","","","","","","","","","","","","","","","","","","","","","","","",""
"","","plant-game","0","60","634098","0-0","","200","120","2","WHEAT CROP","Right","200","160","4","NETTLE WEED","experimental","17","1,2,3,4","160,171.29673160800309,147.62603839477907,142.99022121054819","4,3,2,1","NETTLE WEED,NETTLE WEED,NETTLE WEED,NETTLE WEED","120,141.99321774596837,180,204.983655384241","2,1,2,1","WHEAT CROP,WHEAT CROP,CORN CROP,CORN CROP","0,0,0,0","20,20,20,20","10,10,10,10","20,20,20,20","20,20,20,20","20,20,20,20","0,0,0,0","20,20,20,20","10,10,10,10","20,20,20,20","20,20,20,20","20,20,20,20","0,0,1,1","6580,378,2074,2042","11.296731608003096,-23.67069321322401,-4.635817184230891,12.359567206790532","21.99321774596838,0.24630274318502846,24.983655384241004,8.628865568668534","0","0"
"476","86","text","0","61","634664","0-0","","","","","","","","","","","","","","","","","","","","","","","","","","","","","","","","","","","","",""
"","","plant-game","0","62","648333","0-0","","200","120","8","CORN CROP","Right","200","180","2","NETTLE WEED","experimental","18","1,2,3,4,5,6,7,8","180,161.7311553966471,140,146.63428726632347,141.3491647935768,155.76238878462595,149.00354198335017,174.23199959780098","2,1,6,5,4,3,2,1","NETTLE WEED,NETTLE WEED,THISTLE WEED,THISTLE WEED,THISTLE WEED,THISTLE WEED,THISTLE WEED,THISTLE WEED","120,111.07430060034167,115.67066783626403,150.007643741611,139.27913411502743,167.73850738760794,158.56938435691578,188.11302717100244","8,7,6,5,4,3,2,1","CORN CROP,CORN CROP,CORN CROP,CORN CROP,CORN CROP,CORN CROP,CORN CROP,CORN CROP","0,0,0,0,0,0,0,0","20,20,20,20,20,20,20,20","10,10,10,10,10,10,10,10","20,20,20,20,20,20,20,20","20,20,20,20,20,20,20,20","20,20,20,20,20,20,20,20","0,0,0,0,0,0,0,0","20,20,20,20,20,20,20,20","10,10,10,10,10,10,10,10","20,20,20,20,20,20,20,20","20,20,20,20,20,20,20,20","20,20,20,20,20,20,20,20","0,0,1,1,1,1,1,1","3137,754,1907,572,424,403,434,687","-18.2688446033529,5.853941082727547,6.634287266323467,-5.285122472746693,14.413223991049176,-6.758846801275773,25.22845761445081,2.557946727521248","-8.925699399658324,4.59636723592236,34.33697590534696,-10.728509626583545,28.4593732725805,-9.169123030692163,29.54364281408666,15.891468289686763","0","0"
"430","86","text","0","63","648833","0-0","","","","","","","","","","","","","","","","","","","","","","","","","","","","","","","","","","","","",""
"","","plant-game","0","64","658714","0-0","","200","160","4","CORN CROP","Right","200","180","4","THISTLE WEED","experimental","19","1,2,3,4","180,182.98593894462672,191.2246083774318,168.89702410614694","4,3,2,1","THISTLE WEED,THISTLE WEED,THISTLE WEED,THISTLE WEED","160,156.65431255127154,154.8821251834521,190.95629979990548","4,3,2,1","CORN CROP,CORN CROP,CORN CROP,CORN CROP","0,0,0,0","20,20,20,20","10,10,10,10","20,20,20,20","20,20,20,20","20,20,20,20","0,0,0,0","20,20,20,20","10,10,10,10","20,20,20,20","20,20,20,20","20,20,20,20","0,0,0,1","4109,356,626,1215","2.985938944626736,8.238669432805057,-22.327584271284856,46.73065435584312","-3.3456874487284605,-1.7721873678194324,36.07417461645337,26.71169067423473","0","0"
"424","86","text","0","65","659228","0-0","","","","","","","","","","","","","","","","","","","","","","","","","","","","","","","","","","","","",""
"","","plant-game","0","66","674288","0-0","","200","180","1","CORN CROP","Right","200","120","4","NETTLE WEED","experimental","20","1,2,3,4","120,154.1989226087238,183.19526316602347,231.95297029627798","4,3,2,1","NETTLE WEED,NETTLE WEED,NETTLE WEED,NETTLE WEED","180,170,172.23574096166882,224.7167026014267","1,3,2,1","CORN CROP,WHEAT CROP,WHEAT CROP,WHEAT CROP","0,0,0,0","20,20,20,20","10,10,10,10","20,20,20,20","20,20,20,20","20,20,20,20","0,0,0,0","20,20,20,20","10,10,10,10","20,20,20,20","20,20,20,20","20,20,20,20","1,1,1,0","3015,2677,652,2001","34.198922608723784,28.996340557299668,48.757707130254516,-35.66270489759907","15.654813515070497,2.235740961668835,52.480961639757886,10.16004066848135","0","0"
"476","86","text","0","67","674854","0-0","","","","","","","","","","","","","","","","","","","","","","","","","","","","","","","","","","","","",""
"","","plant-game","0","68","688593","0-0","","200","190","2","CORN CROP","Left","200","190","4","THISTLE WEED","experimental","21","1,2,3,4","190,234.7966552802,180,156.87107754791492","2,1,2,1","CORN CROP,CORN CROP,WHEAT CROP,WHEAT CROP","190,216.5382238336328,225.6211679104161,202.33310325311254","4,3,2,1","THISTLE WEED,THISTLE WEED,THISTLE WEED,THISTLE WEED","20,20,20,20","20,20,20,20","10,10,10,10","20,20,20,20","0,0,0,0","20,20,20,20","20,20,20,20","20,20,20,20","10,10,10,10","20,20,20,20","0,0,0,0","20,20,20,20","0,1,1,1","2985,2640,1648,933","44.7966552802,15.035622426384098,-23.12892245208507,-11.363430695756026","26.538223833632813,9.082944076783303,-23.28806465730355,-3.5955523454530844","0","0"
"407","86","text","0","69","689080","0-0","","","","","","","","","","","","","","","","","","","","","","","","","","","","","","","","","","","","",""
"","","plant-game","0","70","704449","0-0","","200","190","4","CORN CROP","Right","200","180","2","THISTLE WEED","experimental","22","1,2,3,4","180,210.0364439682734,180,155.93311194675593","2,1,2,1","THISTLE WEED,THISTLE WEED,NETTLE WEED,NETTLE WEED","190,219.36383043526558,225.47658117189192,258.87528472414795","4,3,2,1","CORN CROP,CORN CROP,CORN CROP,CORN CROP","0,0,0,0","20,20,20,20","10,10,10,10","20,20,20,20","20,20,20,20","20,20,20,20","0,0,0,0","20,20,20,20","10,10,10,10","20,20,20,20","20,20,20,20","20,20,20,20","1,0,0,0","4258,2804,1927,749","30.036443968273392,-5.075714546225303,-24.066888053244067,-5.173404459248644","29.363830435265584,6.112750736626349,33.39870355225601,11.044607659692197","0","0"
"467","86","text","0","71","704996","0-0","","","","","","","","","","","","","","","","","","","","","","","","","","","","","","","","","","","","",""
"","","plant-game","0","72","717924","0-0","","200","120","2","CORN CROP","Right","200","160","1","THISTLE WEED","experimental","23","1,2","160,190","1,1","THISTLE WEED,NETTLE WEED","120,180.09461696535274","2,1","CORN CROP,CORN CROP","0,0","20,20","10,10","20,20","20,20","20,20","0,0","20,20","10,10","20,20","20,20","20,20","1,1","3341,4162","17.605761386064234,-1.8056177309070556","60.09461696535275,30.751053287031365","0","0"
"450","86","text","0","73","718468","0-0","","","","","","","","","","","","","","","","","","","","","","","","","","","","","","","","","","","","",""
"","","plant-game","0","74","738922","0-0","","200","160","1","WHEAT CROP","Left","200","180","8","NETTLE WEED","experimental","24","1,2,3,4,5,6,7,8","160,130,116.12848007186874,146.79269309935003,149.6651820896381,166.66808225629927,172.56365206797776,145.25570788320238","1,7,6,5,4,3,2,1","WHEAT CROP,CORN CROP,CORN CROP,CORN CROP,CORN CROP,CORN CROP,CORN CROP,CORN CROP","180,181.7381434305165,166.22008854685973,197.73933622465145,216.12977332823746,227.53729754686745,283.73588998002924,284.42058005133987","8,7,6,5,4,3,2,1","NETTLE WEED,NETTLE WEED,NETTLE WEED,NETTLE WEED,NETTLE WEED,NETTLE WEED,NETTLE WEED,NETTLE WEED","20,20,20,20,20,20,20,20","20,20,20,20,20,20,20,20","10,10,10,10,10,10,10,10","20,20,20,20,20,20,20,20","0,0,0,0,0,0,0,0","20,20,20,20,20,20,20,20","20,20,20,20,20,20,20,20","20,20,20,20,20,20,20,20","10,10,10,10,10,10,10,10","20,20,20,20,20,20,20,20","0,0,0,0,0,0,0,0","20,20,20,20,20,20,20,20","1,0,0,0,0,0,1,1","6826,2000,545,1297,622,368,2087,409","-4.904284373543943,-13.871519928131264,30.664213027481306,2.8724889902880726,17.002900166661156,5.895569811678483,-27.30794418477537,22.688639424259847","1.7381434305164853,-15.51805488365676,31.519247677791718,18.390437103586013,11.40752421862998,56.19859243316179,0.6846900713106325,-11.56185003267856","0","0"
"471","86","text","0","75","739473","0-0","","","","","","","","","","","","","","","","","","","","","","","","","","","","","","","","","","","","",""
"","","plant-game","0","76","758642","0-0","","200","190","4","CORN CROP","Left","200","160","8","THISTLE WEED","experimental","25","1,2,3,4,5,6,7,8","190,208.14629000083244,217.9682319551243,245.83255197043275,160,175.05423291905777,189.11563812378705,188.26271119167097","4,3,2,1,4,3,2,1","CORN CROP,CORN CROP,CORN CROP,CORN CROP,WHEAT CROP,WHEAT CROP,WHEAT CROP,WHEAT CROP","160,165.4221111452811,167.92258958855786,166.02852226672752,96.11658363585649,93.75560480205363,131.19878152248555,172.821407509097","8,7,6,5,4,3,2,1","THISTLE WEED,THISTLE WEED,THISTLE WEED,THISTLE WEED,THISTLE WEED,THISTLE WEED,THISTLE WEED,THISTLE WEED","20,20,20,20,20,20,20,20","20,20,20,20,20,20,20,20","10,10,10,10,10,10,10,10","20,20,20,20,20,20,20,20","0,0,0,0,0,0,0,0","20,20,20,20,20,20,20,20","20,20,20,20,20,20,20,20","20,20,20,20,20,20,20,20","10,10,10,10,10,10,10,10","20,20,20,20,20,20,20,20","0,0,0,0,0,0,0,0","20,20,20,20,20,20,20,20","0,0,0,1,0,0,0,0","2258,1331,3464,1159,3061,403,390,701","18.146290000832437,9.821941954291884,27.864320015308436,2.1338801700264143,15.05423291905777,14.06140520472927,-0.852926932116091,-14.569028637120745","5.4221111452811055,2.5004784432767586,-1.894067321830324,-69.91193863087103,-2.3609788338028537,37.44317672043193,41.62262598661147,-1.4675678205737732","0","0"
"127","86","text","0","77","758869","0-0","","","","","","","","","","","","","","","","","","","","","","","","","","","","","","","","","","","","",""
"","","plant-game","0","78","770459","0-0","","200","180","4","WHEAT CROP","Left","200","160","2","THISTLE WEED","experimental","26","1,2,3,4","180,176.88047183181382,190.56529343738268,203.65931333525685","4,3,2,1","WHEAT CROP,WHEAT CROP,WHEAT CROP,WHEAT CROP","160,150.70523482071718,180,207.56540196804977","2,1,2,1","THISTLE WEED,THISTLE WEED,NETTLE WEED,NETTLE WEED","20,20,20,20","20,20,20,20","10,10,10,10","20,20,20,20","0,0,0,0","20,20,20,20","20,20,20,20","20,20,20,20","10,10,10,10","20,20,20,20","0,0,0,0","20,20,20,20","0,0,0,1","2184,368,1244,1846","-3.1195281681861786,13.684821605568851,13.094019897874178,-39.75611653821653","-9.29476517928282,32.11839297510344,27.565401968049777,0.6854611686992815","0","0"
"447","86","text","0","79","770986","0-0","","","","","","","","","","","","","","","","","","","","","","","","","","","","","","","","","","","","",""
"","","plant-game","0","80","785561","0-0","","200","180","8","CORN CROP","Right","200","120","8","NETTLE WEED","experimental","27","1,2,3,4,5,6,7,8","120,166.10101644012894,174.7791607685246,195.78795881446308,217.79974131490852,173.8278417318283,212.77649395068025,203.37797359281922","8,7,6,5,4,3,2,1","NETTLE WEED,NETTLE WEED,NETTLE WEED,NETTLE WEED,NETTLE WEED,NETTLE WEED,NETTLE WEED,NETTLE WEED","180,171.67997909118884,183.23568194043852,206.66712187280072,206.82625714327972,208.07521805164097,226.81687342636224,205.72624984394676","8,7,6,5,4,3,2,1","CORN CROP,CORN CROP,CORN CROP,CORN CROP,CORN CROP,CORN CROP,CORN CROP,CORN CROP","0,0,0,0,0,0,0,0","20,20,20,20,20,20,20,20","10,10,10,10,10,10,10,10","20,20,20,20,20,20,20,20","20,20,20,20,20,20,20,20","20,20,20,20,20,20,20,20","0,0,0,0,0,0,0,0","20,20,20,20,20,20,20,20","10,10,10,10,10,10,10,10","20,20,20,20,20,20,20,20","20,20,20,20,20,20,20,20","20,20,20,20,20,20,20,20","1,1,1,0,0,0,0,0","2468,381,1379,2486,429,1995,594,851","46.10101644012893,8.678144328395671,21.008798045938477,22.011782500445424,-43.971899583080216,38.94865221885194,-9.398520357861024,19.388611332009404","-8.32002090881117,11.555702849249688,23.431439932362203,0.15913527047898468,1.2489609083612616,18.741655374721265,-21.090623582415475,17.845166704649035","0","0"
"376","86","text","0","81","786025","0-0","","","","","","","","","","","","","","","","","","","","","","","","","","","","","","","","","","","","",""
"","","plant-game","0","82","804199","0-0","","200","120","8","CORN CROP","Right","200","180","1","NETTLE WEED","experimental","28","1,2,3,4,5,6,7,8","180,130,172.88259843473418,229.41842063122792,244.12365645451996,248.07159221261162,288.9831487954715,260.71987904048126","1,7,6,5,4,3,2,1","NETTLE WEED,THISTLE WEED,THISTLE WEED,THISTLE WEED,THISTLE WEED,THISTLE WEED,THISTLE WEED,THISTLE WEED","120,145.38951749044472,147.33696404828564,176.98062307020408,198.77191332691265,251.6888912692263,249.24053853751133,241.89660710459282","8,7,6,5,4,3,2,1","CORN CROP,CORN CROP,CORN CROP,CORN CROP,CORN CROP,CORN CROP,CORN CROP,CORN CROP","0,0,0,0,0,0,0,0","20,20,20,20,20,20,20,20","10,10,10,10,10,10,10,10","20,20,20,20,20,20,20,20","20,20,20,20,20,20,20,20","20,20,20,20,20,20,20,20","0,0,0,0,0,0,0,0","20,20,20,20,20,20,20,20","10,10,10,10,10,10,10,10","20,20,20,20,20,20,20,20","20,20,20,20,20,20,20,20","20,20,20,20,20,20,20,20","0,1,1,1,1,0,0,0","3855,2321,756,874,2094,566,430,2132","9.00858238883371,42.88259843473418,56.53582219649373,14.705235823292051,3.94793575809166,40.91155658285985,-28.263269754990212,-7.280263043706383","25.389517490444725,1.9474465578409124,29.643659021918438,21.791290256708585,52.916977942313636,-2.4483527317149694,-7.343931432918515,-9.30137878338991","0","0"
"426","86","text","0","83","804705","0-0","","","","","","","","","","","","","","","","","","","","","","","","","","","","","","","","","","","","",""
"","","plant-game","0","84","818423","0-0","","200","120","1","WHEAT CROP","Right","200","190","2","THISTLE WEED","experimental","29","1,2","190,228.11075868307807","2,1","THISTLE WEED,THISTLE WEED","120,190","1,1","WHEAT CROP,CORN CROP","0,0","20,20","10,10","20,20","20,20","20,20","0,0","20,20","10,10","20,20","20,20","20,20","0,1","5475,2598","38.11075868307809,12.655193031177088","-20.318052720590366,-5.193921276178418","0","0"
"520","86","text","0","85","819053","0-0","","","","","","","","","","","","","","","","","","","","","","","","","","","","","","","","","","","","",""
"","","plant-game","0","86","836338","0-0","","200","180","8","WHEAT CROP","Left","200","120","1","NETTLE WEED","experimental","30","1,2,3,4,5,6,7,8","180,189.12844256817354,213.2207713980487,238.25238709822122,259.7824435784806,273.1287514777822,286.94141299785326,295.27162938506024","8,7,6,5,4,3,2,1","WHEAT CROP,WHEAT CROP,WHEAT CROP,WHEAT CROP,WHEAT CROP,WHEAT CROP,WHEAT CROP,WHEAT CROP","120,130,168.23999793649904,185.48179549154185,186.81265551412648,175.15175969059638,173.54731230564724,178.86608843454164","1,7,6,5,4,3,2,1","NETTLE WEED,THISTLE WEED,THISTLE WEED,THISTLE WEED,THISTLE WEED,THISTLE WEED,THISTLE WEED,THISTLE WEED","20,20,20,20,20,20,20,20","20,20,20,20,20,20,20,20","10,10,10,10,10,10,10,10","20,20,20,20,20,20,20,20","0,0,0,0,0,0,0,0","20,20,20,20,20,20,20,20","20,20,20,20,20,20,20,20","20,20,20,20,20,20,20,20","10,10,10,10,10,10,10,10","20,20,20,20,20,20,20,20","0,0,0,0,0,0,0,0","20,20,20,20,20,20,20,20","0,0,0,1,1,1,1,1","1990,1348,2177,1172,1011,957,1267,691","9.12844256817354,24.09232882987515,25.03161570017251,21.530056480259383,13.346307899301639,13.812661520071035,8.33021638720698,-4.4894779349247","-13.421945405513917,38.23999793649902,17.241797555042794,1.3308600225846363,-11.660895823530105,-1.6044473849491372,5.318776128894392,3.0761719158770555","0","0"
"440","86","text","0","87","836868","0-0","","","","","","","","","","","","","","","","","","","","","","","","","","","","","","","","","","","","",""
"","","plant-game","0","88","844747","0-0","","200","120","2","CORN CROP","Left","200","190","2","NETTLE WEED","experimental","31","1,2","120,113.08899642852872","2,1","CORN CROP,CORN CROP","190,175.6631197740174","2,1","NETTLE WEED,NETTLE WEED","20,20","20,20","10,10","20,20","0,0","20,20","20,20","20,20","10,10","20,20","0,0","20,20","1,1","4158,464","-6.911003571471287,-3.621302656513141","-14.336880225982608,-45.57849713720209","0","0"
"471","86","text","0","89","845281","0-0","","","","","","","","","","","","","","","","","","","","","","","","","","","","","","","","","","","","",""
"","","plant-game","0","90","852949","0-0","","200","180","4","CORN CROP","Left","200","180","4","THISTLE WEED","experimental","32","1,2,3,4","180,191.79783255341502,208.2830566301751,213.7786991852051","4,3,2,1","CORN CROP,CORN CROP,CORN CROP,CORN CROP","180,227.6152587327757,252.87090810294168,268.72203780554855","4,3,2,1","THISTLE WEED,THISTLE WEED,THISTLE WEED,THISTLE WEED","20,20,20,20","20,20,20,20","10,10,10,10","20,20,20,20","0,0,0,0","20,20,20,20","20,20,20,20","20,20,20,20","10,10,10,10","20,20,20,20","0,0,0,0","20,20,20,20","0,0,1,1","2531,504,1227,454","11.79783255341502,16.485224076760105,5.495642555030007,-1.0985369613004543","47.615258732775686,25.255649370166008,15.851129702606864,28.916280424991378","0","0"
"5010","86","text","0","91","858049","0-0","","","","","","","","","","","","","","","","","","","","","","","","","","","","","","","","","","","","",""
"","","plant-game","0","92","876975","0-0","","200","160","2","CORN CROP","Right","200","120","1","NETTLE WEED","experimental","33","1,2","120,190","1,1","NETTLE WEED,THISTLE WEED","160,171.46362175163665","2,1","CORN CROP,CORN CROP","0,0","20,20","10,10","20,20","20,20","20,20","0,0","20,20","10,10","20,20","20,20","20,20","1,1","2115,12005","-20.5344556355178,29.297091696176786","11.463621751636659,11.086023785446029","0","0"
"487","86","text","0","93","877532","0-0","","","","","","","","","","","","","","","","","","","","","","","","","","","","","","","","","","","","",""
"","","plant-game","0","94","889963","0-0","","200","160","4","CORN CROP","Right","200","120","4","NETTLE WEED","experimental","34","1,2,3,4","120,135.01212085760164,167.71892132533262,140.27082265235515","4,3,2,1","NETTLE WEED,NETTLE WEED,NETTLE WEED,NETTLE WEED","160,197.63372573327234,214.05546843069936,193.47882274026665","4,3,2,1","CORN CROP,CORN CROP,CORN CROP,CORN CROP","0,0,0,0","20,20,20,20","10,10,10,10","20,20,20,20","20,20,20,20","20,20,20,20","0,0,0,0","20,20,20,20","10,10,10,10","20,20,20,20","20,20,20,20","20,20,20,20","1,1,0,1","2595,765,2174,2922","15.012120857601655,32.70680046773097,-27.44809867297747,22.199208532197062","37.63372573327234,16.42174269742702,-20.576645690432706,-7.027246243987861","0","0"
"414","86","text","0","95","890477","0-0","","","","","","","","","","","","","","","","","","","","","","","","","","","","","","","","","","","","",""
"","","plant-game","0","96","900112","0-0","","200","120","4","WHEAT CROP","Left","200","160","4","THISTLE WEED","experimental","35","1,2,3,4","120,126.43982864918958,143.16076243506424,178.57585862432072","4,3,2,1","WHEAT CROP,WHEAT CROP,WHEAT CROP,WHEAT CROP","160,133.77016003041928,114.26001405279929,114.30044104206901","4,3,2,1","THISTLE WEED,THISTLE WEED,THISTLE WEED,THISTLE WEED","20,20,20,20","20,20,20,20","10,10,10,10","20,20,20,20","0,0,0,0","20,20,20,20","20,20,20,20","20,20,20,20","10,10,10,10","20,20,20,20","0,0,0,0","20,20,20,20","1,1,0,0","4747,341,787,344","6.43982864918958,16.720933785874664,35.41509618925647,30.166198987822817","-26.229839969580734,-19.510145977619988,0.04042698926971866,14.029978513097987","0","0"
"416","86","text","0","97","900598","0-0","","","","","","","","","","","","","","","","","","","","","","","","","","","","","","","","","","","","",""
"","","plant-game","0","98","915766","0-0","","200","120","4","WHEAT CROP","Right","200","120","1","NETTLE WEED","experimental","36","1,2,3,4","120,170,164.6091592262589,150.00821252990207","1,3,2,1","NETTLE WEED,THISTLE WEED,THISTLE WEED,THISTLE WEED","120,137.4632636886059,113.88292671363581,106.56927214188931","4,3,2,1","WHEAT CROP,WHEAT CROP,WHEAT CROP,WHEAT CROP","0,0,0,0","20,20,20,20","10,10,10,10","20,20,20,20","20,20,20,20","20,20,20,20","0,0,0,0","20,20,20,20","10,10,10,10","20,20,20,20","20,20,20,20","20,20,20,20","1,0,0,0","4968,2378,808,2395","-5.986177566752282,-5.390840773741106,-14.60094669635682,-3.5397381369795067","17.463263688605903,-23.580336974970088,-7.3136545717465,31.857568842787998","0","0"
"414","86","text","0","99","916258","0-0","","","","","","","","","","","","","","","","","","","","","","","","","","","","","","","","","","","","",""
"","","plant-game","0","100","929383","0-0","","200","190","1","WHEAT CROP","Left","200","190","2","THISTLE WEED","experimental","37","1,2","190,190","1,1","WHEAT CROP,CORN CROP","190,208.57428296557637","2,1","THISTLE WEED,THISTLE WEED","20,20","20,20","10,10","20,20","0,0","20,20","20,20","20,20","10,10","20,20","0,0","20,20","0,0","3273,3346","33.35228395310054,9.677075325172957","18.574282965576362,3.579795165826674","0","0"
"440","86","text","0","101","929923","0-0","","","","","","","","","","","","","","","","","","","","","","","","","","","","","","","","","","","","",""
"","","plant-game","0","102","940656","0-0","","200","160","4","CORN CROP","Left","200","190","1","NETTLE WEED","experimental","38","1,2,3,4","160,179.1213741382204,188.7834427455828,208.44468399377374","4,3,2,1","CORN CROP,CORN CROP,CORN CROP,CORN CROP","190,170,186.419927848612,213.5595712126707","1,3,2,1","NETTLE WEED,THISTLE WEED,THISTLE WEED,THISTLE WEED","20,20,20,20","20,20,20,20","10,10,10,10","20,20,20,20","0,0,0,0","20,20,20,20","20,20,20,20","20,20,20,20","10,10,10,10","20,20,20,20","0,0,0,0","20,20,20,20","1,0,0,1","3086,1044,914,1072","19.121374138220396,9.662068607362382,19.66124124819094,13.814225926717647","-31.5385199308197,16.41992784861198,27.139643364058713,3.520070510901949","0","0"
"187","86","text","0","103","940903","0-0","","","","","","","","","","","","","","","","","","","","","","","","","","","","","","","","","","","","",""
"","","plant-game","0","104","948536","0-0","","200","180","2","WHEAT CROP","Right","200","190","2","NETTLE WEED","experimental","39","1,2","190,222.41250091538322","2,1","NETTLE WEED,NETTLE WEED","180,177.0243448661634","2,1","WHEAT CROP,WHEAT CROP","0,0","20,20","10,10","20,20","20,20","20,20","0,0","20,20","10,10","20,20","20,20","20,20","1,1","3188,937","32.41250091538323,19.920444138189907","-2.975655133836593,35.43358323643422","0","0"
"580","86","text","0","105","949216","0-0","","","","","","","","","","","","","","","","","","","","","","","","","","","","","","","","","","","","",""
"","","plant-game","0","106","953684","0-0","","200","120","1","CORN CROP","Left","200","180","1","NETTLE WEED","experimental","40","1","120","1","CORN CROP","180","1","NETTLE WEED","20","20","10","20","0","20","20","20","10","20","0","20","1","1877","-19.706323794975557","-19.786027920222203","0","0"
"407","86","text","0","107","954191","0-0","","","","","","","","","","","","","","","","","","","","","","","","","","","","","","","","","","","","",""
"","","plant-game","0","108","970761","0-0","","200","160","8","WHEAT CROP","Right","200","190","4","THISTLE WEED","experimental","41","1,2,3,4,5,6,7,8","190,171.07269187278843,163.66703970711168,161.16044315738122,160,189.9780341507747,210.29432724397986,212.13111829784512","4,3,2,1,4,3,2,1","THISTLE WEED,THISTLE WEED,THISTLE WEED,THISTLE WEED,NETTLE WEED,NETTLE WEED,NETTLE WEED,NETTLE WEED","160,150.02992197651713,133.34042847393772,120.21112745866645,86.48418973862475,88.09171047875995,56.816287123370515,70.39498569777108","8,7,6,5,4,3,2,1","WHEAT CROP,WHEAT CROP,WHEAT CROP,WHEAT CROP,WHEAT CROP,WHEAT CROP,WHEAT CROP,WHEAT CROP","0,0,0,0,0,0,0,0","20,20,20,20,20,20,20,20","10,10,10,10,10,10,10,10","20,20,20,20,20,20,20,20","20,20,20,20,20,20,20,20","20,20,20,20,20,20,20,20","0,0,0,0,0,0,0,0","20,20,20,20,20,20,20,20","10,10,10,10,10,10,10,10","20,20,20,20,20,20,20,20","20,20,20,20,20,20,20,20","20,20,20,20,20,20,20,20","0,0,0,0,0,0,0,0","4041,400,580,1047,1968,434,1403,371","-18.927308127211585,-7.405652165676749,-2.5065965497304505,52.92277690020483,29.978034150774707,20.31629309320515,1.8367910538652503,29.71888735153022","-9.970078023482872,-16.689493502579417,-13.129301015271263,-33.726937720041704,1.6075207401352056,-31.27542335538944,13.578698574400565,16.960180280424225","0","0"
"394","86","text","0","109","971235","0-0","","","","","","","","","","","","","","","","","","","","","","","","","","","","","","","","","","","","",""
"","","plant-game","0","110","986866","0-0","","200","180","2","CORN CROP","Right","200","120","8","NETTLE WEED","experimental","42","1,2,3,4,5,6,7,8","120,148.6158312318116,179.5477148817438,182.9342820874331,180.89441569503518,167.44044410395853,142.85858973170033,150.34874241992173","8,7,6,5,4,3,2,1","NETTLE WEED,NETTLE WEED,NETTLE WEED,NETTLE WEED,NETTLE WEED,NETTLE WEED,NETTLE WEED,NETTLE WEED","180,201.97530839735103,140,101.04936209086804,140.15574360635193,115.46824534750978,103.42805612757573,153.9873459559808","2,1,6,5,4,3,2,1","CORN CROP,CORN CROP,WHEAT CROP,WHEAT CROP,WHEAT CROP,WHEAT CROP,WHEAT CROP,WHEAT CROP","0,0,0,0,0,0,0,0","20,20,20,20,20,20,20,20","10,10,10,10,10,10,10,10","20,20,20,20,20,20,20,20","20,20,20,20,20,20,20,20","20,20,20,20,20,20,20,20","0,0,0,0,0,0,0,0","20,20,20,20,20,20,20,20","10,10,10,10,10,10,10,10","20,20,20,20,20,20,20,20","20,20,20,20,20,20,20,20","20,20,20,20,20,20,20,20","1,1,0,0,0,0,1,1","2247,1290,1506,600,1073,1432,1110,894","28.615831231811605,30.931883649932182,3.386567205689312,-2.039866392397921,-13.453971591076662,-24.581854372258185,7.490152688221411,56.124399121761414","21.975308397351032,43.578491484009106,-38.950637909131956,39.10638151548388,-24.68749825884215,-12.040189219934046,50.559289828405085,29.513188907736883","0","0"
"384","86","text","0","111","987330","0-0","","","","","","","","","","","","","","","","","","","","","","","","","","","","","","","","","","","","",""
"","","plant-game","0","112","1005293","0-0","","200","180","8","WHEAT CROP","Left","200","190","4","NETTLE WEED","experimental","43","1,2,3,4,5,6,7,8","180,171.3963440487523,145.88269964222505,126.86384224034643,120.98723662494355,141.2266686381891,152.1494975851257,148.63017044286238","8,7,6,5,4,3,2,1","WHEAT CROP,WHEAT CROP,WHEAT CROP,WHEAT CROP,WHEAT CROP,WHEAT CROP,WHEAT CROP,WHEAT CROP","190,193.9763997840306,199.55971839197264,200.4137726122479,160,182.06124812775124,210.7736994612393,236.80680158339825","4,3,2,1,4,3,2,1","NETTLE WEED,NETTLE WEED,NETTLE WEED,NETTLE WEED,THISTLE WEED,THISTLE WEED,THISTLE WEED,THISTLE WEED","20,20,20,20,20,20,20,20","20,20,20,20,20,20,20,20","10,10,10,10,10,10,10,10","20,20,20,20,20,20,20,20","0,0,0,0,0,0,0,0","20,20,20,20,20,20,20,20","20,20,20,20,20,20,20,20","20,20,20,20,20,20,20,20","10,10,10,10,10,10,10,10","20,20,20,20,20,20,20,20","0,0,0,0,0,0,0,0","20,20,20,20,20,20,20,20","1,1,1,1,0,0,0,0","2828,543,1625,646,2594,961,858,1856","-8.603655951247708,-25.513644406527256,-19.01885740187862,-5.876605615402884,20.239432013245544,10.922828946936592,-3.5193271422633217,57.55900057628039","3.9763997840306136,5.58331860794204,0.8540542202752668,-28.781085185992204,22.061248127751238,28.712451333488062,26.033102122158972,24.93316301647356","0","0"
"397","86","text","0","113","1005760","0-0","","","","","","","","","","","","","","","","","","","","","","","","","","","","","","","","","","","","",""
"","","plant-game","0","114","1024202","0-0","","200","190","8","WHEAT CROP","Right","200","160","4","NETTLE WEED","experimental","44","1,2,3,4,5,6,7,8","160,204.80857691228417,173.9252663274824,125.84165259447418,160,123.40058921121286,121.16163899811772,124.56758275219686","4,3,2,1,4,3,2,1","NETTLE WEED,NETTLE WEED,NETTLE WEED,NETTLE WEED,THISTLE WEED,THISTLE WEED,THISTLE WEED,THISTLE WEED","190,242.09955005108355,257.01677140162025,255.02732968269282,271.3273264954738,257.8164660177514,251.57888780951384,229.7526411476651","8,7,6,5,4,3,2,1","WHEAT CROP,WHEAT CROP,WHEAT CROP,WHEAT CROP,WHEAT CROP,WHEAT CROP,WHEAT CROP,WHEAT CROP","0,0,0,0,0,0,0,0","20,20,20,20,20,20,20,20","10,10,10,10,10,10,10,10","20,20,20,20,20,20,20,20","20,20,20,20,20,20,20,20","20,20,20,20,20,20,20,20","0,0,0,0,0,0,0,0","20,20,20,20,20,20,20,20","10,10,10,10,10,10,10,10","20,20,20,20,20,20,20,20","20,20,20,20,20,20,20,20","20,20,20,20,20,20,20,20","1,0,0,0,0,0,0,1","3434,2034,1403,1056,2548,592,954,1055","44.80857691228416,-30.883310584801773,-48.08361373300822,2.8213359136706724,-36.59941078878714,-2.2389502130951366,3.405943754079127,23.574097819482326","52.09955005108355,14.917221350536673,-1.9894417189274118,16.299996812781018,-13.51086047772242,-6.237578208237553,-21.826246661848742,31.7517235307877","0","0"
"462","86","text","0","115","1024754","0-0","","","","","","","","","","","","","","","","","","","","","","","","","","","","","","","","","","","","",""
"","","plant-game","0","116","1034485","0-0","","200","180","2","CORN CROP","Left","200","180","1","THISTLE WEED","experimental","45","1,2","180,182.7365976577826","2,1","CORN CROP,CORN CROP","180,190","1,1","THISTLE WEED,NETTLE WEED","20,20","20,20","10,10","20,20","0,0","20,20","20,20","20,20","10,10","20,20","0,0","20,20","0,0","2712,1703","2.736597657782603,6.2297409741941046","55.75735347998994,37.065714845491556","0","0"
"451","86","text","0","117","1035016","0-0","","","","","","","","","","","","","","","","","","","","","","","","","","","","","","","","","","","","",""
"","","plant-game","0","118","1049831","0-0","","200","120","4","WHEAT CROP","Right","200","120","2","NETTLE WEED","experimental","46","1,2,3,4","120,124.65148197503727,180,214.2466567051993","2,1,2,1","NETTLE WEED,NETTLE WEED,THISTLE WEED,THISTLE WEED","120,139.03137885654218,170.71516518484768,148.52318650066778","4,3,2,1","WHEAT CROP,WHEAT CROP,WHEAT CROP,WHEAT CROP","0,0,0,0","20,20,20,20","10,10,10,10","20,20,20,20","20,20,20,20","20,20,20,20","0,0,0,0","20,20,20,20","10,10,10,10","20,20,20,20","20,20,20,20","20,20,20,20","1,1,1,1","4749,1229,2644,725","4.651481975037271,35.82343158700387,34.2466567051993,16.894110335474355","19.031378856542176,31.68378632830551,-22.1919786841799,7.690324007320823","0","0"
"497","86","text","0","119","1050400","0-0","","","","","","","","","","","","","","","","","","","","","","","","","","","","","","","","","","","","",""
"","","plant-game","0","120","1074479","0-0","","200","120","1","CORN CROP","Left","200","180","8","NETTLE WEED","experimental","47","1,2,3,4,5,6,7,8","120,130,116.24024846745934,167.30512943210027,190.0872071642084,182.67097359720634,172.26578872694313,166.2707870990196","1,7,6,5,4,3,2,1","CORN CROP,WHEAT CROP,WHEAT CROP,WHEAT CROP,WHEAT CROP,WHEAT CROP,WHEAT CROP,WHEAT CROP","180,209.8790999837414,206.6559240871798,208.06884943358298,207.45753545114164,206.39730383695246,164.77209675623664,205.2699974758591","8,7,6,5,4,3,2,1","NETTLE WEED,NETTLE WEED,NETTLE WEED,NETTLE WEED,NETTLE WEED,NETTLE WEED,NETTLE WEED,NETTLE WEED","20,20,20,20,20,20,20,20","20,20,20,20,20,20,20,20","10,10,10,10,10,10,10,10","20,20,20,20,20,20,20,20","0,0,0,0,0,0,0,0","20,20,20,20,20,20,20,20","20,20,20,20,20,20,20,20","20,20,20,20,20,20,20,20","10,10,10,10,10,10,10,10","20,20,20,20,20,20,20,20","0,0,0,0,0,0,0,0","20,20,20,20,20,20,20,20","0,1,1,1,1,1,0,0","11682,1240,326,555,757,1540,1907,832","14.817654853275286,-13.759751532540655,51.06488096464095,22.782077732108114,-7.416233567002063,-10.405184870263222,-5.9950016279235285,-26.276880325141775","29.879099983741405,-3.2231758965615938,1.4129253464031768,-0.6113139824413585,-1.0602316141891668,-41.62520708071583,40.49790071962248,3.001400774817956","0","0"
"377","86","text","0","121","1074946","0-0","","","","","","","","","","","","","","","","","","","","","","","","","","","","","","","","","","","","",""
"","","plant-game","0","122","1090706","0-0","","200","160","4","CORN CROP","Left","200","180","8","THISTLE WEED","experimental","48","1,2,3,4,5,6,7,8","160,141.5156069904699,129.30251884457311,120.38189082788782,160,216.63456610655493,250.8763225800836,259.3983403897676","4,3,2,1,4,3,2,1","CORN CROP,CORN CROP,CORN CROP,CORN CROP,WHEAT CROP,WHEAT CROP,WHEAT CROP,WHEAT CROP","180,194.46735219247097,197.22684017678012,169.0685497488651,174.83897394410465,194.93631356353245,200.58635129925477,189.39675715857842","8,7,6,5,4,3,2,1","THISTLE WEED,THISTLE WEED,THISTLE WEED,THISTLE WEED,THISTLE WEED,THISTLE WEED,THISTLE WEED,THISTLE WEED","20,20,20,20,20,20,20,20","20,20,20,20,20,20,20,20","10,10,10,10,10,10,10,10","20,20,20,20,20,20,20,20","0,0,0,0,0,0,0,0","20,20,20,20,20,20,20,20","20,20,20,20,20,20,20,20","20,20,20,20,20,20,20,20","10,10,10,10,10,10,10,10","20,20,20,20,20,20,20,20","0,0,0,0,0,0,0,0","20,20,20,20,20,20,20,20","1,1,1,1,0,0,1,1","2173,858,727,1993,995,1815,1960,546","-18.484393009530102,-12.2130881458968,-8.920628016685297,-5.4147103331751545,56.63456610655492,34.241756473528675,8.522017809684026,-17.550296921836768","14.467352192470958,2.759487984309153,-28.15829042791499,5.770424195239553,20.097339619427807,5.650037735722327,-11.189594140676359,-29.04688544534132","0","0"
"404","86","text","0","123","1091190","0-0","","","","","","","","","","","","","","","","","","","","","","","","","","","","","","","","","","","","",""
"","","plant-game","0","124","1103180","0-0","","200","190","8","WHEAT CROP","Right","200","180","8","NETTLE WEED","experimental","49","1,2,3,4,5,6,7,8","180,188.61673268821949,179.75500113312793,175.13007277928435,150.87240716537886,125.38579539709886,156.26194884990187,160.25329459849382","8,7,6,5,4,3,2,1","NETTLE WEED,NETTLE WEED,NETTLE WEED,NETTLE WEED,NETTLE WEED,NETTLE WEED,NETTLE WEED,NETTLE WEED","190,229.2136599110428,248.66361387041047,268.11839156232463,267.71292999901004,235.66980575492474,237.08125043447444,243.0729937311241","8,7,6,5,4,3,2,1","WHEAT CROP,WHEAT CROP,WHEAT CROP,WHEAT CROP,WHEAT CROP,WHEAT CROP,WHEAT CROP,WHEAT CROP","0,0,0,0,0,0,0,0","20,20,20,20,20,20,20,20","10,10,10,10,10,10,10,10","20,20,20,20,20,20,20,20","20,20,20,20,20,20,20,20","20,20,20,20,20,20,20,20","0,0,0,0,0,0,0,0","20,20,20,20,20,20,20,20","10,10,10,10,10,10,10,10","20,20,20,20,20,20,20,20","20,20,20,20,20,20,20,20","20,20,20,20,20,20,20,20","1,0,0,0,0,0,0,1","3699,1324,429,833,567,398,427,696","8.616732688219473,-8.861731555091563,-4.624928353843576,-24.257665613905495,-25.486611768279992,30.87615345280301,3.991345748591951,55.74530299417733","39.21365991104282,19.44995395936765,19.454777691914146,-0.40546156331461053,-32.0431242440853,1.4114446795496947,5.991743296649659,13.548954335471095","0","0"
"215","86","text","0","125","1103495","0-0","","","","","","","","","","","","","","","","","","","","","","","","","","","","","","","","","","","","",""
"","","plant-game","0","126","1111005","0-0","","200","160","2","CORN CROP","Left","200","180","1","NETTLE WEED","experimental","50","1,2","160,146.03025308970857","2,1","CORN CROP,CORN CROP","180,190","1,1","NETTLE WEED,THISTLE WEED","20,20","20,20","10,10","20,20","0,0","20,20","20,20","20,20","10,10","20,20","0,0","20,20","1,0","2182,767","-13.969746910291438,20.035948040078438","32.702890781906326,11.980538534003598","0","0"
"457","86","text","0","127","1111552","0-0","","","","","","","","","","","","","","","","","","","","","","","","","","","","","","","","","","","","",""
"","","plant-game","0","128","1121566","0-0","","200","160","2","WHEAT CROP","Right","200","160","1","NETTLE WEED","experimental","51","1,2","160,190","1,1","NETTLE WEED,THISTLE WEED","160,213.26258111273611","2,1","WHEAT CROP,WHEAT CROP","0,0","20,20","10,10","20,20","20,20","20,20","0,0","20,20","10,10","20,20","20,20","20,20","1,0","3950,1535","8.736040430314313,-5.143256575740985","53.262581112736115,-7.8891847872341545","0","0"
"427","86","text","0","129","1122083","0-0","","","","","","","","","","","","","","","","","","","","","","","","","","","","","","","","","","","","",""
"","","plant-game","0","130","1135794","0-0","","200","160","8","CORN CROP","Right","200","180","2","THISTLE WEED","experimental","52","1,2,3,4,5,6,7,8","180,180.16120526381175,140,148.4101798935224,147.12879914065275,184.8536411067821,224.2700059674468,230.6308654851838","2,1,6,5,4,3,2,1","THISTLE WEED,THISTLE WEED,NETTLE WEED,NETTLE WEED,NETTLE WEED,NETTLE WEED,NETTLE WEED,NETTLE WEED","160,157.32565132927292,137.27713919730817,147.23367707751427,157.20016204712633,168.84598729663514,206.6162410611935,207.02041526552978","8,7,6,5,4,3,2,1","CORN CROP,CORN CROP,CORN CROP,CORN CROP,CORN CROP,CORN CROP,CORN CROP,CORN CROP","0,0,0,0,0,0,0,0","20,20,20,20,20,20,20,20","10,10,10,10,10,10,10,10","20,20,20,20,20,20,20,20","20,20,20,20,20,20,20,20","20,20,20,20,20,20,20,20","0,0,0,0,0,0,0,0","20,20,20,20,20,20,20,20","10,10,10,10,10,10,10,10","20,20,20,20,20,20,20,20","20,20,20,20,20,20,20,20","20,20,20,20,20,20,20,20","0,0,1,1,1,1,0,1","2212,562,1183,451,453,1757,1868,880","0.16120526381175548,-13.820011816943484,8.41017989352241,-1.2813807528696515,37.72484196612937,39.416364860664686,6.360859517736996,26.64831600054265","-2.6743486707270963,-20.048512131964742,9.956537880206106,9.966484969612065,11.645825249508803,37.770253764558355,0.40417420433625983,27.730392104283137","0","0"
"590","86","text","0","131","1136504","0-0","","","","","","","","","","","","","","","","","","","","","","","","","","","","","","","","","","","","",""
"","","plant-game","0","132","1149814","0-0","","200","190","2","CORN CROP","Right","200","160","1","NETTLE WEED","experimental","53","1,2","160,190","1,1","NETTLE WEED,THISTLE WEED","190,220.07222810618765","2,1","CORN CROP,CORN CROP","0,0","20,20","10,10","20,20","20,20","20,20","0,0","20,20","10,10","20,20","20,20","20,20","1,0","5272,2469","26.745984456711952,-8.071343490161436","30.072228106187637,20.383739372252833","0","0"
"421","86","text","0","133","1150315","0-0","","","","","","","","","","","","","","","","","","","","","","","","","","","","","","","","","","","","",""
"","","plant-game","0","134","1164545","0-0","","200","180","4","WHEAT CROP","Right","200","190","2","NETTLE WEED","experimental","54","1,2,3,4","190,218.84194109426977,180,212.1382634426572","2,1,2,1","NETTLE WEED,NETTLE WEED,THISTLE WEED,THISTLE WEED","180,177.53305659766056,165.43631251007227,209.544808026167","4,3,2,1","WHEAT CROP,WHEAT CROP,WHEAT CROP,WHEAT CROP","0,0,0,0","20,20,20,20","10,10,10,10","20,20,20,20","20,20,20,20","20,20,20,20","0,0,0,0","20,20,20,20","10,10,10,10","20,20,20,20","20,20,20,20","20,20,20,20","0,0,1,0","4511,900,1782,1459","28.841941094269767,13.5460982319732,32.13826344265719,-4.490035459239728","-2.4669434023394325,-12.096744087588283,44.10849551609475,-12.977852767379964","0","0"
"427","86","text","0","135","1165062","0-0","","","","","","","","","","","","","","","","","","","","","","","","","","","","","","","","","","","","",""
"","","plant-game","0","136","1176304","0-0","","200","190","8","CORN CROP","Right","200","190","8","THISTLE WEED","experimental","55","1,2,3,4,5,6,7,8","190,185.97889995881073,162.16202132035298,184.36891209501965,208.3644069695116,209.46289615890936,240.49341553252617,258.70312530459927","8,7,6,5,4,3,2,1","THISTLE WEED,THISTLE WEED,THISTLE WEED,THISTLE WEED,THISTLE WEED,THISTLE WEED,THISTLE WEED,THISTLE WEED","190,196.19084230069004,187.06545689382114,155.75549425247556,166.339847359572,146.52479526548007,175.424349708731,169.58575326919484","8,7,6,5,4,3,2,1","CORN CROP,CORN CROP,CORN CROP,CORN CROP,CORN CROP,CORN CROP,CORN CROP,CORN CROP","0,0,0,0,0,0,0,0","20,20,20,20,20,20,20,20","10,10,10,10,10,10,10,10","20,20,20,20,20,20,20,20","20,20,20,20,20,20,20,20","20,20,20,20,20,20,20,20","0,0,0,0,0,0,0,0","20,20,20,20,20,20,20,20","10,10,10,10,10,10,10,10","20,20,20,20,20,20,20,20","20,20,20,20,20,20,20,20","20,20,20,20,20,20,20,20","0,0,0,0,0,1,1,1","3343,372,411,630,920,386,794,953","-4.0211000411892615,-23.816878638457748,22.206890774666682,23.995494874491957,1.098489189397748,31.03051937361682,18.209709772073076,18.13537592228991","6.19084230069003,-9.125385406868906,-31.30996264134557,10.58435310709643,-19.81505209409194,28.899554443250942,-5.838596439536154,41.1566932003377","0","0"
"452","86","text","0","137","1176836","0-0","","","","","","","","","","","","","","","","","","","","","","","","","","","","","","","","","","","","",""
"","","plant-game","0","138","1191533","0-0","","200","180","1","CORN CROP","Right","200","160","8","NETTLE WEED","experimental","56","1,2,3,4,5,6,7,8","160,171.97957066252056,175.2881970721197,193.57024792640618,162.63255610414916,221.5265383034784,231.76907571374122,241.1333322907509","8,7,6,5,4,3,2,1","NETTLE WEED,NETTLE WEED,NETTLE WEED,NETTLE WEED,NETTLE WEED,NETTLE WEED,NETTLE WEED,NETTLE WEED","180,130,153.73646769933524,136.88056636670865,155.58908549546913,178.07436111621791,205.9462378959328,265.2138394361581","1,7,6,5,4,3,2,1","CORN CROP,WHEAT CROP,WHEAT CROP,WHEAT CROP,WHEAT CROP,WHEAT CROP,WHEAT CROP,WHEAT CROP","0,0,0,0,0,0,0,0","20,20,20,20,20,20,20,20","10,10,10,10,10,10,10,10","20,20,20,20,20,20,20,20","20,20,20,20,20,20,20,20","20,20,20,20,20,20,20,20","0,0,0,0,0,0,0,0","20,20,20,20,20,20,20,20","10,10,10,10,10,10,10,10","20,20,20,20,20,20,20,20","20,20,20,20,20,20,20,20","20,20,20,20,20,20,20,20","1,0,0,0,1,1,1,0","1909,2630,479,721,1063,724,1639,630","11.979570662520562,3.3086264095991327,18.2820508542865,-30.937691822257026,58.89398219932924,10.24253741026282,9.364256577009689,20.213356335818705","2.656180401133579,23.73646769933523,-16.85590133262658,18.708519128760482,22.48527562074879,27.871876779714874,59.2676015402253,9.309405408810747","0","0"
"407","86","text","0","139","1192000","0-0","","","","","","","","","","","","","","","","","","","","","","","","","","","","","","","","","","","","",""
"","","plant-game","0","140","1209515","0-0","","200","120","4","CORN CROP","Right","200","180","8","NETTLE WEED","experimental","57","1,2,3,4,5,6,7,8","180,193.0910245836305,215.42387611245408,240.65032712543928,252.53414122421893,229.53271684020996,216.5213911827852,217.28349843272352","8,7,6,5,4,3,2,1","NETTLE WEED,NETTLE WEED,NETTLE WEED,NETTLE WEED,NETTLE WEED,NETTLE WEED,NETTLE WEED,NETTLE WEED","120,179.57654632170755,171.97512975961104,191.95158932641266,160,177.61688934036852,182.66613353377687,176.32903418854795","4,3,2,1,4,3,2,1","CORN CROP,CORN CROP,CORN CROP,CORN CROP,WHEAT CROP,WHEAT CROP,WHEAT CROP,WHEAT CROP","0,0,0,0,0,0,0,0","20,20,20,20,20,20,20,20","10,10,10,10,10,10,10,10","20,20,20,20,20,20,20,20","20,20,20,20,20,20,20,20","20,20,20,20,20,20,20,20","0,0,0,0,0,0,0,0","20,20,20,20,20,20,20,20","10,10,10,10,10,10,10,10","20,20,20,20,20,20,20,20","20,20,20,20,20,20,20,20","20,20,20,20,20,20,20,20","1,1,1,1,0,0,0,0","4057,3838,501,581,1927,354,350,436","13.091024583630507,22.332851528823557,25.2264510129852,11.883814098779643,-23.001424384008974,-13.011325657424742,0.762107249938313,2.4313499810878207","59.57654632170755,-7.601416562096514,19.97645956680162,27.49332028352539,17.616889340368523,5.049244193408361,-6.33709934522892,3.350845616140799","0","0"
"408","86","text","0","141","1210003","0-0","","","","","","","","","","","","","","","","","","","","","","","","","","","","","","","","","","","","",""
"","","plant-game","0","142","1217491","0-0","","200","120","2","CORN CROP","Right","200","120","1","THISTLE WEED","experimental","58","1,2","120,190","1,1","THISTLE WEED,NETTLE WEED","120,112.77357693756797","2,1","CORN CROP,CORN CROP","0,0","20,20","10,10","20,20","20,20","20,20","0,0","20,20","10,10","20,20","20,20","20,20","1,1","2194,1037","-5.948721233025754,14.944992964857327","-7.226423062432037,11.81979743598998","0","0"
"430","86","text","0","143","1218001","0-0","","","","","","","","","","","","","","","","","","","","","","","","","","","","","","","","","","","","",""
"","","plant-game","0","144","1232668","0-0","","200","160","8","WHEAT CROP","Right","200","160","2","THISTLE WEED","experimental","59","1,2,3,4,5,6,7,8","160,174.79797253567142,140,191.63252532791586,246.65102653112518,255.07591123705978,259.8669983763988,272.155911461098","2,1,6,5,4,3,2,1","THISTLE WEED,THISTLE WEED,NETTLE WEED,NETTLE WEED,NETTLE WEED,NETTLE WEED,NETTLE WEED,NETTLE WEED","160,154.60155386526972,156.7322752101903,194.7040379299187,227.0935127287744,256.8206935257653,247.17473475036445,228.6929523498846","8,7,6,5,4,3,2,1","WHEAT CROP,WHEAT CROP,WHEAT CROP,WHEAT CROP,WHEAT CROP,WHEAT CROP,WHEAT CROP,WHEAT CROP","0,0,0,0,0,0,0,0","20,20,20,20,20,20,20,20","10,10,10,10,10,10,10,10","20,20,20,20,20,20,20,20","20,20,20,20,20,20,20,20","20,20,20,20,20,20,20,20","0,0,0,0,0,0,0,0","20,20,20,20,20,20,20,20","10,10,10,10,10,10,10,10","20,20,20,20,20,20,20,20","20,20,20,20,20,20,20,20","20,20,20,20,20,20,20,20","0,0,1,1,1,0,0,0","4303,397,1531,1042,1881,519,494,471","14.797972535671434,37.930708392314344,51.63252532791585,55.01850120320931,8.424884705934602,4.791087139339006,12.28891308469921,-31.968071532985547","-5.398446134730279,2.13072134492056,37.97176271972842,32.3894747988557,29.727180796990886,-9.64595877540087,-18.481782400479855,11.003627334504017","0","0"
"135","86","text","0","145","1232883","0-0","","","","","","","","","","","","","","","","","","","","","","","","","","","","","","","","","","","","",""
"","","plant-game","0","146","1248331","0-0","","200","120","4","CORN CROP","Left","200","160","8","NETTLE WEED","experimental","60","1,2,3,4,5,6,7,8","120,160.7086502713544,147.53978228157433,185.3406129362814,160,204.98134135013797,273.78521903506356,264.0800565051211","4,3,2,1,4,3,2,1","CORN CROP,CORN CROP,CORN CROP,CORN CROP,WHEAT CROP,WHEAT CROP,WHEAT CROP,WHEAT CROP","160,127.04318603292758,161.75246297169974,202.51307485197114,252.4579353731096,287.09671914140756,337.09592116658644,364.62610182474856","8,7,6,5,4,3,2,1","NETTLE WEED,NETTLE WEED,NETTLE WEED,NETTLE WEED,NETTLE WEED,NETTLE WEED,NETTLE WEED,NETTLE WEED","20,20,20,20,20,20,20,20","20,20,20,20,20,20,20,20","10,10,10,10,10,10,10,10","20,20,20,20,20,20,20,20","0,0,0,0,0,0,0,0","20,20,20,20,20,20,20,20","20,20,20,20,20,20,20,20","20,20,20,20,20,20,20,20","10,10,10,10,10,10,10,10","20,20,20,20,20,20,20,20","0,0,0,0,0,0,0,0","20,20,20,20,20,20,20,20","0,0,0,0,0,0,0,0","4160,132,371,691,1865,886,1032,1076","40.7086502713544,-13.168867989780054,37.800830654707056,6.588503274292279,44.98134135013796,68.80387768492558,-9.705162529942491,25.213408426429744","-32.95681396707242,34.70927693877216,40.760611880271405,49.94486052113845,34.638783768297984,49.99920202517885,27.53018065816214,3.5603518555032885","0","0"
"112","86","text","0","147","1248533","0-0","","","","","","","","","","","","","","","","","","","","","","","","","","","","","","","","","","","","",""
"","","plant-game","0","148","1256526","0-0","","200","190","1","CORN CROP","Right","200","160","2","THISTLE WEED","experimental","61","1,2","160,159.33733840684712","2,1","THISTLE WEED,THISTLE WEED","190,190","1,1","CORN CROP,WHEAT CROP","0,0","20,20","10,10","20,20","20,20","20,20","0,0","20,20","10,10","20,20","20,20","20,20","1,1","2707,1280","-0.6626615931528868,23.23308833338806","30.104022161796884,11.956907464754172","0","0"
"437","86","text","0","149","1257033","0-0","","","","","","","","","","","","","","","","","","","","","","","","","","","","","","","","","","","","",""
"","","plant-game","0","150","1270284","0-0","","200","180","8","CORN CROP","Right","200","160","2","THISTLE WEED","experimental","62","1,2,3,4,5,6,7,8","160,175.3460871748354,140,146.67925238127464,169.1671433899693,230.2746133482812,269.39583488804055,276.95961233836846","2,1,6,5,4,3,2,1","THISTLE WEED,THISTLE WEED,NETTLE WEED,NETTLE WEED,NETTLE WEED,NETTLE WEED,NETTLE WEED,NETTLE WEED","180,167.96644712754144,146.9398703947054,141.41636687843686,175.954766200603,202.95348655766887,276.4246893716768,298.7845455059272","8,7,6,5,4,3,2,1","CORN CROP,CORN CROP,CORN CROP,CORN CROP,CORN CROP,CORN CROP,CORN CROP,CORN CROP","0,0,0,0,0,0,0,0","20,20,20,20,20,20,20,20","10,10,10,10,10,10,10,10","20,20,20,20,20,20,20,20","20,20,20,20,20,20,20,20","20,20,20,20,20,20,20,20","0,0,0,0,0,0,0,0","20,20,20,20,20,20,20,20","10,10,10,10,10,10,10,10","20,20,20,20,20,20,20,20","20,20,20,20,20,20,20,20","20,20,20,20,20,20,20,20","0,0,1,1,1,1,0,0","2998,434,1288,776,534,1215,1275,448","15.3460871748354,-21.48145244335788,6.679252381274631,22.487891008694668,61.10746995831188,39.12122153975935,7.563777450327885,-1.995461425562358","-12.033552872458554,-21.026576732836034,-5.523503516268548,34.538399322166136,26.99872035706588,73.47120281400791,22.359856134250435,23.649818508656576","0","0"
"248","86","text","0","151","1270602","0-0","","","","","","","","","","","","","","","","","","","","","","","","","","","","","","","","","","","","",""
"","","plant-game","0","152","1285924","0-0","","200","180","8","WHEAT CROP","Left","200","180","4","THISTLE WEED","experimental","63","1,2,3,4,5,6,7,8","180,181.03839273747312,173.24856037563572,192.91219977606727,220.27224089939128,255.19292984580414,267.91669193724783,290.2870942984159","8,7,6,5,4,3,2,1","WHEAT CROP,WHEAT CROP,WHEAT CROP,WHEAT CROP,WHEAT CROP,WHEAT CROP,WHEAT CROP,WHEAT CROP","180,166.28626399762305,141.7161554952612,152.37114994546093,160,235.9545637499242,255.9539141594108,260.7090720593843","4,3,2,1,4,3,2,1","THISTLE WEED,THISTLE WEED,THISTLE WEED,THISTLE WEED,NETTLE WEED,NETTLE WEED,NETTLE WEED,NETTLE WEED","20,20,20,20,20,20,20,20","20,20,20,20,20,20,20,20","10,10,10,10,10,10,10,10","20,20,20,20,20,20,20,20","0,0,0,0,0,0,0,0","20,20,20,20,20,20,20,20","20,20,20,20,20,20,20,20","20,20,20,20,20,20,20,20","10,10,10,10,10,10,10,10","20,20,20,20,20,20,20,20","0,0,0,0,0,0,0,0","20,20,20,20,20,20,20,20","1,1,1,1,0,0,0,1","3020,397,541,1335,2049,867,904,1271","1.0383927374731148,-7.789832361837399,19.66363940043156,27.360041123324017,34.92068894641287,12.723762091443666,22.370402361168082,-6.12902543478185","-13.713736002376933,-24.570108502361837,10.654994450199721,23.32670288603504,75.95456374992419,19.9993504094866,4.755157899973527,17.137348678114588","0","0"
"196","86","text","0","153","1286190","0-0","","","","","","","","","","","","","","","","","","","","","","","","","","","","","","","","","","","","",""
"","","plant-game","0","154","1296820","0-0","","200","180","4","WHEAT CROP","Right","200","190","4","NETTLE WEED","experimental","64","1,2,3,4","190,226.36358585815228,263.41053264630534,246.772282995363","4,3,2,1","NETTLE WEED,NETTLE WEED,NETTLE WEED,NETTLE WEED","180,197.30193269086396,213.29975138031546,200.85715723905938","4,3,2,1","WHEAT CROP,WHEAT CROP,WHEAT CROP,WHEAT CROP","0,0,0,0","20,20,20,20","10,10,10,10","20,20,20,20","20,20,20,20","20,20,20,20","0,0,0,0","20,20,20,20","10,10,10,10","20,20,20,20","20,20,20,20","20,20,20,20","1,1,0,0","5031,523,739,1599","36.363585858152284,37.046946788153086,-16.638249650942342,2.3562096864034006","17.30193269086397,15.997818689451481,-12.442594141256071,-7.353972538261403","0","0"
"273","86","text","0","155","1297173","0-0","","","","","","","","","","","","","","","","","","","","","","","","","","","","","","","","","","","","",""
"","","plant-game","0","156","1306517","0-0","","200","120","1","CORN CROP","Left","200","160","1","NETTLE WEED","experimental","65","1","120","1","CORN CROP","160","1","NETTLE WEED","20","20","10","20","0","20","20","20","10","20","0","20","0","5363","12.018439883801681","29.803977255993615","0","0"
"440","86","text","0","157","1307037","0-0","","","","","","","","","","","","","","","","","","","","","","","","","","","","","","","","","","","","",""
"","","plant-game","0","158","1313248","0-0","","200","120","2","CORN CROP","Right","200","120","2","NETTLE WEED","experimental","66","1,2","120,116.5683341723695","2,1","NETTLE WEED,NETTLE WEED","120,145.02684841095558","2,1","CORN CROP,CORN CROP","0,0","20,20","10,10","20,20","20,20","20,20","0,0","20,20","10,10","20,20","20,20","20,20","1,1","3482,69","-3.4316658276305,19.483782918539777","25.02684841095559,7.613055215721447","0","0"
"428","86","text","0","159","1313754","0-0","","","","","","","","","","","","","","","","","","","","","","","","","","","","","","","","","","","","",""
"","","plant-game","0","160","1325884","0-0","","200","180","2","CORN CROP","Right","200","190","8","THISTLE WEED","experimental","67","1,2,3,4,5,6,7,8","190,203.5607911683848,247.9260926612395,247.3164991730628,257.1532378386707,271.81821110105597,303.8208813167749,366.7622256193135","8,7,6,5,4,3,2,1","THISTLE WEED,THISTLE WEED,THISTLE WEED,THISTLE WEED,THISTLE WEED,THISTLE WEED,THISTLE WEED,THISTLE WEED","180,161.05167212747028,140,128.58001862875915,124.96905362194946,131.10584931106007,146.82040298043444,165.23670001014298","2,1,6,5,4,3,2,1","CORN CROP,CORN CROP,WHEAT CROP,WHEAT CROP,WHEAT CROP,WHEAT CROP,WHEAT CROP,WHEAT CROP","0,0,0,0,0,0,0,0","20,20,20,20,20,20,20,20","10,10,10,10,10,10,10,10","20,20,20,20,20,20,20,20","20,20,20,20,20,20,20,20","20,20,20,20,20,20,20,20","0,0,0,0,0,0,0,0","20,20,20,20,20,20,20,20","10,10,10,10,10,10,10,10","20,20,20,20,20,20,20,20","20,20,20,20,20,20,20,20","20,20,20,20,20,20,20,20","1,1,0,0,0,1,1,1","3147,471,1397,135,170,1297,417,404","13.560791168384817,44.36530149285468,-0.6095934881766963,9.836738665607914,14.664973262385272,32.00267021571891,62.94134430253858,37.12635844768064","-18.948327872529717,-19.684927612494235,-11.41998137124084,-3.6109650068096943,6.136795689110604,15.714553669374368,18.416297029708552,58.38059239474657","0","0"
"414","86","text","0","161","1326378","0-0","","","","","","","","","","","","","","","","","","","","","","","","","","","","","","","","","","","","",""
"","","plant-game","0","162","1340816","0-0","","200","120","8","WHEAT CROP","Left","200","180","8","NETTLE WEED","experimental","68","1,2,3,4,5,6,7,8","120,118.59708051862339,161.47550815979986,170.13420279613712,162.35822133689186,172.19662444840196,179.7950398645186,167.66689298214098","8,7,6,5,4,3,2,1","WHEAT CROP,WHEAT CROP,WHEAT CROP,WHEAT CROP,WHEAT CROP,WHEAT CROP,WHEAT CROP,WHEAT CROP","180,208.42847147569728,254.83484503435295,272.8199388659048,254.5201062875907,288.61670806493925,310.18961505771404,288.50562911058364","8,7,6,5,4,3,2,1","NETTLE WEED,NETTLE WEED,NETTLE WEED,NETTLE WEED,NETTLE WEED,NETTLE WEED,NETTLE WEED,NETTLE WEED","20,20,20,20,20,20,20,20","20,20,20,20,20,20,20,20","10,10,10,10,10,10,10,10","20,20,20,20,20,20,20,20","0,0,0,0,0,0,0,0","20,20,20,20,20,20,20,20","20,20,20,20,20,20,20,20","20,20,20,20,20,20,20,20","10,10,10,10,10,10,10,10","20,20,20,20,20,20,20,20","0,0,0,0,0,0,0,0","20,20,20,20,20,20,20,20","0,0,0,0,0,1,1,1","3982,462,1034,1400,649,1159,694,509","-1.402919481376621,42.878427641176486,8.658694636337273,-7.775981459245273,9.838403111510095,7.598415416116625,-12.128146882377608,-6.140586097562638","28.42847147569728,46.40637355865566,17.98509383155185,-18.29983257831413,34.09660177734857,21.5729069927748,-21.683985947130402,-35.22433753492544","0","0"
"516","86","text","0","163","1341412","0-0","","","","","","","","","","","","","","","","","","","","","","","","","","","","","","","","","","","","",""
"","","plant-game","0","164","1354691","0-0","","200","120","2","CORN CROP","Right","200","180","4","THISTLE WEED","experimental","69","1,2,3,4","180,199.37880362885377,223.82869824222368,273.7176131655457","4,3,2,1","THISTLE WEED,THISTLE WEED,THISTLE WEED,THISTLE WEED","120,165.29086367071426,180,168.74146890321805","2,1,2,1","CORN CROP,CORN CROP,WHEAT CROP,WHEAT CROP","0,0,0,0","20,20,20,20","10,10,10,10","20,20,20,20","20,20,20,20","20,20,20,20","0,0,0,0","20,20,20,20","10,10,10,10","20,20,20,20","20,20,20,20","20,20,20,20","1,1,1,1","4857,1304,1653,1210","19.378803628853774,24.449894613369906,49.888914923322034,2.260148087392718","45.290863670714266,8.501070158080585,-11.258531096781958,33.15106102325417","0","0"
"392","86","text","0","165","1355163","0-0","","","","","","","","","","","","","","","","","","","","","","","","","","","","","","","","","","","","",""
"","","plant-game","0","166","1372808","0-0","","200","180","8","CORN CROP","Left","200","120","2","NETTLE WEED","experimental","70","1,2,3,4,5,6,7,8","180,208.94626619862112,214.65675692410878,204.65417921847632,186.63793486440974,225.60147682519406,219.72110746009608,232.0392635804689","8,7,6,5,4,3,2,1","CORN CROP,CORN CROP,CORN CROP,CORN CROP,CORN CROP,CORN CROP,CORN CROP,CORN CROP","120,137.13321791644688,140,161.5611722815046,161.820535151623,148.573302629489,180.46027384125196,202.75810394903104","2,1,6,5,4,3,2,1","NETTLE WEED,NETTLE WEED,THISTLE WEED,THISTLE WEED,THISTLE WEED,THISTLE WEED,THISTLE WEED,THISTLE WEED","20,20,20,20,20,20,20,20","20,20,20,20,20,20,20,20","10,10,10,10,10,10,10,10","20,20,20,20,20,20,20,20","0,0,0,0,0,0,0,0","20,20,20,20,20,20,20,20","20,20,20,20,20,20,20,20","20,20,20,20,20,20,20,20","10,10,10,10,10,10,10,10","20,20,20,20,20,20,20,20","0,0,0,0,0,0,0,0","20,20,20,20,20,20,20,20","0,0,1,1,1,1,1,1","3928,1572,2357,404,1114,658,731,1527","28.94626619862112,5.710490725487672,-10.002577705632472,-18.016244354066576,38.96354196078432,-5.880369365097968,12.318156120372834,-19.443875098065163","17.133217916446892,25.609948619998292,21.561172281504607,0.25936287011840287,-13.247232522133995,31.88697121176295,22.29783010777908,-1.848084868728609","0","0"
"475","86","text","0","167","1373359","0-0","","","","","","","","","","","","","","","","","","","","","","","","","","","","","","","","","","","","",""
"","","plant-game","0","168","1380972","0-0","","200","160","2","CORN CROP","Right","200","190","2","NETTLE WEED","experimental","71","1,2","190,192.14284400344292","2,1","NETTLE WEED,NETTLE WEED","160,181.3543475613059","2,1","CORN CROP,CORN CROP","0,0","20,20","10,10","20,20","20,20","20,20","0,0","20,20","10,10","20,20","20,20","20,20","0,0","4551,361","2.1428440034429115,-16.14176816282203","21.3543475613059,-11.96357836874693","0","0"
"433","86","text","0","169","1381515","0-0","","","","","","","","","","","","","","","","","","","","","","","","","","","","","","","","","","","","",""
"","","plant-game","0","170","1397921","0-0","","200","180","8","CORN CROP","Right","200","160","1","THISTLE WEED","experimental","72","1,2,3,4,5,6,7,8","160,130,149.86154121143701,130.38143046342356,153.167381929782,150.92778973738635,186.30130480891583,207.3946750175472","1,7,6,5,4,3,2,1","THISTLE WEED,NETTLE WEED,NETTLE WEED,NETTLE WEED,NETTLE WEED,NETTLE WEED,NETTLE WEED,NETTLE WEED","180,217.05306126708757,219.3155292045899,200.27443606948077,251.26724128191174,268.30967863045794,262.73599775728843,275.0328315038913","8,7,6,5,4,3,2,1","CORN CROP,CORN CROP,CORN CROP,CORN CROP,CORN CROP,CORN CROP,CORN CROP,CORN CROP","0,0,0,0,0,0,0,0","20,20,20,20,20,20,20,20","10,10,10,10,10,10,10,10","20,20,20,20,20,20,20,20","20,20,20,20,20,20,20,20","20,20,20,20,20,20,20,20","0,0,0,0,0,0,0,0","20,20,20,20,20,20,20,20","10,10,10,10,10,10,10,10","20,20,20,20,20,20,20,20","20,20,20,20,20,20,20,20","20,20,20,20,20,20,20,20","1,0,0,0,0,0,0,0","3392,1845,710,951,825,450,478,947","23.908631666121416,19.861541211437004,-19.480110748013466,22.785951466358455,-2.2395921923956648,35.37351507152948,21.09337020863137,-14.581504295959055","37.05306126708758,2.2624679375023122,-19.04109313510913,50.992805212430966,17.042437348546176,-5.573680873169517,12.296833746602873,-34.77380162597821","0","0"
"481","86","text","0","171","1398482","0-0","","","","","","","","","","","","","","","","","","","","","","","","","","","","","","","","","","","","",""
"","","plant-game","0","172","1410930","0-0","","200","190","8","WHEAT CROP","Left","200","190","1","THISTLE WEED","experimental","73","1,2,3,4,5,6,7,8","190,242.3309428607294,292.14411308034397,300.4527256973576,303.29219926818683,298.4492444048375,303.8702538536489,288.5050647921636","8,7,6,5,4,3,2,1","WHEAT CROP,WHEAT CROP,WHEAT CROP,WHEAT CROP,WHEAT CROP,WHEAT CROP,WHEAT CROP,WHEAT CROP","190,130,147.49560297382487,108.43656444635235,128.5307600976605,112.23883289306184,115.63604590603501,116.32440823627985","1,7,6,5,4,3,2,1","THISTLE WEED,NETTLE WEED,NETTLE WEED,NETTLE WEED,NETTLE WEED,NETTLE WEED,NETTLE WEED,NETTLE WEED","20,20,20,20,20,20,20,20","20,20,20,20,20,20,20,20","10,10,10,10,10,10,10,10","20,20,20,20,20,20,20,20","0,0,0,0,0,0,0,0","20,20,20,20,20,20,20,20","20,20,20,20,20,20,20,20","20,20,20,20,20,20,20,20","10,10,10,10,10,10,10,10","20,20,20,20,20,20,20,20","0,0,0,0,0,0,0,0","20,20,20,20,20,20,20,20","1,0,1,1,1,1,1,1","3221,1973,749,409,419,377,324,228","52.330942860729415,49.81317021961456,8.308612617013656,2.8394735708292353,-4.842954863349367,5.4210094488114136,-15.365189061485324,-31.648901038642467","3.572898589869826,17.495602973824873,-39.05903852747252,20.09419565130817,-16.291927204598657,3.397213012973173,0.688362330244846,6.370078118406476","0","0"
"144","86","text","0","173","1411164","0-0","","","","","","","","","","","","","","","","","","","","","","","","","","","","","","","","","","","","",""
"","","plant-game","0","174","1424575","0-0","","200","160","2","CORN CROP","Left","200","180","8","NETTLE WEED","experimental","74","1,2,3,4,5,6,7,8","160,184.79176462312034,140,156.7152410453608,174.57671667318328,161.88506255938464,140.58954895791962,135.24576035752617","2,1,6,5,4,3,2,1","CORN CROP,CORN CROP,WHEAT CROP,WHEAT CROP,WHEAT CROP,WHEAT CROP,WHEAT CROP,WHEAT CROP","180,226.45614620665876,248.63636834399358,246.15459317369218,271.5542257450189,249.22235760912457,236.1294665238134,230.3982722361101","8,7,6,5,4,3,2,1","NETTLE WEED,NETTLE WEED,NETTLE WEED,NETTLE WEED,NETTLE WEED,NETTLE WEED,NETTLE WEED,NETTLE WEED","20,20,20,20,20,20,20,20","20,20,20,20,20,20,20,20","10,10,10,10,10,10,10,10","20,20,20,20,20,20,20,20","0,0,0,0,0,0,0,0","20,20,20,20,20,20,20,20","20,20,20,20,20,20,20,20","20,20,20,20,20,20,20,20","10,10,10,10,10,10,10,10","20,20,20,20,20,20,20,20","0,0,0,0,0,0,0,0","20,20,20,20,20,20,20,20","0,0,1,1,1,1,1,1","2567,84,2213,367,1085,486,950,1065","24.79176462312033,17.413683232270635,16.7152410453608,17.861475627822486,-12.691654113798645,-21.295513601465025,-5.3437886003934505,14.751479547798162","46.45614620665875,22.180222137334816,-2.481775170301409,25.39963257132672,-22.33186813589434,-13.092891085311189,-5.731194287703284,-7.616637325760832","0","0"
"398","86","text","0","175","1425053","0-0","","","","","","","","","","","","","","","","","","","","","","","","","","","","","","","","","","","","",""
"","","plant-game","0","176","1435345","0-0","","200","180","1","CORN CROP","Right","200","120","2","NETTLE WEED","experimental","75","1,2","120,125.5595940436381","2,1","NETTLE WEED,NETTLE WEED","180,190","1,1","CORN CROP,WHEAT CROP","0,0","20,20","10,10","20,20","20,20","20,20","0,0","20,20","10,10","20,20","20,20","20,20","1,1","3941,1628","5.5595940436381,18.52946508847851","15.719470040958775,4.778107692365348","0","0"
"514","86","text","0","177","1435937","0-0","","","","","","","","","","","","","","","","","","","","","","","","","","","","","","","","","","","","",""
"","","plant-game","0","178","1452979","0-0","","200","190","2","CORN CROP","Left","200","180","8","NETTLE WEED","experimental","76","1,2,3,4,5,6,7,8","190,191.63876074258346,140,145.6557314224957,190.2815731219613,181.1286984812952,189.3533491212955,162.91597313642646","2,1,6,5,4,3,2,1","CORN CROP,CORN CROP,WHEAT CROP,WHEAT CROP,WHEAT CROP,WHEAT CROP,WHEAT CROP,WHEAT CROP","180,216.9184520838627,226.16497143608828,208.96165818414062,188.16337482046154,210.16064706952798,234.44709876686386,250.55432918406294","8,7,6,5,4,3,2,1","NETTLE WEED,NETTLE WEED,NETTLE WEED,NETTLE WEED,NETTLE WEED,NETTLE WEED,NETTLE WEED,NETTLE WEED","20,20,20,20,20,20,20,20","20,20,20,20,20,20,20,20","10,10,10,10,10,10,10,10","20,20,20,20,20,20,20,20","0,0,0,0,0,0,0,0","20,20,20,20,20,20,20,20","20,20,20,20,20,20,20,20","20,20,20,20,20,20,20,20","10,10,10,10,10,10,10,10","20,20,20,20,20,20,20,20","0,0,0,0,0,0,0,0","20,20,20,20,20,20,20,20","0,0,1,1,1,1,1,0","2778,603,3354,376,1171,546,825,1185","1.6387607425834645,0.15847237701187922,5.655731422495708,44.62584169946558,-9.15287464066608,8.224650640000302,-26.437375984869046,45.47716237535504","36.918452083862704,9.246519352225597,-17.203313251947666,-20.79828336367907,21.997272249066434,24.286451697335863,16.10723041719907,52.171370595940026","0","0"
"441","86","text","0","179","1453500","0-0","","","","","","","","","","","","","","","","","","","","","","","","","","","","","","","","","","","","",""
"","","plant-game","0","180","1467885","0-0","","200","180","1","WHEAT CROP","Right","200","190","4","NETTLE WEED","experimental","77","1,2,3,4","190,187.06696686082833,190.0860716587414,201.2601821761636","4,3,2,1","NETTLE WEED,NETTLE WEED,NETTLE WEED,NETTLE WEED","180,170,166.09871068191256,165.7050456114858","1,3,2,1","WHEAT CROP,CORN CROP,CORN CROP,CORN CROP","0,0,0,0","20,20,20,20","10,10,10,10","20,20,20,20","20,20,20,20","20,20,20,20","0,0,0,0","20,20,20,20","10,10,10,10","20,20,20,20","20,20,20,20","20,20,20,20","1,0,0,1","4767,3080,565,1508","-2.9330331391716733,3.0191047979130587,11.174110517422221,60.42680087899587","7.515877374497663,-3.9012893180874326,-0.3936650704267728,3.501366104201015","0","0"
"240","86","text","0","181","1468198","0-0","","","","","","","","","","","","","","","","","","","","","","","","","","","","","","","","","","","","",""
"","","plant-game","0","182","1486349","0-0","","200","160","8","WHEAT CROP","Left","200","180","1","THISTLE WEED","experimental","78","1,2,3,4,5,6,7,8","160,197.3148037377917,195.6915922244531,201.20839507736804,207.497586809064,187.23348554578743,152.8804831978107,185.50137110236102","8,7,6,5,4,3,2,1","WHEAT CROP,WHEAT CROP,WHEAT CROP,WHEAT CROP,WHEAT CROP,WHEAT CROP,WHEAT CROP,WHEAT CROP","180,130,137.71342923477334,117.51442840476331,127.39929113081452,95.66781172078788,86.67804797900793,71.18443861423009","1,7,6,5,4,3,2,1","THISTLE WEED,NETTLE WEED,NETTLE WEED,NETTLE WEED,NETTLE WEED,NETTLE WEED,NETTLE WEED,NETTLE WEED","20,20,20,20,20,20,20,20","20,20,20,20,20,20,20,20","10,10,10,10,10,10,10,10","20,20,20,20,20,20,20,20","0,0,0,0,0,0,0,0","20,20,20,20,20,20,20,20","20,20,20,20,20,20,20,20","20,20,20,20,20,20,20,20","10,10,10,10,10,10,10,10","20,20,20,20,20,20,20,20","0,0,0,0,0,0,0,0","20,20,20,20,20,20,20,20","0,1,1,1,1,1,0,0","5519,3193,1000,794,487,555,1167,391","37.31480373779168,-1.6232115133385903,5.516802852914923,6.289191731695948,-20.26410126327655,-34.353002347976755,32.620887904550315,20.430405728225217","44.98083587715635,7.713429234773356,-20.199000830010032,9.884862726051207,-31.731479410026637,-8.989763741779958,-15.493609364777832,43.28671172472314","0","0"
"120","86","text","0","183","1486559","0-0","","","","","","","","","","","","","","","","","","","","","","","","","","","","","","","","","","","","",""
"","","plant-game","0","184","1498879","0-0","","200","190","2","CORN CROP","Right","200","160","4","THISTLE WEED","experimental","79","1,2,3,4","160,192.22521251215895,189.24021932287616,240.81516232581828","4,3,2,1","THISTLE WEED,THISTLE WEED,THISTLE WEED,THISTLE WEED","190,217.11858914748996,180,178.9572620970651","2,1,2,1","CORN CROP,CORN CROP,WHEAT CROP,WHEAT CROP","0,0,0,0","20,20,20,20","10,10,10,10","20,20,20,20","20,20,20,20","20,20,20,20","0,0,0,0","20,20,20,20","10,10,10,10","20,20,20,20","20,20,20,20","20,20,20,20","1,1,1,1","2801,2654,1998,607","32.22521251215894,-2.9849931892827932,51.57494300294211,36.34722186019921","27.118589147489942,-0.2192092147106841,-1.0427379029349098,10.291653226687533","0","0"
"455","86","text","0","185","1499414","0-0","","","","","","","","","","","","","","","","","","","","","","","","","","","","","","","","","","","","",""
"","","plant-game","0","186","1514274","0-0","","200","120","8","WHEAT CROP","Left","200","160","4","NETTLE WEED","experimental","80","1,2,3,4,5,6,7,8","120,111.02330531932921,123.22190232852422,127.90712587598017,178.1225802024649,179.00026481634987,198.5272148806631,207.38767272921228","8,7,6,5,4,3,2,1","WHEAT CROP,WHEAT CROP,WHEAT CROP,WHEAT CROP,WHEAT CROP,WHEAT CROP,WHEAT CROP,WHEAT CROP","160,160.7553247370005,192.64279290456187,211.26424669573203,160,192.93978047508148,213.87052155231177,248.35936110055303","4,3,2,1,4,3,2,1","NETTLE WEED,NETTLE WEED,NETTLE WEED,NETTLE WEED,THISTLE WEED,THISTLE WEED,THISTLE WEED,THISTLE WEED","20,20,20,20,20,20,20,20","20,20,20,20,20,20,20,20","10,10,10,10,10,10,10,10","20,20,20,20,20,20,20,20","0,0,0,0,0,0,0,0","20,20,20,20,20,20,20,20","20,20,20,20,20,20,20,20","20,20,20,20,20,20,20,20","10,10,10,10,10,10,10,10","20,20,20,20,20,20,20,20","0,0,0,0,0,0,0,0","20,20,20,20,20,20,20,20","1,1,1,1,0,0,0,0","2522,392,719,948,2135,422,1616,1041","-8.976694680670786,12.198597009195018,4.68522354745595,50.215454326484725,0.8776846138849734,19.526950064313226,8.860457848549162,16.798953154201772","0.7553247370005207,31.88746816756138,18.62145379117015,4.072839546285599,32.93978047508148,20.930741077230298,34.48883954824126,-0.6517406769295704","0","0"
"4355","86","text","0","187","1518709","0-0","","","","","","","","","","","","","","","","","","","","","","","","","","","","","","","","","","","","",""
