"rt","key_press","trial_type","trial_index","trial_index_global","time_elapsed","internal_chunk_id","responses","experimental_goal_height","experimental_start_height","experimental_weeks_total","experimental_crop_type","experimental_crop_side","fixed_goal_height","fixed_start_height","fixed_weeks_total","fixed_crop_type","trial_kind","trial_number","stage","left_current_height","left_weeks_remaining","left_crop_type","right_current_height","right_weeks_remaining","right_crop_type","mean_left_growth_given_left","sd_left_growth_given_left","mean_left_growth_given_middle","sd_left_growth_given_middle","mean_left_growth_given_right","sd_left_growth_given_right","mean_right_growth_given_left","sd_right_growth_given_left","mean_right_growth_given_middle","sd_right_growth_given_middle","mean_right_growth_given_right","sd_right_growth_given_right","response","response_time","left_growth","right_growth","other_key_pressed","mouse_clicked"
"10063260","87","text","0","0","10063324","0-0","","","","","","","","","","","","","","","","","","","","","","","","","","","","","","","","","","","","",""
"4681","","survey-text","0","1","10069031","0-0","{""Q0"":""18""}","","","","","","","","","","","","","","","","","","","","","","","","","","","","","","","","","","","",""
"5488","86","text","0","2","5628","0-0","","","","","","","","","","","","","","","","","","","","","","","","","","","","","","","","","","","","",""
"","","plant-game","0","3","66504","0-0","","200","120","8","WHEAT CROP","Right","200","120","8","THISTLE WEED","practice","1","1,2,3,4,5,6,7,8","120,130.58851098685233,143.08311597959556,131.07431203047386,87.5540970695095,122.48721113242898,131.66167278768458,138.76876959789257","8,7,6,5,4,3,2,1","THISTLE WEED,THISTLE WEED,THISTLE WEED,THISTLE WEED,THISTLE WEED,THISTLE WEED,THISTLE WEED,THISTLE WEED","120,187.02133323384533,183.3154805890459,182.93865154479428,184.47484210723871,145.78967706117496,155.3965790367283,135.13563324188465","8,7,6,5,4,3,2,1","WHEAT CROP,WHEAT CROP,WHEAT CROP,WHEAT CROP,WHEAT CROP,WHEAT CROP,WHEAT CROP,WHEAT CROP","0,0,0,0,0,0,0,0","20,20,20,20,20,20,20,20","10,10,10,10,10,10,10,10","20,20,20,20,20,20,20,20","20,20,20,20,20,20,20,20","20,20,20,20,20,20,20,20","0,0,0,0,0,0,0,0","20,20,20,20,20,20,20,20","10,10,10,10,10,10,10,10","20,20,20,20,20,20,20,20","20,20,20,20,20,20,20,20","20,20,20,20,20,20,20,20","1,0,0,0,0,0,0,0","10680,8179,5916,1554,595,1593,532,587","10.588510986852324,12.494604992743234,-12.0088039491217,-43.52021496096437,34.933114062919486,9.174461655255588,7.1070968102080005,27.01435120372684","67.02133323384533,-3.705852644799431,-0.3768290442516278,1.536190562444438,-38.68516504606375,9.606901975553349,-20.26094579484365,-39.85888969833228","0","0"
"1048","86","text","0","4","67646","0-0","","","","","","","","","","","","","","","","","","","","","","","","","","","","","","","","","","","","",""
"","","plant-game","0","5","94513","0-0","","200","160","4","WHEAT CROP","Right","200","160","4","THISTLE WEED","practice","2","1,2,3,4","160,195.4288572263101,217.0085911677812,179.0004075644709","4,3,2,1","THISTLE WEED,THISTLE WEED,THISTLE WEED,THISTLE WEED","160,188.52089904924867,225.58196016180122,239.8380832212042","4,3,2,1","WHEAT CROP,WHEAT CROP,WHEAT CROP,WHEAT CROP","0,0,0,0","20,20,20,20","10,10,10,10","20,20,20,20","20,20,20,20","20,20,20,20","0,0,0,0","20,20,20,20","10,10,10,10","20,20,20,20","20,20,20,20","20,20,20,20","0,1,0,1","3307,3467,808,2418","35.42885722631011,21.579733941471087,-38.0081836033103,17.741892683820854","28.520899049248683,37.061061112552544,14.256123059402954,-12.581930293390563","0","0"
"999","86","text","0","6","95662","0-0","","","","","","","","","","","","","","","","","","","","","","","","","","","","","","","","","","","","",""
"","","plant-game","0","7","111615","0-0","","200","180","2","WHEAT CROP","Right","200","180","2","THISTLE WEED","practice","3","1,2","180,177.3002496175736","2,1","THISTLE WEED,THISTLE WEED","180,182.0022930232734","2,1","WHEAT CROP,WHEAT CROP","0,0","20,20","10,10","20,20","20,20","20,20","0,0","20,20","10,10","20,20","20,20","20,20","0,0","2741,1088","-2.6997503824263895,18.28051145357626","2.002293023273414,-7.557660175324744","0","0"
"757","86","text","0","8","112482","0-0","","","","","","","","","","","","","","","","","","","","","","","","","","","","","","","","","","","","",""
"","","plant-game","0","9","130736","0-0","","200","190","1","WHEAT CROP","Left","200","190","1","NETTLE WEED","practice","4","1","190","1","WHEAT CROP","190","1","NETTLE WEED","20","20","10","20","0","20","20","20","10","20","0","20","1","5382","1.405333306133142","1.0927894036515178","0","0"
"1442","86","text","0","10","132287","0-0","","","","","","","","","","","","","","","","","","","","","","","","","","","","","","","","","","","","",""
"","","plant-game","0","11","153284","0-0","","200","120","8","CORN CROP","Right","200","160","8","THISTLE WEED","practice","5","1,2,3,4,5,6,7,8","160,123.6827131431052,168.57278282094103,163.93004067641112,159.92770082964336,222.68703657580824,218.9434242423333,248.15563985064028","8,7,6,5,4,3,2,1","THISTLE WEED,THISTLE WEED,THISTLE WEED,THISTLE WEED,THISTLE WEED,THISTLE WEED,THISTLE WEED,THISTLE WEED","120,89.8460121408513,100.67425992846438,122.43329661206323,134.35019052999004,161.5297358220439,178.4628000592629,125.68734348288739","8,7,6,5,4,3,2,1","CORN CROP,CORN CROP,CORN CROP,CORN CROP,CORN CROP,CORN CROP,CORN CROP,CORN CROP","0,0,0,0,0,0,0,0","20,20,20,20,20,20,20,20","10,10,10,10,10,10,10,10","20,20,20,20,20,20,20,20","20,20,20,20,20,20,20,20","20,20,20,20,20,20,20,20","0,0,0,0,0,0,0,0","20,20,20,20,20,20,20,20","10,10,10,10,10,10,10,10","20,20,20,20,20,20,20,20","20,20,20,20,20,20,20,20","20,20,20,20,20,20,20,20","0,1,0,0,1,0,0,1","3549,919,1549,918,706,793,513,703","-36.317286856894796,44.89006967783581,-4.642742144529917,-4.002339846767754,62.75933574616488,-3.743612333474948,29.212215608307005,11.587055364981744","-30.1539878591487,10.828247787613085,21.759036683598843,11.916893917926817,27.179545292053845,16.933064237218993,-52.775456576375504,38.58025257512656","0","0"
"536","86","text","0","12","153920","0-0","","","","","","","","","","","","","","","","","","","","","","","","","","","","","","","","","","","","",""
"","","plant-game","0","13","173453","0-0","","200","180","4","WHEAT CROP","Right","200","160","4","THISTLE WEED","practice","6","1,2,3,4","160,127.73975477212383,100.52071989614626,86.47198544112692","4,3,2,1","THISTLE WEED,THISTLE WEED,THISTLE WEED,THISTLE WEED","180,207.79417103213484,219.42145080281156,194.00930800264834","4,3,2,1","WHEAT CROP,WHEAT CROP,WHEAT CROP,WHEAT CROP","0,0,0,0","20,20,20,20","10,10,10,10","20,20,20,20","20,20,20,20","20,20,20,20","0,0,0,0","20,20,20,20","10,10,10,10","20,20,20,20","20,20,20,20","20,20,20,20","0,0,0,0","5810,3636,1413,945","-32.260245227876176,-27.219034875977563,-14.048734455019341,7.898326718004301","27.79417103213483,11.627279770676713,-25.412142800163224,-4.992013445029495","0","0"
"643","86","text","0","14","174196","0-0","","","","","","","","","","","","","","","","","","","","","","","","","","","","","","","","","","","","",""
"","","plant-game","0","15","183772","0-0","","200","180","2","CORN CROP","Right","200","190","2","THISTLE WEED","practice","7","1,2","190,258.78056589078","2,1","THISTLE WEED,THISTLE WEED","180,165.1041476788525","2,1","CORN CROP,CORN CROP","0,0","20,20","10,10","20,20","20,20","20,20","0,0","20,20","10,10","20,20","20,20","20,20","1,0","2357,910","68.78056589078001,10.968181557446856","-14.89585232114748,-29.17338051142479","0","0"
"1612","86","text","0","16","185494","0-0","","","","","","","","","","","","","","","","","","","","","","","","","","","","","","","","","","","","",""
"","","plant-game","0","17","223328","0-0","","200","120","4","CORN CROP","Right","200","120","8","NETTLE WEED","practice","8","1,2,3,4,5,6,7,8","120,106.6273356638429,99.35985447875596,115.50129234913629,96.23294665606834,105.0128420358286,125.6763477641432,157.576661560392","8,7,6,5,4,3,2,1","NETTLE WEED,NETTLE WEED,NETTLE WEED,NETTLE WEED,NETTLE WEED,NETTLE WEED,NETTLE WEED,NETTLE WEED","120,133.69822239334923,169.8298533874998,171.34983132930586,160,178.14779180030413,191.10344574464352,203.83848519871617","4,3,2,1,4,3,2,1","CORN CROP,CORN CROP,CORN CROP,CORN CROP,WHEAT CROP,WHEAT CROP,WHEAT CROP,WHEAT CROP","0,0,0,0,0,0,0,0","20,20,20,20,20,20,20,20","10,10,10,10,10,10,10,10","20,20,20,20,20,20,20,20","20,20,20,20,20,20,20,20","20,20,20,20,20,20,20,20","0,0,0,0,0,0,0,0","20,20,20,20,20,20,20,20","10,10,10,10,10,10,10,10","20,20,20,20,20,20,20,20","20,20,20,20,20,20,20,20","20,20,20,20,20,20,20,20","0,0,0,0,1,1,1,1","1176,983,3014,2682,4035,1172,2081,1907","-13.372664336157102,-7.267481185086937,16.14143787038033,-19.268345693067953,8.779895379760267,20.6635057283146,31.9003137962488,55.87686916765047","13.698222393349226,36.13163099415058,1.5199779418060524,-10.06518025462011,18.147791800304145,12.955653944339375,12.73503945407264,17.213530416248734","0","0"
"630","86","text","0","18","224068","0-0","","","","","","","","","","","","","","","","","","","","","","","","","","","","","","","","","","","","",""
"","","plant-game","0","19","250294","0-0","","200","160","4","CORN CROP","Right","200","160","2","THISTLE WEED","practice","9","1,2,3,4","160,184.4264143409318,180,174.05590728465933","2,1,2,1","THISTLE WEED,THISTLE WEED,NETTLE WEED,NETTLE WEED","160,166.70984845234258,176.85382592423105,184.78555462552248","4,3,2,1","CORN CROP,CORN CROP,CORN CROP,CORN CROP","0,0,0,0","20,20,20,20","10,10,10,10","20,20,20,20","20,20,20,20","20,20,20,20","0,0,0,0","20,20,20,20","10,10,10,10","20,20,20,20","20,20,20,20","20,20,20,20","1,1,0,0","3650,3874,2849,782","24.426414340931803,-2.3634719033597165,-5.944092715340659,-7.000802460052286","6.709848452342573,10.143977471888453,7.931728701291426,1.242575935207665","0","0"
"483","86","text","0","20","250933","0-0","","","","","","","","","","","","","","","","","","","","","","","","","","","","","","","","","","","","",""
"","","plant-game","0","21","277226","0-0","","200","180","2","WHEAT CROP","Left","200","180","1","THISTLE WEED","practice","10","1,2","180,212.2414199654807","2,1","WHEAT CROP,WHEAT CROP","180,190","1,1","THISTLE WEED,NETTLE WEED","20,20","20,20","10,10","20,20","0,0","20,20","20,20","20,20","10,10","20,20","0,0","20,20","0,1","7133,3152","32.24141996548069,-0.06922743243779365","8.932856560824154,1.342324922293566","0","0"
"727","86","text","0","22","278063","0-0","","","","","","","","","","","","","","","","","","","","","","","","","","","","","","","","","","","","",""
"","","plant-game","0","23","305535","0-0","","200","120","8","WHEAT CROP","Left","200","160","4","NETTLE WEED","practice","11","1,2,3,4,5,6,7,8","120,149.43005820269602,138.15062430664935,141.63260674664224,196.36108470024195,210.06573150484311,247.18796355478315,251.08757019327854","8,7,6,5,4,3,2,1","WHEAT CROP,WHEAT CROP,WHEAT CROP,WHEAT CROP,WHEAT CROP,WHEAT CROP,WHEAT CROP,WHEAT CROP","160,191.5107685629747,196.7680268359221,189.90941387504384,160,133.0009758738494,169.50458601519898,184.43505950119888","4,3,2,1,4,3,2,1","NETTLE WEED,NETTLE WEED,NETTLE WEED,NETTLE WEED,THISTLE WEED,THISTLE WEED,THISTLE WEED,THISTLE WEED","20,20,20,20,20,20,20,20","20,20,20,20,20,20,20,20","10,10,10,10,10,10,10,10","20,20,20,20,20,20,20,20","0,0,0,0,0,0,0,0","20,20,20,20,20,20,20,20","20,20,20,20,20,20,20,20","20,20,20,20,20,20,20,20","10,10,10,10,10,10,10,10","20,20,20,20,20,20,20,20","0,0,0,0,0,0,0,0","20,20,20,20,20,20,20,20","0,1,0,0,1,0,1,0","370,1626,909,912,3071,1977,1066,1103","29.430058202696024,-11.279433896046678,3.48198243999288,54.72847795359971,13.704646804601179,37.12223204994005,3.8996066384953836,54.332325473223456","31.510768562974693,5.257258272947376,-6.85861296087824,5.471705403855394,-26.999024126150598,36.503610141349576,14.930473485999887,23.891523372541158","0","0"
"631","86","text","0","24","306275","0-0","","","","","","","","","","","","","","","","","","","","","","","","","","","","","","","","","","","","",""
"","","plant-game","0","25","331973","0-0","","200","180","2","CORN CROP","Left","200","160","4","NETTLE WEED","practice","12","1,2,3,4","180,217.12239654975812,180,154.40664918568712","2,1,2,1","CORN CROP,CORN CROP,WHEAT CROP,WHEAT CROP","160,165.78872469067827,189.6354539401988,194.9913975205979","4,3,2,1","NETTLE WEED,NETTLE WEED,NETTLE WEED,NETTLE WEED","20,20,20,20","20,20,20,20","10,10,10,10","20,20,20,20","0,0,0,0","20,20,20,20","20,20,20,20","20,20,20,20","10,10,10,10","20,20,20,20","0,0,0,0","20,20,20,20","0,1,1,1","2870,3398,1466,5528","37.12239654975812,8.191674160768676,-25.59335081431289,14.805050111586231","5.788724690678253,23.846729249520525,5.355943580399103,9.921855719078806","0","0"
"569","86","text","0","26","332652","0-0","","","","","","","","","","","","","","","","","","","","","","","","","","","","","","","","","","","","",""
"7677","86","text","0","27","341481","0-0","","","","","","","","","","","","","","","","","","","","","","","","","","","","","","","","","","","","",""
"","","plant-game","0","28","360110","0-0","","200","190","8","WHEAT CROP","Right","200","180","8","THISTLE WEED","experimental","1","1,2,3,4,5,6,7,8","180,171.544349147828,172.6391007781204,154.31553259916564,168.54952693127015,199.1011589482829,212.2961309348857,233.66056030043174","8,7,6,5,4,3,2,1","THISTLE WEED,THISTLE WEED,THISTLE WEED,THISTLE WEED,THISTLE WEED,THISTLE WEED,THISTLE WEED,THISTLE WEED","190,196.74167788804306,152.59885227596845,132.66892354395588,139.81558346664764,127.42753445539319,116.20223808555704,95.00310495320655","8,7,6,5,4,3,2,1","WHEAT CROP,WHEAT CROP,WHEAT CROP,WHEAT CROP,WHEAT CROP,WHEAT CROP,WHEAT CROP,WHEAT CROP","0,0,0,0,0,0,0,0","20,20,20,20,20,20,20,20","10,10,10,10,10,10,10,10","20,20,20,20,20,20,20,20","20,20,20,20,20,20,20,20","20,20,20,20,20,20,20,20","0,0,0,0,0,0,0,0","20,20,20,20,20,20,20,20","10,10,10,10,10,10,10,10","20,20,20,20,20,20,20,20","20,20,20,20,20,20,20,20","20,20,20,20,20,20,20,20","0,0,0,0,1,0,1,0","5131,1861,3147,943,755,593,686,527","-8.455650852171996,1.0947516302923803,-18.323568178954755,14.233994332104526,30.551632017012732,13.19497198660282,21.364429365546055,-25.751173687546025","6.741677888043045,-44.1428256120746,-19.929928732012577,7.146659922691744,-12.388049011254445,-11.225296369836148,-21.199133132350497,7.813933825164586","0","0"
"950","86","text","0","29","361180","0-0","","","","","","","","","","","","","","","","","","","","","","","","","","","","","","","","","","","","",""
"","","plant-game","0","30","373466","0-0","","200","190","4","WHEAT CROP","Right","200","180","4","THISTLE WEED","experimental","2","1,2,3,4","180,150.8372640254253,155.2883490224403,165.1383381405164","4,3,2,1","THISTLE WEED,THISTLE WEED,THISTLE WEED,THISTLE WEED","190,204.00726838076443,233.36705381835355,243.40335365059144","4,3,2,1","WHEAT CROP,WHEAT CROP,WHEAT CROP,WHEAT CROP","0,0,0,0","20,20,20,20","10,10,10,10","20,20,20,20","20,20,20,20","20,20,20,20","0,0,0,0","20,20,20,20","10,10,10,10","20,20,20,20","20,20,20,20","20,20,20,20","0,1,1,1","3298,1560,1415,2233","-29.162735974574694,4.451084997015002,9.8499891180761,83.53226078686231","14.007268380764442,29.359785437589125,10.036299832237896,36.22589283533328","0","0"
"589","86","text","0","31","374155","0-0","","","","","","","","","","","","","","","","","","","","","","","","","","","","","","","","","","","","",""
"","","plant-game","0","32","397244","0-0","","200","160","8","WHEAT CROP","Right","200","160","1","THISTLE WEED","experimental","3","1,2,3,4,5,6,7,8","160,130,109.23359633735588,73.47470923537392,87.29972819268902,76.2496388476867,103.8303438208419,144.7417509657128","1,7,6,5,4,3,2,1","THISTLE WEED,NETTLE WEED,NETTLE WEED,NETTLE WEED,NETTLE WEED,NETTLE WEED,NETTLE WEED,NETTLE WEED","160,151.8853835665687,131.62419571878107,156.09019386373464,211.8573692712472,201.85643189460978,212.38170159980442,217.3076761744667","8,7,6,5,4,3,2,1","WHEAT CROP,WHEAT CROP,WHEAT CROP,WHEAT CROP,WHEAT CROP,WHEAT CROP,WHEAT CROP,WHEAT CROP","0,0,0,0,0,0,0,0","20,20,20,20,20,20,20,20","10,10,10,10,10,10,10,10","20,20,20,20,20,20,20,20","20,20,20,20,20,20,20,20","20,20,20,20,20,20,20,20","0,0,0,0,0,0,0,0","20,20,20,20,20,20,20,20","10,10,10,10,10,10,10,10","20,20,20,20,20,20,20,20","20,20,20,20,20,20,20,20","20,20,20,20,20,20,20,20","0,0,0,1,0,1,0,1","1856,1932,2460,1779,1162,1642,1033,3134","15.968321271025621,-20.76640366264412,-35.758887101981955,13.825018957315095,-11.05008934500232,27.58070497315521,40.9114071448709,11.326830016651693","-8.114616433431298,-20.261187847787625,24.465998144953574,55.76717540751255,-10.000937376637411,10.52526970519462,4.92597457466228,54.57148111143232","0","0"
"639","86","text","0","33","397953","0-0","","","","","","","","","","","","","","","","","","","","","","","","","","","","","","","","","","","","",""
"","","plant-game","0","34","417875","0-0","","200","180","1","CORN CROP","Left","200","120","8","THISTLE WEED","experimental","4","1,2,3,4,5,6,7,8","180,130,135.8206213465341,137.0435953564076,140.00126383282,138.78178251971116,171.69683593814347,191.10217432740322","1,7,6,5,4,3,2,1","CORN CROP,WHEAT CROP,WHEAT CROP,WHEAT CROP,WHEAT CROP,WHEAT CROP,WHEAT CROP,WHEAT CROP","120,136.01980085071955,125.41159805665329,165.11639479241632,192.19028269562253,192.62804103365815,210.52899070794868,212.65644045781042","8,7,6,5,4,3,2,1","THISTLE WEED,THISTLE WEED,THISTLE WEED,THISTLE WEED,THISTLE WEED,THISTLE WEED,THISTLE WEED,THISTLE WEED","20,20,20,20,20,20,20,20","20,20,20,20,20,20,20,20","10,10,10,10,10,10,10,10","20,20,20,20,20,20,20,20","0,0,0,0,0,0,0,0","20,20,20,20,20,20,20,20","20,20,20,20,20,20,20,20","20,20,20,20,20,20,20,20","10,10,10,10,10,10,10,10","20,20,20,20,20,20,20,20","0,0,0,0,0,0,0,0","20,20,20,20,20,20,20,20","1,1,1,0,1,0,1,1","3464,2434,577,777,559,2448,905,1068","10.52051450319555,5.820621346534093,1.222974009873509,2.957668476412408,-1.2194813131088449,32.91505341843232,19.405338389259743,19.636000375648997","16.01980085071956,-10.608202794066264,39.70479673576303,27.073887903206213,0.4377583380356105,17.90094967429054,2.1274497498617366,-16.371442694460235","1","0"
"622","86","text","0","35","418624","0-0","","","","","","","","","","","","","","","","","","","","","","","","","","","","","","","","","","","","",""
"","","plant-game","0","36","433656","0-0","","200","180","2","WHEAT CROP","Left","200","120","4","NETTLE WEED","experimental","5","1,2,3,4","180,174.89085029259445,180,198.94123522038998","2,1,2,1","WHEAT CROP,WHEAT CROP,CORN CROP,CORN CROP","120,131.87819209159954,115.18242389357047,129.69578143976446","4,3,2,1","NETTLE WEED,NETTLE WEED,NETTLE WEED,NETTLE WEED","20,20,20,20","20,20,20,20","10,10,10,10","20,20,20,20","0,0,0,0","20,20,20,20","20,20,20,20","20,20,20,20","10,10,10,10","20,20,20,20","0,0,0,0","20,20,20,20","1,1,0,0","4589,813,1977,759","-5.109149707405535,-44.421786052945876,18.941235220389977,32.256253084733025","11.878192091599544,-16.695768198029064,14.513357546194,10.886205058235287","0","0"
"343","86","text","0","37","434109","0-0","","","","","","","","","","","","","","","","","","","","","","","","","","","","","","","","","","","","",""
"","","plant-game","0","38","452030","0-0","","200","160","4","WHEAT CROP","Right","200","190","8","THISTLE WEED","experimental","6","1,2,3,4,5,6,7,8","190,189.75711748320646,205.23000574984704,207.9994005816737,262.31268661788357,238.34057430637594,244.18404901822532,251.5110698508765","8,7,6,5,4,3,2,1","THISTLE WEED,THISTLE WEED,THISTLE WEED,THISTLE WEED,THISTLE WEED,THISTLE WEED,THISTLE WEED,THISTLE WEED","160,147.037939723926,177.36429197310827,164.0084500212896,160,132.17241837387186,119.23549893091668,116.68159535973348","4,3,2,1,4,3,2,1","WHEAT CROP,WHEAT CROP,WHEAT CROP,WHEAT CROP,CORN CROP,CORN CROP,CORN CROP,CORN CROP","0,0,0,0,0,0,0,0","20,20,20,20,20,20,20,20","10,10,10,10,10,10,10,10","20,20,20,20,20,20,20,20","20,20,20,20,20,20,20,20","20,20,20,20,20,20,20,20","0,0,0,0,0,0,0,0","20,20,20,20,20,20,20,20","10,10,10,10,10,10,10,10","20,20,20,20,20,20,20,20","20,20,20,20,20,20,20,20","20,20,20,20,20,20,20,20","0,1,0,1,0,0,1,0","1062,2114,669,1577,2113,1096,1725,850","-0.2428825167935532,15.472888266640574,2.769394831826664,54.313286036209846,-23.972112311507622,5.843474711849396,7.327020832651179,-16.52148534414381","-12.962060276074004,30.326352249182257,-13.355841951818647,26.84033099427161,-27.82758162612813,-12.936919442955183,-2.5539035711832057,-17.301017780972753","0","0"
"549","86","text","0","39","452709","0-0","","","","","","","","","","","","","","","","","","","","","","","","","","","","","","","","","","","","",""
"","","plant-game","0","40","469358","0-0","","200","120","1","CORN CROP","Right","200","180","4","NETTLE WEED","experimental","7","1,2,3,4","180,200.03227553224616,233.90765214857296,204.63144122482362","4,3,2,1","NETTLE WEED,NETTLE WEED,NETTLE WEED,NETTLE WEED","120,170,168.0504680316548,205.21304190660004","1,3,2,1","CORN CROP,WHEAT CROP,WHEAT CROP,WHEAT CROP","0,0,0,0","20,20,20,20","10,10,10,10","20,20,20,20","20,20,20,20","20,20,20,20","0,0,0,0","20,20,20,20","10,10,10,10","20,20,20,20","20,20,20,20","20,20,20,20","1,1,0,0","3879,2600,2253,1339","20.03227553224617,33.875376616326804,-29.276210923749346,-47.21129579424104","25.957218334206225,-1.9495319683452053,37.16257387494524,23.897842085832593","0","0"
"879","86","text","0","41","470387","0-0","","","","","","","","","","","","","","","","","","","","","","","","","","","","","","","","","","","","",""
"","","plant-game","0","42","490108","0-0","","200","120","4","CORN CROP","Right","200","180","2","NETTLE WEED","experimental","8","1,2,3,4","180,153.69043647794936,180,230.21914648970423","2,1,2,1","NETTLE WEED,NETTLE WEED,THISTLE WEED,THISTLE WEED","120,127.08876408904224,157.5449458270703,132.26742420730753","4,3,2,1","CORN CROP,CORN CROP,CORN CROP,CORN CROP","0,0,0,0","20,20,20,20","10,10,10,10","20,20,20,20","20,20,20,20","20,20,20,20","0,0,0,0","20,20,20,20","10,10,10,10","20,20,20,20","20,20,20,20","20,20,20,20","0,1,1,0","3093,3281,2670,4544","-26.309563522050645,39.70046772772145,50.21914648970423,15.182412686897337","7.088764089042248,30.456181738028075,-25.27752161976278,1.5290042270748003","0","0"
"543","86","text","0","43","490771","0-0","","","","","","","","","","","","","","","","","","","","","","","","","","","","","","","","","","","","",""
"","","plant-game","0","44","506252","0-0","","200","190","2","CORN CROP","Left","200","180","1","NETTLE WEED","experimental","9","1,2","190,179.51900233610053","2,1","CORN CROP,CORN CROP","180,190","1,1","NETTLE WEED,THISTLE WEED","20,20","20,20","10,10","20,20","0,0","20,20","20,20","20,20","10,10","20,20","0,0","20,20","1,1","7000,2846","-10.480997663899487,-24.20339449201236","-9.009806453934283,30.00636905705704","0","0"
"2120","86","text","0","45","508484","0-0","","","","","","","","","","","","","","","","","","","","","","","","","","","","","","","","","","","","",""
"","","plant-game","0","46","529497","0-0","","200","120","4","CORN CROP","Right","200","160","8","THISTLE WEED","experimental","10","1,2,3,4,5,6,7,8","160,197.46700305436042,154.94083633719626,135.9522512081558,144.26719361615983,159.55655895217794,150.32867882731188,196.03122924124256","8,7,6,5,4,3,2,1","THISTLE WEED,THISTLE WEED,THISTLE WEED,THISTLE WEED,THISTLE WEED,THISTLE WEED,THISTLE WEED,THISTLE WEED","120,140.9672662158598,135.99762034896625,128.3263385049913,160,102.40787267177112,124.18257323593514,151.46036838291823","4,3,2,1,4,3,2,1","CORN CROP,CORN CROP,CORN CROP,CORN CROP,WHEAT CROP,WHEAT CROP,WHEAT CROP,WHEAT CROP","0,0,0,0,0,0,0,0","20,20,20,20,20,20,20,20","10,10,10,10,10,10,10,10","20,20,20,20,20,20,20,20","20,20,20,20,20,20,20,20","20,20,20,20,20,20,20,20","0,0,0,0,0,0,0,0","20,20,20,20,20,20,20,20","10,10,10,10,10,10,10,10","20,20,20,20,20,20,20,20","20,20,20,20,20,20,20,20","20,20,20,20,20,20,20,20","1,0,1,0,0,1,1,1","2835,1466,554,895,1366,2062,1222,4688","37.467003054360404,-42.526166717164166,-18.98858512904048,8.314942408004033,15.289365336018099,-9.227880124866065,45.702550413930666,21.072251322125005","20.967266215859798,-4.9696458668935595,-7.67128184397496,-16.556222576891194,-57.59212732822889,21.774700564164014,27.277795146983095,20.418434151332615","0","0"
"453","86","text","0","47","530080","0-0","","","","","","","","","","","","","","","","","","","","","","","","","","","","","","","","","","","","",""
"","","plant-game","0","48","551586","0-0","","200","190","8","CORN CROP","Left","200","190","2","NETTLE WEED","experimental","11","1,2,3,4,5,6,7,8","190,237.63572654404874,248.29013298989193,293.206716942192,293.6756602538178,283.4039609524633,305.1216879061007,294.1700587051595","8,7,6,5,4,3,2,1","CORN CROP,CORN CROP,CORN CROP,CORN CROP,CORN CROP,CORN CROP,CORN CROP,CORN CROP","190,227.4211233238246,140,163.20817142534528,145.28278598062582,140.3690323154388,150.70168680809266,121.89931265124615","2,1,6,5,4,3,2,1","NETTLE WEED,NETTLE WEED,THISTLE WEED,THISTLE WEED,THISTLE WEED,THISTLE WEED,THISTLE WEED,THISTLE WEED","20,20,20,20,20,20,20,20","20,20,20,20,20,20,20,20","10,10,10,10,10,10,10,10","20,20,20,20,20,20,20,20","0,0,0,0,0,0,0,0","20,20,20,20,20,20,20,20","20,20,20,20,20,20,20,20","20,20,20,20,20,20,20,20","10,10,10,10,10,10,10,10","20,20,20,20,20,20,20,20","0,0,0,0,0,0,0,0","20,20,20,20,20,20,20,20","0,1,0,1,1,1,1,1","5316,2749,2105,826,544,463,682,1534","47.63572654404874,10.654406445843186,44.916583952300066,0.4689433116258135,-10.271699301354474,21.71772695363742,-10.951629200941234,34.572052009030244","37.4211233238246,41.04084752557653,23.208171425345277,-17.92538544471948,-4.913753665187017,10.332654492653866,-28.802374156846508,-35.66270162960271","0","0"
"586","86","text","0","49","552302","0-0","","","","","","","","","","","","","","","","","","","","","","","","","","","","","","","","","","","","",""
"","","plant-game","0","50","566003","0-0","","200","180","2","CORN CROP","Right","200","190","8","NETTLE WEED","experimental","12","1,2,3,4,5,6,7,8","190,184.3227377269167,174.8947584669629,188.146234498044,155.09000839040596,151.81275626409882,185.524493883901,196.53476505505415","8,7,6,5,4,3,2,1","NETTLE WEED,NETTLE WEED,NETTLE WEED,NETTLE WEED,NETTLE WEED,NETTLE WEED,NETTLE WEED,NETTLE WEED","180,216.96582945881468,140,141.46680047379306,94.26751395238611,98.92327032691688,93.0138924242659,86.69124893921436","2,1,6,5,4,3,2,1","CORN CROP,CORN CROP,WHEAT CROP,WHEAT CROP,WHEAT CROP,WHEAT CROP,WHEAT CROP,WHEAT CROP","0,0,0,0,0,0,0,0","20,20,20,20,20,20,20,20","10,10,10,10,10,10,10,10","20,20,20,20,20,20,20,20","20,20,20,20,20,20,20,20","20,20,20,20,20,20,20,20","0,0,0,0,0,0,0,0","20,20,20,20,20,20,20,20","10,10,10,10,10,10,10,10","20,20,20,20,20,20,20,20","20,20,20,20,20,20,20,20","20,20,20,20,20,20,20,20","0,0,1,0,1,1,0,1","1067,1100,1134,898,1195,955,738,497","-5.677262273083307,-9.427979259953783,13.25147603108111,-33.05622610763805,-3.2772521263071432,33.71173761980216,11.010271171153176,13.761540491442936","36.96582945881469,0.10533816185111297,1.4668004737930715,-47.19928652140695,4.6557563745307675,-5.909377902650974,-6.322643485051546,2.7228129503149887","0","0"
"680","86","text","0","51","566803","0-0","","","","","","","","","","","","","","","","","","","","","","","","","","","","","","","","","","","","",""
"","","plant-game","0","52","584779","0-0","","200","180","8","CORN CROP","Left","200","160","2","THISTLE WEED","experimental","13","1,2,3,4,5,6,7,8","180,204.3916876248114,240.69636462598368,256.3209032852887,274.125585619162,277.1814093901751,305.45338048115246,329.13984018390653","8,7,6,5,4,3,2,1","CORN CROP,CORN CROP,CORN CROP,CORN CROP,CORN CROP,CORN CROP,CORN CROP,CORN CROP","160,178.81465534281142,140,179.38676817303087,194.5869590033639,199.6315604286173,246.43444716471006,229.72792625022208","2,1,6,5,4,3,2,1","THISTLE WEED,THISTLE WEED,NETTLE WEED,NETTLE WEED,NETTLE WEED,NETTLE WEED,NETTLE WEED,NETTLE WEED","20,20,20,20,20,20,20,20","20,20,20,20,20,20,20,20","10,10,10,10,10,10,10,10","20,20,20,20,20,20,20,20","0,0,0,0,0,0,0,0","20,20,20,20,20,20,20,20","20,20,20,20,20,20,20,20","20,20,20,20,20,20,20,20","10,10,10,10,10,10,10,10","20,20,20,20,20,20,20,20","0,0,0,0,0,0,0,0","20,20,20,20,20,20,20,20","0,1,0,0,1,0,1,1","828,1113,2046,1524,996,610,680,790","24.391687624811386,36.30467700117227,15.62453865930499,17.804682333873295,3.0558237710130536,28.27197109097739,23.68645970275404,-7.85028296741618","18.814655342811434,-8.080372759819692,39.38676817303087,15.200190830333014,5.044601425253402,46.80288673609277,-16.706520914487967,21.114826414481108","0","0"
"528","86","text","0","53","585437","0-0","","","","","","","","","","","","","","","","","","","","","","","","","","","","","","","","","","","","",""
"","","plant-game","0","54","598914","0-0","","200","180","2","CORN CROP","Left","200","180","8","THISTLE WEED","experimental","14","1,2,3,4,5,6,7,8","180,176.3004857478283,140,211.6689908121718,231.3882906214891,239.01887698229234,278.93249986183935,302.0234336452804","2,1,6,5,4,3,2,1","CORN CROP,CORN CROP,WHEAT CROP,WHEAT CROP,WHEAT CROP,WHEAT CROP,WHEAT CROP,WHEAT CROP","180,212.97224450166715,208.30028792530362,236.67176728708208,244.09652778086058,267.41730603218423,258.6601268219054,256.5920023565913","8,7,6,5,4,3,2,1","THISTLE WEED,THISTLE WEED,THISTLE WEED,THISTLE WEED,THISTLE WEED,THISTLE WEED,THISTLE WEED,THISTLE WEED","20,20,20,20,20,20,20,20","20,20,20,20,20,20,20,20","10,10,10,10,10,10,10,10","20,20,20,20,20,20,20,20","0,0,0,0,0,0,0,0","20,20,20,20,20,20,20,20","20,20,20,20,20,20,20,20","20,20,20,20,20,20,20,20","10,10,10,10,10,10,10,10","20,20,20,20,20,20,20,20","0,0,0,0,0,0,0,0","20,20,20,20,20,20,20,20","0,1,0,1,1,0,0,1","917,1221,1158,1058,575,427,566,958","-3.6995142521716886,-17.392159065370812,71.66899081217181,19.719299809317285,7.6305863608032585,39.91362287954702,23.09093378344109,-22.307949346996843","32.972244501667156,-4.671956576363517,28.37147936177846,7.424760493778501,23.320778251323627,-8.757179210278807,-2.068124465314103,1.6555696968919678","0","0"
"753","86","text","0","55","599777","0-0","","","","","","","","","","","","","","","","","","","","","","","","","","","","","","","","","","","","",""
"","","plant-game","0","56","613591","0-0","","200","160","4","CORN CROP","Right","200","180","1","NETTLE WEED","experimental","15","1,2,3,4","180,170,192.07945821871624,222.99182811489334","1,3,2,1","NETTLE WEED,THISTLE WEED,THISTLE WEED,THISTLE WEED","160,171.59986368092288,168.19026296718758,184.82546472188048","4,3,2,1","CORN CROP,CORN CROP,CORN CROP,CORN CROP","0,0,0,0","20,20,20,20","10,10,10,10","20,20,20,20","20,20,20,20","20,20,20,20","0,0,0,0","20,20,20,20","10,10,10,10","20,20,20,20","20,20,20,20","20,20,20,20","1,0,1,0","4617,2530,934,553","38.66064727706702,22.07945821871625,30.912369896177086,7.308774278855715","11.599863680922887,-3.409600713735297,16.6352017546929,21.06257029343083","0","0"
"1235","86","text","0","57","614963","0-0","","","","","","","","","","","","","","","","","","","","","","","","","","","","","","","","","","","","",""
"","","plant-game","0","58","632821","0-0","","200","190","8","WHEAT CROP","Right","200","180","1","THISTLE WEED","experimental","16","1,2,3,4,5,6,7,8","180,130,149.80217842421132,145.18297427611483,166.00847133759754,175.0749384922096,183.98617169511422,176.24601644165858","1,7,6,5,4,3,2,1","THISTLE WEED,NETTLE WEED,NETTLE WEED,NETTLE WEED,NETTLE WEED,NETTLE WEED,NETTLE WEED,NETTLE WEED","190,186.0010567887851,190.28013384697348,231.8566523040729,211.2592377319553,234.54512555940929,262.1961652695058,292.24958655496476","8,7,6,5,4,3,2,1","WHEAT CROP,WHEAT CROP,WHEAT CROP,WHEAT CROP,WHEAT CROP,WHEAT CROP,WHEAT CROP,WHEAT CROP","0,0,0,0,0,0,0,0","20,20,20,20,20,20,20,20","10,10,10,10,10,10,10,10","20,20,20,20,20,20,20,20","20,20,20,20,20,20,20,20","20,20,20,20,20,20,20,20","0,0,0,0,0,0,0,0","20,20,20,20,20,20,20,20","10,10,10,10,10,10,10,10","20,20,20,20,20,20,20,20","20,20,20,20,20,20,20,20","20,20,20,20,20,20,20,20","0,1,1,0,1,1,1,1","4237,1230,460,964,576,1396,1307,1391","3.0933063286680778,19.802178424211313,-4.619204148096486,20.8254970614827,9.06646715461208,8.911233202904622,-7.740155253455654,46.01281902114603","-3.998943211214903,4.279077058188394,41.576518457099425,-20.597414572117604,23.285887827453994,27.651039710096526,30.053421285458988,33.13084737634262","0","0"
"3608","86","text","0","59","636539","0-0","","","","","","","","","","","","","","","","","","","","","","","","","","","","","","","","","","","","",""
"","","plant-game","0","60","654035","0-0","","200","160","2","WHEAT CROP","Left","200","160","8","THISTLE WEED","experimental","17","1,2,3,4,5,6,7,8","160,205.80164049644202,140,158.21917811783288,205.70584715914362,176.67329796549961,172.9731695304339,182.8511328156128","2,1,6,5,4,3,2,1","WHEAT CROP,WHEAT CROP,CORN CROP,CORN CROP,CORN CROP,CORN CROP,CORN CROP,CORN CROP","160,189.3641997327469,201.81926119511473,202.34037445823841,247.48755040101577,243.1403298300232,227.05205520444602,226.01006371881635","8,7,6,5,4,3,2,1","THISTLE WEED,THISTLE WEED,THISTLE WEED,THISTLE WEED,THISTLE WEED,THISTLE WEED,THISTLE WEED,THISTLE WEED","20,20,20,20,20,20,20,20","20,20,20,20,20,20,20,20","10,10,10,10,10,10,10,10","20,20,20,20,20,20,20,20","0,0,0,0,0,0,0,0","20,20,20,20,20,20,20,20","20,20,20,20,20,20,20,20","20,20,20,20,20,20,20,20","10,10,10,10,10,10,10,10","20,20,20,20,20,20,20,20","0,0,0,0,0,0,0,0","20,20,20,20,20,20,20,20","0,1,0,0,1,1,1,1","3666,3270,2439,584,636,329,271,313","45.80164049644203,-2.8615738508949495,18.219178117832872,47.48666904131074,-29.032549193644016,-3.7001284350657255,9.877963285178899,-7.300536867217641","29.36419973274689,12.455061462367837,0.5211132631236914,45.14717594277735,-4.347220570992562,-16.088274625577174,-1.041991485629671,-2.606053475784702","0","0"
"476","86","text","0","61","654591","0-0","","","","","","","","","","","","","","","","","","","","","","","","","","","","","","","","","","","","",""
"","","plant-game","0","62","670794","0-0","","200","120","4","CORN CROP","Right","200","180","8","NETTLE WEED","experimental","18","1,2,3,4,5,6,7,8","180,209.92239864005927,219.18918136806383,209.34990321742418,191.09100239201692,212.92355367731602,209.06895739829406,185.70142742543385","8,7,6,5,4,3,2,1","NETTLE WEED,NETTLE WEED,NETTLE WEED,NETTLE WEED,NETTLE WEED,NETTLE WEED,NETTLE WEED,NETTLE WEED","120,138.94497040477447,198.23995503491147,187.61630601695276,160,110.1990204678442,135.3191770684959,127.83707992518444","4,3,2,1,4,3,2,1","CORN CROP,CORN CROP,CORN CROP,CORN CROP,WHEAT CROP,WHEAT CROP,WHEAT CROP,WHEAT CROP","0,0,0,0,0,0,0,0","20,20,20,20,20,20,20,20","10,10,10,10,10,10,10,10","20,20,20,20,20,20,20,20","20,20,20,20,20,20,20,20","20,20,20,20,20,20,20,20","0,0,0,0,0,0,0,0","20,20,20,20,20,20,20,20","10,10,10,10,10,10,10,10","20,20,20,20,20,20,20,20","20,20,20,20,20,20,20,20","20,20,20,20,20,20,20,20","0,1,0,0,0,0,0,1","835,1246,801,510,1807,1067,496,610","29.922398640059278,9.266782728004559,-9.839278150639641,-18.25890082540727,21.83255128529909,-3.8545962790219552,-23.367529972860197,16.192433617546584","18.944970404774462,59.294984630136994,-10.623649017958712,11.544772918495202,-49.80097953215579,25.120156600651697,-7.482097143311447,43.892690923130644","0","0"
"450","86","text","0","63","671364","0-0","","","","","","","","","","","","","","","","","","","","","","","","","","","","","","","","","","","","",""
"","","plant-game","0","64","684657","0-0","","200","190","8","WHEAT CROP","Right","200","120","8","THISTLE WEED","experimental","19","1,2,3,4,5,6,7,8","120,86.71938837072622,101.0981244409544,123.57271598915635,163.79773378200645,162.81852801006164,158.75826875693318,169.18580411619305","8,7,6,5,4,3,2,1","THISTLE WEED,THISTLE WEED,THISTLE WEED,THISTLE WEED,THISTLE WEED,THISTLE WEED,THISTLE WEED,THISTLE WEED","190,165.6169264219308,173.46574068423413,176.17085591016647,192.4261266183552,203.82871584830255,216.69024981171623,210.9648679277381","8,7,6,5,4,3,2,1","WHEAT CROP,WHEAT CROP,WHEAT CROP,WHEAT CROP,WHEAT CROP,WHEAT CROP,WHEAT CROP,WHEAT CROP","0,0,0,0,0,0,0,0","20,20,20,20,20,20,20,20","10,10,10,10,10,10,10,10","20,20,20,20,20,20,20,20","20,20,20,20,20,20,20,20","20,20,20,20,20,20,20,20","0,0,0,0,0,0,0,0","20,20,20,20,20,20,20,20","10,10,10,10,10,10,10,10","20,20,20,20,20,20,20,20","20,20,20,20,20,20,20,20","20,20,20,20,20,20,20,20","0,1,1,1,1,0,0,1","1418,1010,744,446,894,2113,719,632","-33.28061162927377,14.378736070228166,22.474591548201957,40.22501779285009,-0.9792057719448124,-4.060259253128459,10.427535359259888,29.412599975885954","-24.3830735780692,7.848814262303328,2.705115225932328,16.255270708188725,11.402589229947344,12.861533963413688,-5.725381883978127,9.88271217405635","0","0"
"492","86","text","0","65","685249","0-0","","","","","","","","","","","","","","","","","","","","","","","","","","","","","","","","","","","","",""
"","","plant-game","0","66","690733","0-0","","200","190","2","CORN CROP","Left","200","180","2","THISTLE WEED","experimental","20","1,2","190,226.46596364321317","2,1","CORN CROP,CORN CROP","180,206.8048822434145","2,1","THISTLE WEED,THISTLE WEED","20,20","20,20","10,10","20,20","0,0","20,20","20,20","20,20","10,10","20,20","0,0","20,20","0,1","1860,646","36.465963643213186,2.2711256687874974","26.80488224341451,-0.06464177350683659","0","0"
"949","86","text","0","67","691803","0-0","","","","","","","","","","","","","","","","","","","","","","","","","","","","","","","","","","","","",""
"","","plant-game","0","68","705240","0-0","","200","120","1","WHEAT CROP","Right","200","190","8","THISTLE WEED","experimental","21","1,2,3,4,5,6,7,8","190,178.67816517245777,153.53709333530634,155.80302090871933,150.0156861451287,163.5458689405499,226.73448095767958,217.66371402132975","8,7,6,5,4,3,2,1","THISTLE WEED,THISTLE WEED,THISTLE WEED,THISTLE WEED,THISTLE WEED,THISTLE WEED,THISTLE WEED,THISTLE WEED","120,130,129.782741994803,148.7941772153873,206.23308260809858,207.66020728766077,237.49220437376346,206.44272893746842","1,7,6,5,4,3,2,1","WHEAT CROP,CORN CROP,CORN CROP,CORN CROP,CORN CROP,CORN CROP,CORN CROP,CORN CROP","0,0,0,0,0,0,0,0","20,20,20,20,20,20,20,20","10,10,10,10,10,10,10,10","20,20,20,20,20,20,20,20","20,20,20,20,20,20,20,20","20,20,20,20,20,20,20,20","0,0,0,0,0,0,0,0","20,20,20,20,20,20,20,20","10,10,10,10,10,10,10,10","20,20,20,20,20,20,20,20","20,20,20,20,20,20,20,20","20,20,20,20,20,20,20,20","0,0,0,1,0,1,0,0","1588,630,538,543,742,788,580,733","-11.321834827542226,-25.14107183715144,2.2659275734130087,-5.787334763590618,13.530182795421183,63.1886120171297,-9.070766936349827,14.668411145264988","-15.00734595780136,-0.21725800519699665,19.011435220584307,57.438905392711305,1.4271246795621955,29.83199708610268,-31.049475436295037,-11.011309989001907","0","0"
"486","86","text","0","69","705850","0-0","","","","","","","","","","","","","","","","","","","","","","","","","","","","","","","","","","","","",""
"","","plant-game","0","70","712473","0-0","","200","120","2","WHEAT CROP","Right","200","180","2","THISTLE WEED","experimental","22","1,2","180,174.6042620504479","2,1","THISTLE WEED,THISTLE WEED","120,162.54404448590475","2,1","WHEAT CROP,WHEAT CROP","0,0","20,20","10,10","20,20","20,20","20,20","0,0","20,20","10,10","20,20","20,20","20,20","0,0","804,836","-5.39573794955211,-1.7901769429599048","42.544044485904735,-28.262665127295776","0","0"
"423","86","text","0","71","712996","0-0","","","","","","","","","","","","","","","","","","","","","","","","","","","","","","","","","","","","",""
"","","plant-game","0","72","725985","0-0","","200","160","4","CORN CROP","Left","200","180","2","THISTLE WEED","experimental","23","1,2,3,4","160,148.24944461344288,125.23977500497546,159.8027634623606","4,3,2,1","CORN CROP,CORN CROP,CORN CROP,CORN CROP","180,159.44855831741353,180,175.22480498054153","2,1,2,1","THISTLE WEED,THISTLE WEED,NETTLE WEED,NETTLE WEED","20,20,20,20","20,20,20,20","10,10,10,10","20,20,20,20","0,0,0,0","20,20,20,20","20,20,20,20","20,20,20,20","10,10,10,10","20,20,20,20","0,0,0,0","20,20,20,20","1,1,0,0","2653,734,1588,1461","-11.750555386557124,-23.009669608467412,34.562988457385146,10.424734769514744","-20.55144168258647,-10.49997006908426,-4.775195019458451,-12.709368522463159","0","0"
"502","86","text","0","73","726596","0-0","","","","","","","","","","","","","","","","","","","","","","","","","","","","","","","","","","","","",""
"","","plant-game","0","74","740623","0-0","","200","120","2","WHEAT CROP","Left","200","190","4","NETTLE WEED","experimental","24","1,2,3,4","120,120.41601515870204,180,184.51405687072327","2,1,2,1","WHEAT CROP,WHEAT CROP,CORN CROP,CORN CROP","190,208.15641215889323,215.33309984875473,226.39782135086594","4,3,2,1","NETTLE WEED,NETTLE WEED,NETTLE WEED,NETTLE WEED","20,20,20,20","20,20,20,20","10,10,10,10","20,20,20,20","0,0,0,0","20,20,20,20","20,20,20,20","20,20,20,20","10,10,10,10","20,20,20,20","0,0,0,0","20,20,20,20","0,1,1,0","5644,776,2045,550","0.4160151587020309,6.015123280657241,4.514056870723268,57.18387012632643","18.156412158893236,7.176687689861499,11.06472150211121,-5.3686887465979005","0","0"
"3944","86","text","0","75","744667","0-0","","","","","","","","","","","","","","","","","","","","","","","","","","","","","","","","","","","","",""
"","","plant-game","0","76","762592","0-0","","200","160","8","WHEAT CROP","Left","200","190","2","NETTLE WEED","experimental","25","1,2,3,4,5,6,7,8","160,218.73858845967203,249.85097323825508,256.2228882547524,263.9579771580901,260.91997371424964,285.8988788944726,302.79983761395533","8,7,6,5,4,3,2,1","WHEAT CROP,WHEAT CROP,WHEAT CROP,WHEAT CROP,WHEAT CROP,WHEAT CROP,WHEAT CROP,WHEAT CROP","190,212.63365927162286,140,121.24282915020227,109.95443185121039,76.55499743433563,79.5557248073219,103.88513697204782","2,1,6,5,4,3,2,1","NETTLE WEED,NETTLE WEED,THISTLE WEED,THISTLE WEED,THISTLE WEED,THISTLE WEED,THISTLE WEED,THISTLE WEED","20,20,20,20,20,20,20,20","20,20,20,20,20,20,20,20","10,10,10,10,10,10,10,10","20,20,20,20,20,20,20,20","0,0,0,0,0,0,0,0","20,20,20,20,20,20,20,20","20,20,20,20,20,20,20,20","20,20,20,20,20,20,20,20","10,10,10,10,10,10,10,10","20,20,20,20,20,20,20,20","0,0,0,0,0,0,0,0","20,20,20,20,20,20,20,20","0,1,1,1,1,1,1,1","1778,714,4757,617,829,1060,1089,748","58.738588459672044,31.11238477858306,6.371915016497284,7.735088903337747,-3.038003443840449,24.978905180222966,16.90095871948276,-6.786568498079433","22.63365927162285,17.78214287337921,-18.757170849797728,-11.288397298991875,-33.399434416874755,3.000727372986259,24.329412164725923,-32.75111991064621","0","0"
"717","86","text","0","77","763449","0-0","","","","","","","","","","","","","","","","","","","","","","","","","","","","","","","","","","","","",""
"","","plant-game","0","78","777729","0-0","","200","190","2","WHEAT CROP","Left","200","120","8","THISTLE WEED","experimental","26","1,2,3,4,5,6,7,8","190,222.6670554891509,140,99.20275825577261,99.85546682435029,131.42279528942223,111.35958670933479,167.8356891079385","2,1,6,5,4,3,2,1","WHEAT CROP,WHEAT CROP,CORN CROP,CORN CROP,CORN CROP,CORN CROP,CORN CROP,CORN CROP","120,138.49621238627768,174.5326985233258,148.31230021668387,157.36531843701994,183.82589658809178,184.8978575166598,190.9134624955554","8,7,6,5,4,3,2,1","THISTLE WEED,THISTLE WEED,THISTLE WEED,THISTLE WEED,THISTLE WEED,THISTLE WEED,THISTLE WEED,THISTLE WEED","20,20,20,20,20,20,20,20","20,20,20,20,20,20,20,20","10,10,10,10,10,10,10,10","20,20,20,20,20,20,20,20","0,0,0,0,0,0,0,0","20,20,20,20,20,20,20,20","20,20,20,20,20,20,20,20","20,20,20,20,20,20,20,20","10,10,10,10,10,10,10,10","20,20,20,20,20,20,20,20","0,0,0,0,0,0,0,0","20,20,20,20,20,20,20,20","0,0,1,1,1,0,0,1","803,2527,1848,609,416,514,626,1518","32.6670554891509,-5.949551487127426,-40.79724174422739,0.6527085685776777,31.56732846507195,-20.063208580087426,56.4761023986037,-5.167619870182301","18.496212386277683,36.03648613704813,-26.220398306641933,9.053018220336085,26.460578151071857,1.0719609285680178,6.015604978895608,32.206071311420324","0","0"
"1009","86","text","0","79","778838","0-0","","","","","","","","","","","","","","","","","","","","","","","","","","","","","","","","","","","","",""
"","","plant-game","0","80","786630","0-0","","200","190","4","CORN CROP","Right","200","190","4","THISTLE WEED","experimental","27","1,2,3,4","190,213.11592570709382,219.51244683913225,221.03955514100022","4,3,2,1","THISTLE WEED,THISTLE WEED,THISTLE WEED,THISTLE WEED","190,214.83057412274968,258.23024440480225,262.3711254751397","4,3,2,1","CORN CROP,CORN CROP,CORN CROP,CORN CROP","0,0,0,0","20,20,20,20","10,10,10,10","20,20,20,20","20,20,20,20","20,20,20,20","0,0,0,0","20,20,20,20","10,10,10,10","20,20,20,20","20,20,20,20","20,20,20,20","0,1,0,0","1021,1121,1832,549","23.115925707093815,6.396521132038433,1.5271083018679805,31.540102481842837","24.83057412274967,43.39967028205256,4.140881070337477,12.157784439326385","0","0"
"916","86","text","0","81","787676","0-0","","","","","","","","","","","","","","","","","","","","","","","","","","","","","","","","","","","","",""
"","","plant-game","0","82","804302","0-0","","200","120","1","WHEAT CROP","Left","200","160","8","THISTLE WEED","experimental","28","1,2,3,4,5,6,7,8","120,130,113.40603148413216,103.38231094797514,107.11201216795541,118.73760369877151,135.565200577697,111.91523359482105","1,7,6,5,4,3,2,1","WHEAT CROP,CORN CROP,CORN CROP,CORN CROP,CORN CROP,CORN CROP,CORN CROP,CORN CROP","160,136.80268252092642,129.54237373915265,138.15590167923045,151.24558990713433,169.7713544416888,177.52079720712862,153.94468254618437","8,7,6,5,4,3,2,1","THISTLE WEED,THISTLE WEED,THISTLE WEED,THISTLE WEED,THISTLE WEED,THISTLE WEED,THISTLE WEED,THISTLE WEED","20,20,20,20,20,20,20,20","20,20,20,20,20,20,20,20","10,10,10,10,10,10,10,10","20,20,20,20,20,20,20,20","0,0,0,0,0,0,0,0","20,20,20,20,20,20,20,20","20,20,20,20,20,20,20,20","20,20,20,20,20,20,20,20","10,10,10,10,10,10,10,10","20,20,20,20,20,20,20,20","0,0,0,0,0,0,0,0","20,20,20,20,20,20,20,20","0,1,1,1,1,0,1,0","3517,1623,733,494,844,2203,634,707","45.2874461803603,-16.59396851586784,-10.023720536157015,3.7297012199802664,11.625591530816097,16.827596878925497,-23.649966982875952,26.551537045748667","-23.197317479073583,-7.260308781773786,8.613527940077788,13.089688227903887,18.52576453455446,7.749442765439811,-23.576114660944253,22.555473637955537","0","0"
"1592","86","text","0","83","806019","0-0","","","","","","","","","","","","","","","","","","","","","","","","","","","","","","","","","","","","",""
"","","plant-game","0","84","814039","0-0","","200","180","4","WHEAT CROP","Left","200","120","4","NETTLE WEED","experimental","29","1,2,3,4","180,226.06633454875197,251.4465514950061,247.3482985885283","4,3,2,1","WHEAT CROP,WHEAT CROP,WHEAT CROP,WHEAT CROP","120,144.76772956787505,174.3926029820095,145.83081904852244","4,3,2,1","NETTLE WEED,NETTLE WEED,NETTLE WEED,NETTLE WEED","20,20,20,20","20,20,20,20","10,10,10,10","20,20,20,20","0,0,0,0","20,20,20,20","20,20,20,20","20,20,20,20","10,10,10,10","20,20,20,20","0,0,0,0","20,20,20,20","0,1,1,1","1516,980,1291,947","46.06633454875195,25.38021694625413,-4.098252906477797,14.580154844050208","24.767729567875037,29.62487341413445,-28.561783933487042,-8.935293352158766","0","0"
"870","86","text","0","85","815029","0-0","","","","","","","","","","","","","","","","","","","","","","","","","","","","","","","","","","","","",""
"","","plant-game","0","86","829742","0-0","","200","180","2","WHEAT CROP","Left","200","180","1","THISTLE WEED","experimental","30","1,2","180,201.8197198248815","2,1","WHEAT CROP,WHEAT CROP","180,190","1,1","THISTLE WEED,NETTLE WEED","20,20","20,20","10,10","20,20","0,0","20,20","20,20","20,20","10,10","20,20","0,0","20,20","0,0","813,4736","21.81971982488151,29.030820230548834","17.377760226661792,-0.3856570825336405","0","0"
"720","86","text","0","87","830602","0-0","","","","","","","","","","","","","","","","","","","","","","","","","","","","","","","","","","","","",""
"","","plant-game","0","88","836663","0-0","","200","180","1","WHEAT CROP","Left","200","180","1","NETTLE WEED","experimental","31","1","180","1","WHEAT CROP","180","1","NETTLE WEED","20","20","10","20","0","20","20","20","10","20","0","20","0","2835","20.880748429023967","-11.689848630241304","0","0"
"423","86","text","0","89","837196","0-0","","","","","","","","","","","","","","","","","","","","","","","","","","","","","","","","","","","","",""
"","","plant-game","0","90","858856","0-0","","200","190","4","CORN CROP","Left","200","160","8","NETTLE WEED","experimental","32","1,2,3,4,5,6,7,8","190,242.73768003250368,201.2290407350838,195.36167371819096,160,119.53440577682443,111.28521090256686,90.67758150588406","4,3,2,1,4,3,2,1","CORN CROP,CORN CROP,CORN CROP,CORN CROP,WHEAT CROP,WHEAT CROP,WHEAT CROP,WHEAT CROP","160,187.93889554698174,235.72493982219373,296.5299713300175,292.04211614317734,306.6389258255107,298.25181278065844,284.29199922585764","8,7,6,5,4,3,2,1","NETTLE WEED,NETTLE WEED,NETTLE WEED,NETTLE WEED,NETTLE WEED,NETTLE WEED,NETTLE WEED,NETTLE WEED","20,20,20,20,20,20,20,20","20,20,20,20,20,20,20,20","10,10,10,10,10,10,10,10","20,20,20,20,20,20,20,20","0,0,0,0,0,0,0,0","20,20,20,20,20,20,20,20","20,20,20,20,20,20,20,20","20,20,20,20,20,20,20,20","10,10,10,10,10,10,10,10","20,20,20,20,20,20,20,20","0,0,0,0,0,0,0,0","20,20,20,20,20,20,20,20","0,1,0,1,1,1,1,1","2497,1534,646,2473,2393,903,881,2010","52.73768003250367,-41.50863929741987,-5.867367016892846,33.124517738129605,-40.46559422317558,-8.249194874257572,-20.60762939668279,4.751703631289816","27.938895546981744,47.78604427521198,60.805031507823735,-4.487855186840139,14.596809682333326,-8.387113044852263,-13.959813554800807,7.8389560017555295","0","0"
"2833","86","text","0","91","861809","0-0","","","","","","","","","","","","","","","","","","","","","","","","","","","","","","","","","","","","",""
"","","plant-game","0","92","874975","0-0","","200","120","1","WHEAT CROP","Left","200","120","2","THISTLE WEED","experimental","33","1,2","120,190","1,1","WHEAT CROP,CORN CROP","120,101.60840266443995","2,1","THISTLE WEED,THISTLE WEED","20,20","20,20","10,10","20,20","0,0","20,20","20,20","20,20","10,10","20,20","0,0","20,20","1,0","3550,2660","37.182566388531455,30.497935986974525","-18.391597335560053,42.982764335098736","0","0"
"895","86","text","0","93","875980","0-0","","","","","","","","","","","","","","","","","","","","","","","","","","","","","","","","","","","","",""
"","","plant-game","0","94","894802","0-0","","200","120","4","CORN CROP","Right","200","120","8","THISTLE WEED","experimental","34","1,2,3,4,5,6,7,8","120,131.57397643218604,145.76027965033632,193.54556279828566,192.3559855314309,202.57303545789048,208.73232295646142,219.35165821688008","8,7,6,5,4,3,2,1","THISTLE WEED,THISTLE WEED,THISTLE WEED,THISTLE WEED,THISTLE WEED,THISTLE WEED,THISTLE WEED,THISTLE WEED","120,112.39778967651098,145.3346447013924,167.23548033622103,160,194.97462025768448,195.9205309888688,220.20015448913668","4,3,2,1,4,3,2,1","CORN CROP,CORN CROP,CORN CROP,CORN CROP,WHEAT CROP,WHEAT CROP,WHEAT CROP,WHEAT CROP","0,0,0,0,0,0,0,0","20,20,20,20,20,20,20,20","10,10,10,10,10,10,10,10","20,20,20,20,20,20,20,20","20,20,20,20,20,20,20,20","20,20,20,20,20,20,20,20","0,0,0,0,0,0,0,0","20,20,20,20,20,20,20,20","10,10,10,10,10,10,10,10","20,20,20,20,20,20,20,20","20,20,20,20,20,20,20,20","20,20,20,20,20,20,20,20","1,1,1,1,1,1,1,1","2819,860,700,1207,4186,2261,593,497","11.573976432186038,14.186303218150263,47.78528314794934,-1.1895772668547693,10.217049926459586,6.159287498570942,10.619335260418662,12.42183733608531","-7.602210323489015,32.93685502488142,21.900835634828628,13.347908098560303,34.97462025768448,0.9459107311843233,24.279623500267878,29.91301423612442","0","0"
"550","86","text","0","95","895456","0-0","","","","","","","","","","","","","","","","","","","","","","","","","","","","","","","","","","","","",""
"","","plant-game","0","96","909556","0-0","","200","190","4","WHEAT CROP","Left","200","190","2","THISTLE WEED","experimental","35","1,2,3,4","190,200.18168282876013,182.63087056428316,166.25370616651412","4,3,2,1","WHEAT CROP,WHEAT CROP,WHEAT CROP,WHEAT CROP","190,197.14259645806044,180,161.08508662030312","2,1,2,1","THISTLE WEED,THISTLE WEED,NETTLE WEED,NETTLE WEED","20,20,20,20","20,20,20,20","10,10,10,10","20,20,20,20","0,0,0,0","20,20,20,20","20,20,20,20","20,20,20,20","10,10,10,10","20,20,20,20","0,0,0,0","20,20,20,20","0,0,1,0","5311,654,1055,752","10.181682828760142,-17.550812264476967,-16.37716439776904,29.25669750166461","7.142596458060449,18.104132901988386,-18.91491337969689,13.74100334216674","0","0"
"463","86","text","0","97","910099","0-0","","","","","","","","","","","","","","","","","","","","","","","","","","","","","","","","","","","","",""
"","","plant-game","0","98","920958","0-0","","200","120","8","CORN CROP","Right","200","160","8","NETTLE WEED","experimental","36","1,2,3,4,5,6,7,8","160,146.78612975091986,162.53348537165235,196.43785717703219,209.52588143346065,207.5115271391461,212.52623230229278,257.7002910542958","8,7,6,5,4,3,2,1","NETTLE WEED,NETTLE WEED,NETTLE WEED,NETTLE WEED,NETTLE WEED,NETTLE WEED,NETTLE WEED,NETTLE WEED","120,148.05142352562183,150.20840244159473,122.30304868700206,148.9740193855993,150.73806442567903,174.8413131779519,179.36764633164123","8,7,6,5,4,3,2,1","CORN CROP,CORN CROP,CORN CROP,CORN CROP,CORN CROP,CORN CROP,CORN CROP,CORN CROP","0,0,0,0,0,0,0,0","20,20,20,20,20,20,20,20","10,10,10,10,10,10,10,10","20,20,20,20,20,20,20,20","20,20,20,20,20,20,20,20","20,20,20,20,20,20,20,20","0,0,0,0,0,0,0,0","20,20,20,20,20,20,20,20","10,10,10,10,10,10,10,10","20,20,20,20,20,20,20,20","20,20,20,20,20,20,20,20","20,20,20,20,20,20,20,20","0,0,0,1,0,0,1,1","1484,1276,483,1260,646,677,840,547","-13.213870249080152,15.747355620732488,33.904371805379824,13.088024256428458,-2.0143542943145714,5.014705163146683,45.174058752003,51.951448023603646","28.051423525621814,2.1569789159729083,-27.90535375459267,26.67097069859722,1.7640450400797227,24.10324875227285,4.526333153689336,5.49633009705097","0","0"
"318","86","text","0","99","921366","0-0","","","","","","","","","","","","","","","","","","","","","","","","","","","","","","","","","","","","",""
"","","plant-game","0","100","936838","0-0","","200","160","4","CORN CROP","Left","200","160","8","NETTLE WEED","experimental","37","1,2,3,4,5,6,7,8","160,227.31711094009376,245.23480151581938,264.94408536096006,160,155.048532743664,171.45475782595028,159.43129939714217","4,3,2,1,4,3,2,1","CORN CROP,CORN CROP,CORN CROP,CORN CROP,WHEAT CROP,WHEAT CROP,WHEAT CROP,WHEAT CROP","160,155.25467090009602,168.49129294811843,166.4185680504587,182.57380855218236,198.269996050816,187.6089411452569,179.84278986121933","8,7,6,5,4,3,2,1","NETTLE WEED,NETTLE WEED,NETTLE WEED,NETTLE WEED,NETTLE WEED,NETTLE WEED,NETTLE WEED,NETTLE WEED","20,20,20,20,20,20,20,20","20,20,20,20,20,20,20,20","10,10,10,10,10,10,10,10","20,20,20,20,20,20,20,20","0,0,0,0,0,0,0,0","20,20,20,20,20,20,20,20","20,20,20,20,20,20,20,20","20,20,20,20,20,20,20,20","10,10,10,10,10,10,10,10","20,20,20,20,20,20,20,20","0,0,0,0,0,0,0,0","20,20,20,20,20,20,20,20","0,0,0,0,1,1,1,1","2955,1153,498,383,2494,959,871,873","67.31711094009376,17.917690575725622,19.709283845140696,14.057276737777872,-4.951467256335993,16.40622508228629,-12.023458428808123,-16.33194894197499","-4.74532909990398,13.236622048022403,-2.0727248976597323,16.155240501723643,15.696187498633645,-10.661054905559094,-7.766151284037576,1.0315101216158646","0","0"
"540","86","text","0","101","937498","0-0","","","","","","","","","","","","","","","","","","","","","","","","","","","","","","","","","","","","",""
"","","plant-game","0","102","949840","0-0","","200","160","1","WHEAT CROP","Left","200","190","4","NETTLE WEED","experimental","38","1,2,3,4","160,170,181.08068656842812,206.88895875893007","1,3,2,1","WHEAT CROP,CORN CROP,CORN CROP,CORN CROP","190,221.51921250854696,217.40142227442587,228.9623601857829","4,3,2,1","NETTLE WEED,NETTLE WEED,NETTLE WEED,NETTLE WEED","20,20,20,20","20,20,20,20","10,10,10,10","20,20,20,20","0,0,0,0","20,20,20,20","20,20,20,20","20,20,20,20","10,10,10,10","20,20,20,20","0,0,0,0","20,20,20,20","0,0,0,0","3490,2609,726,738","28.08753516225982,11.080686568428119,25.808272190501945,17.094467394118595","31.519212508546943,-4.117790234121095,11.560937911357037,38.673937558520706","0","0"
"596","86","text","0","103","950491","0-0","","","","","","","","","","","","","","","","","","","","","","","","","","","","","","","","","","","","",""
"","","plant-game","0","104","962286","0-0","","200","190","4","WHEAT CROP","Right","200","160","4","NETTLE WEED","experimental","39","1,2,3,4","160,190.82065843233238,219.78855226498226,241.98346596416783","4,3,2,1","NETTLE WEED,NETTLE WEED,NETTLE WEED,NETTLE WEED","190,202.7973950036427,216.78670350904505,191.6686540967939","4,3,2,1","WHEAT CROP,WHEAT CROP,WHEAT CROP,WHEAT CROP","0,0,0,0","20,20,20,20","10,10,10,10","20,20,20,20","20,20,20,20","20,20,20,20","0,0,0,0","20,20,20,20","10,10,10,10","20,20,20,20","20,20,20,20","20,20,20,20","1,1,1,1","1662,3660,728,477","30.820658432332372,28.96789383264989,22.194913699185573,18.37576082090078","12.797395003642706,13.989308505402354,-25.11804941225116,16.532118910831098","0","0"
"3317","86","text","0","105","965703","0-0","","","","","","","","","","","","","","","","","","","","","","","","","","","","","","","","","","","","",""
"","","plant-game","0","106","983592","0-0","","200","160","1","CORN CROP","Right","200","120","2","THISTLE WEED","experimental","40","1,2","120,136.05971020734592","2,1","THISTLE WEED,THISTLE WEED","160,190","1,1","CORN CROP,WHEAT CROP","0,0","20,20","10,10","20,20","20,20","20,20","0,0","20,20","10,10","20,20","20,20","20,20","0,1","9193,3424","16.059710207345915,19.37678204263371","27.05309264351059,35.135982399274624","1","0"
"459","86","text","0","107","984161","0-0","","","","","","","","","","","","","","","","","","","","","","","","","","","","","","","","","","","","",""
"","","plant-game","0","108","998177","0-0","","200","120","8","WHEAT CROP","Right","200","180","4","NETTLE WEED","experimental","41","1,2,3,4,5,6,7,8","180,192.02172327210232,218.21578104088485,232.39154978479456,160,190.9562650671039,262.80801484605655,275.2493580464009","4,3,2,1,4,3,2,1","NETTLE WEED,NETTLE WEED,NETTLE WEED,NETTLE WEED,THISTLE WEED,THISTLE WEED,THISTLE WEED,THISTLE WEED","120,102.82282220718794,137.10758877728233,178.1329644706252,180.53202252524542,194.56444415167098,216.08318946230128,202.48204638021468","8,7,6,5,4,3,2,1","WHEAT CROP,WHEAT CROP,WHEAT CROP,WHEAT CROP,WHEAT CROP,WHEAT CROP,WHEAT CROP,WHEAT CROP","0,0,0,0,0,0,0,0","20,20,20,20,20,20,20,20","10,10,10,10,10,10,10,10","20,20,20,20,20,20,20,20","20,20,20,20,20,20,20,20","20,20,20,20,20,20,20,20","0,0,0,0,0,0,0,0","20,20,20,20,20,20,20,20","10,10,10,10,10,10,10,10","20,20,20,20,20,20,20,20","20,20,20,20,20,20,20,20","20,20,20,20,20,20,20,20","1,1,1,1,0,1,1,0","3258,465,579,479,2172,933,622,449","12.021723272102331,26.19405776878252,14.175768743909723,19.57041890674123,30.956265067103924,71.85174977895264,12.441343200344345,23.55887314976972","-17.17717779281206,34.284766570094405,41.02537569334288,2.3990580546202125,14.032421626425549,21.5187453106303,-13.601143082086608,-10.97497655685521","0","0"
"807","86","text","0","109","999089","0-0","","","","","","","","","","","","","","","","","","","","","","","","","","","","","","","","","","","","",""
"","","plant-game","0","110","1013969","0-0","","200","190","1","WHEAT CROP","Left","200","180","8","NETTLE WEED","experimental","42","1,2,3,4,5,6,7,8","190,130,121.03254675620647,92.0566179013953,88.45225088014485,65.3658860255957,71.61281655339906,69.93101857460458","1,7,6,5,4,3,2,1","WHEAT CROP,CORN CROP,CORN CROP,CORN CROP,CORN CROP,CORN CROP,CORN CROP,CORN CROP","180,223.46252031558373,195.84326252896187,202.65822458786758,186.9359505801603,172.91737182358372,198.9054734216155,191.10383346284863","8,7,6,5,4,3,2,1","NETTLE WEED,NETTLE WEED,NETTLE WEED,NETTLE WEED,NETTLE WEED,NETTLE WEED,NETTLE WEED,NETTLE WEED","20,20,20,20,20,20,20,20","20,20,20,20,20,20,20,20","10,10,10,10,10,10,10,10","20,20,20,20,20,20,20,20","0,0,0,0,0,0,0,0","20,20,20,20,20,20,20,20","20,20,20,20,20,20,20,20","20,20,20,20,20,20,20,20","10,10,10,10,10,10,10,10","20,20,20,20,20,20,20,20","0,0,0,0,0,0,0,0","20,20,20,20,20,20,20,20","0,1,1,1,1,0,1,1","1904,1267,758,576,572,940,434,1119","55.43495233807278,-8.967453243793535,-28.975928854811173,-3.60436702125045,-23.086364854549146,6.246930527803352,-1.6817979787944815,-18.217269722662216","43.46252031558372,-27.619257786621866,6.814962058905696,-15.722274007707274,-14.018578756576579,25.988101598031776,-7.801639958766886,20.634456286473515","0","0"
"473","86","text","0","111","1014562","0-0","","","","","","","","","","","","","","","","","","","","","","","","","","","","","","","","","","","","",""
"","","plant-game","0","112","1026984","0-0","","200","190","2","WHEAT CROP","Right","200","120","4","THISTLE WEED","experimental","43","1,2,3,4","120,117.23053047533581,101.77306247171164,147.23192932660834","4,3,2,1","THISTLE WEED,THISTLE WEED,THISTLE WEED,THISTLE WEED","190,226.55314386550629,180,179.80176770989","2,1,2,1","WHEAT CROP,WHEAT CROP,CORN CROP,CORN CROP","0,0,0,0","20,20,20,20","10,10,10,10","20,20,20,20","20,20,20,20","20,20,20,20","0,0,0,0","20,20,20,20","10,10,10,10","20,20,20,20","20,20,20,20","20,20,20,20","1,1,0,1","2979,716,1544,1932","-2.769469524664192,-15.457468003624172,45.4588668548967,27.290648147748556","36.55314386550627,16.362271174807645,-0.19823229011001586,2.5696116113196226","0","0"
"672","86","text","0","113","1027776","0-0","","","","","","","","","","","","","","","","","","","","","","","","","","","","","","","","","","","","",""
"","","plant-game","0","114","1048436","0-0","","200","190","4","CORN CROP","Right","200","190","1","NETTLE WEED","experimental","44","1,2,3,4","190,170,189.58053265065385,181.68128488546677","1,3,2,1","NETTLE WEED,THISTLE WEED,THISTLE WEED,THISTLE WEED","190,197.0701425144354,211.54253855241538,230.11144100081256","4,3,2,1","CORN CROP,CORN CROP,CORN CROP,CORN CROP","0,0,0,0","20,20,20,20","10,10,10,10","20,20,20,20","20,20,20,20","20,20,20,20","0,0,0,0","20,20,20,20","10,10,10,10","20,20,20,20","20,20,20,20","20,20,20,20","1,0,1,1","3661,8678,2383,899","19.00005092946163,19.580532650653858,-7.89924776518707,12.27246668004974","7.0701425144353784,14.472396037979978,18.568902448397186,-3.6933498586275775","0","0"
"566","86","text","0","115","1049122","0-0","","","","","","","","","","","","","","","","","","","","","","","","","","","","","","","","","","","","",""
"","","plant-game","0","116","1054132","0-0","","200","180","1","WHEAT CROP","Right","200","190","1","THISTLE WEED","experimental","45","1","190","1","THISTLE WEED","180","1","WHEAT CROP","0","20","10","20","20","20","0","20","10","20","20","20","1","2181","18.031771596663237","-4.9918014881450645","0","0"
"544","86","text","0","117","1054806","0-0","","","","","","","","","","","","","","","","","","","","","","","","","","","","","","","","","","","","",""
"","","plant-game","0","118","1069893","0-0","","200","120","2","WHEAT CROP","Left","200","120","4","NETTLE WEED","experimental","46","1,2,3,4","120,175.56698065346595,180,199.72751731857736","2,1,2,1","WHEAT CROP,WHEAT CROP,CORN CROP,CORN CROP","120,146.20934347099688,164.80759506453106,223.64562937863056","4,3,2,1","NETTLE WEED,NETTLE WEED,NETTLE WEED,NETTLE WEED","20,20,20,20","20,20,20,20","10,10,10,10","20,20,20,20","0,0,0,0","20,20,20,20","20,20,20,20","20,20,20,20","10,10,10,10","20,20,20,20","0,0,0,0","20,20,20,20","0,0,0,1","5548,1228,2896,648","55.56698065346594,44.482859390382444,19.727517318577345,-9.85837588834691","26.209343470996888,18.59825159353417,58.83803431409951,7.426372457080513","0","0"
"629","86","text","0","119","1070633","0-0","","","","","","","","","","","","","","","","","","","","","","","","","","","","","","","","","","","","",""
"","","plant-game","0","120","1082527","0-0","","200","180","4","WHEAT CROP","Left","200","180","8","NETTLE WEED","experimental","47","1,2,3,4,5,6,7,8","180,216.95690332145793,211.39348915009225,175.49754987765184,160,172.11397785593297,191.08740549155388,179.60319367053387","4,3,2,1,4,3,2,1","WHEAT CROP,WHEAT CROP,WHEAT CROP,WHEAT CROP,CORN CROP,CORN CROP,CORN CROP,CORN CROP","180,231.4061970327686,232.11551219619898,227.17551676579,222.94290355555287,225.25812172729823,284.7223494547693,300.83780684111605","8,7,6,5,4,3,2,1","NETTLE WEED,NETTLE WEED,NETTLE WEED,NETTLE WEED,NETTLE WEED,NETTLE WEED,NETTLE WEED,NETTLE WEED","20,20,20,20,20,20,20,20","20,20,20,20,20,20,20,20","10,10,10,10,10,10,10,10","20,20,20,20,20,20,20,20","0,0,0,0,0,0,0,0","20,20,20,20,20,20,20,20","20,20,20,20,20,20,20,20","20,20,20,20,20,20,20,20","10,10,10,10,10,10,10,10","20,20,20,20,20,20,20,20","0,0,0,0,0,0,0,0","20,20,20,20,20,20,20,20","0,1,1,1,0,0,1,1","943,1550,966,966,724,527,326,354","36.956903321457936,-5.563414171365688,-35.895939272440415,5.057753267412865,12.113977855932962,18.973427635620897,-11.484211821019997,10.752906193794347","51.40619703276862,0.7093151634303745,-4.939995430408967,-4.232613210237128,2.3152181717453644,59.46422772747104,16.11545738634674,11.322986017865906","0","0"
"4867","86","text","0","121","1087524","0-0","","","","","","","","","","","","","","","","","","","","","","","","","","","","","","","","","","","","",""
"","","plant-game","0","122","1097868","0-0","","200","160","8","CORN CROP","Right","200","190","8","THISTLE WEED","experimental","48","1,2,3,4,5,6,7,8","190,226.06887795453014,174.90618695480123,176.17540091362596,182.35128613267605,154.47082513888162,164.07025062921582,151.61641938956137","8,7,6,5,4,3,2,1","THISTLE WEED,THISTLE WEED,THISTLE WEED,THISTLE WEED,THISTLE WEED,THISTLE WEED,THISTLE WEED,THISTLE WEED","160,183.77887691818555,155.49211063015173,110.85553157887715,122.93391891279192,111.97939538920022,117.34521967079661,128.05077224310418","8,7,6,5,4,3,2,1","CORN CROP,CORN CROP,CORN CROP,CORN CROP,CORN CROP,CORN CROP,CORN CROP,CORN CROP","0,0,0,0,0,0,0,0","20,20,20,20,20,20,20,20","10,10,10,10,10,10,10,10","20,20,20,20,20,20,20,20","20,20,20,20,20,20,20,20","20,20,20,20,20,20,20,20","0,0,0,0,0,0,0,0","20,20,20,20,20,20,20,20","10,10,10,10,10,10,10,10","20,20,20,20,20,20,20,20","20,20,20,20,20,20,20,20","20,20,20,20,20,20,20,20","1,0,0,0,0,0,0,0","2218,508,617,1010,596,623,408,412","36.06887795453015,-51.162690999728895,1.269213958824738,6.1758852190500955,-27.880460993794433,9.59942549033421,-12.453831239654441,-4.292675827532518","23.778876918185546,-28.28676628803381,-44.63657905127458,12.078387333914776,-10.954523523591709,5.365824281596396,10.705552572307562,-16.153433527373725","0","0"
"2057","86","text","0","123","1100085","0-0","","","","","","","","","","","","","","","","","","","","","","","","","","","","","","","","","","","","",""
"","","plant-game","0","124","1114732","0-0","","200","190","4","WHEAT CROP","Right","200","120","8","THISTLE WEED","experimental","49","1,2,3,4,5,6,7,8","120,150.62864338538637,155.46601861589838,197.7043698933089,247.57784102079495,219.48463656772915,194.11502776990386,190.1519090010093","8,7,6,5,4,3,2,1","THISTLE WEED,THISTLE WEED,THISTLE WEED,THISTLE WEED,THISTLE WEED,THISTLE WEED,THISTLE WEED,THISTLE WEED","190,165.59314302126515,142.23046966758264,158.80988490164708,160,132.53682302989884,143.1421904917613,132.68387080806596","4,3,2,1,4,3,2,1","WHEAT CROP,WHEAT CROP,WHEAT CROP,WHEAT CROP,CORN CROP,CORN CROP,CORN CROP,CORN CROP","0,0,0,0,0,0,0,0","20,20,20,20,20,20,20,20","10,10,10,10,10,10,10,10","20,20,20,20,20,20,20,20","20,20,20,20,20,20,20,20","20,20,20,20,20,20,20,20","0,0,0,0,0,0,0,0","20,20,20,20,20,20,20,20","10,10,10,10,10,10,10,10","20,20,20,20,20,20,20,20","20,20,20,20,20,20,20,20","20,20,20,20,20,20,20,20","0,0,1,1,0,0,0,0","2774,535,626,898,1617,534,310,359","30.628643385386376,4.837375230512012,42.23835127741052,49.873471127486056,-28.093204453065795,-25.369608797825297,-3.963118768894547,21.223611966761766","-24.40685697873484,-23.36267335368252,16.579415234064445,40.87120806840754,-27.46317697010116,10.60536746186246,-10.458319683695363,2.2547276220091383","0","0"
"2305","86","text","0","125","1117197","0-0","","","","","","","","","","","","","","","","","","","","","","","","","","","","","","","","","","","","",""
"","","plant-game","0","126","1135612","0-0","","200","180","1","WHEAT CROP","Right","200","190","4","THISTLE WEED","experimental","50","1,2,3,4","190,193.33452412460392,244.92765008653782,249.37706356490077","4,3,2,1","THISTLE WEED,THISTLE WEED,THISTLE WEED,THISTLE WEED","180,170,196.16360177645652,199.7331510228663","1,3,2,1","WHEAT CROP,CORN CROP,CORN CROP,CORN CROP","0,0,0,0","20,20,20,20","10,10,10,10","20,20,20,20","20,20,20,20","20,20,20,20","0,0,0,0","20,20,20,20","10,10,10,10","20,20,20,20","20,20,20,20","20,20,20,20","0,1,1,1","6558,1790,665,406","3.334524124603928,51.5931259619339,4.449413478362949,5.417216166734528","1.1036617110581797,26.163601776456503,3.5695492464097995,0.4408337885746185","0","0"
"768","86","text","0","127","1136524","0-0","","","","","","","","","","","","","","","","","","","","","","","","","","","","","","","","","","","","",""
"","","plant-game","0","128","1142060","0-0","","200","160","1","CORN CROP","Right","200","120","1","THISTLE WEED","experimental","51","1","120","1","THISTLE WEED","160","1","CORN CROP","0","20","10","20","20","20","0","20","10","20","20","20","1","1454","15.686620884684318","26.78257443860331","0","0"
"436","86","text","0","129","1142606","0-0","","","","","","","","","","","","","","","","","","","","","","","","","","","","","","","","","","","","",""
"","","plant-game","0","130","1148732","0-0","","200","120","4","CORN CROP","Left","200","120","4","NETTLE WEED","experimental","52","1,2,3,4","120,105.9028286474185,109.05696271678028,82.40959997930571","4,3,2,1","CORN CROP,CORN CROP,CORN CROP,CORN CROP","120,142.49877728697237,144.65510449903107,105.46152775607925","4,3,2,1","NETTLE WEED,NETTLE WEED,NETTLE WEED,NETTLE WEED","20,20,20,20","20,20,20,20","10,10,10,10","20,20,20,20","0,0,0,0","20,20,20,20","20,20,20,20","20,20,20,20","10,10,10,10","20,20,20,20","0,0,0,0","20,20,20,20","1,1,1,0","763,595,421,757","-14.097171352581498,3.1541340693617723,-26.647362737474563,40.52560950177127","22.498777286972363,2.1563272120586925,-39.19357674295182,32.38989421122325","0","0"
"611","86","text","0","131","1149483","0-0","","","","","","","","","","","","","","","","","","","","","","","","","","","","","","","","","","","","",""
"","","plant-game","0","132","1159434","0-0","","200","180","1","WHEAT CROP","Left","200","120","4","THISTLE WEED","experimental","53","1,2,3,4","180,170,177.23975325186927,166.1943399864917","1,3,2,1","WHEAT CROP,CORN CROP,CORN CROP,CORN CROP","120,104.48961477764243,91.33867329801079,110.82387702345578","4,3,2,1","THISTLE WEED,THISTLE WEED,THISTLE WEED,THISTLE WEED","20,20,20,20","20,20,20,20","10,10,10,10","20,20,20,20","0,0,0,0","20,20,20,20","20,20,20,20","20,20,20,20","10,10,10,10","20,20,20,20","0,0,0,0","20,20,20,20","0,1,1,0","2399,1148,485,1004","2.79979821784174,7.239753251869282,-11.045413265377562,-5.816930363606794","-15.510385222357563,-13.15094147963164,19.485203725444986,25.475369219077802","0","0"
"693","86","text","0","133","1160237","0-0","","","","","","","","","","","","","","","","","","","","","","","","","","","","","","","","","","","","",""
"","","plant-game","0","134","1169030","0-0","","200","160","8","CORN CROP","Left","200","160","8","THISTLE WEED","experimental","54","1,2,3,4,5,6,7,8","160,147.39924179967932,144.7167888065891,126.93665857006313,95.07347536623118,107.52715826566177,116.87319515981638,137.4282557997473","8,7,6,5,4,3,2,1","CORN CROP,CORN CROP,CORN CROP,CORN CROP,CORN CROP,CORN CROP,CORN CROP,CORN CROP","160,176.82963762352813,203.78932620117166,265.54220283641143,294.210126839495,274.2773147695082,298.45009749783065,329.42069383386075","8,7,6,5,4,3,2,1","THISTLE WEED,THISTLE WEED,THISTLE WEED,THISTLE WEED,THISTLE WEED,THISTLE WEED,THISTLE WEED,THISTLE WEED","20,20,20,20,20,20,20,20","20,20,20,20,20,20,20,20","10,10,10,10,10,10,10,10","20,20,20,20,20,20,20,20","0,0,0,0,0,0,0,0","20,20,20,20,20,20,20,20","20,20,20,20,20,20,20,20","20,20,20,20,20,20,20,20","10,10,10,10,10,10,10,10","20,20,20,20,20,20,20,20","0,0,0,0,0,0,0,0","20,20,20,20,20,20,20,20","0,1,1,1,1,1,1,1","2704,479,524,342,231,147,108,257","-12.600758200320683,-2.6824529930901972,-17.780130236525974,-31.863183203831944,12.453682899430586,9.346036894154606,20.555060639930907,29.655610371836513","16.829637623528132,26.959688577643544,61.75287663523977,28.667924003083552,-19.93281206998678,24.172782728322424,30.970596336030113,8.395551383453094","0","0"
"635","86","text","0","135","1169806","0-0","","","","","","","","","","","","","","","","","","","","","","","","","","","","","","","","","","","","",""
"","","plant-game","0","136","1176312","0-0","","200","160","4","WHEAT CROP","Right","200","180","4","NETTLE WEED","experimental","55","1,2,3,4","180,158.46114482814102,170.46818724409215,177.50988521064437","4,3,2,1","NETTLE WEED,NETTLE WEED,NETTLE WEED,NETTLE WEED","160,155.04278704475473,144.41971688244837,145.22651773629903","4,3,2,1","WHEAT CROP,WHEAT CROP,WHEAT CROP,WHEAT CROP","0,0,0,0","20,20,20,20","10,10,10,10","20,20,20,20","20,20,20,20","20,20,20,20","0,0,0,0","20,20,20,20","10,10,10,10","20,20,20,20","20,20,20,20","20,20,20,20","0,0,0,0","821,650,757,535","-21.53885517185897,12.007042415951137,7.041697966552212,-9.325166911434096","-4.9572129552452795,-10.623070162306348,0.8068008538506615,1.009387755509301","0","0"
"473","86","text","0","137","1176975","0-0","","","","","","","","","","","","","","","","","","","","","","","","","","","","","","","","","","","","",""
"","","plant-game","0","138","1189913","0-0","","200","190","1","CORN CROP","Right","200","180","4","THISTLE WEED","experimental","56","1,2,3,4","180,195.84897649483216,174.22394803430507,161.98748693882604","4,3,2,1","THISTLE WEED,THISTLE WEED,THISTLE WEED,THISTLE WEED","190,170,160.5501317675308,156.33738852930793","1,3,2,1","CORN CROP,WHEAT CROP,WHEAT CROP,WHEAT CROP","0,0,0,0","20,20,20,20","10,10,10,10","20,20,20,20","20,20,20,20","20,20,20,20","0,0,0,0","20,20,20,20","10,10,10,10","20,20,20,20","20,20,20,20","20,20,20,20","1,0,0,1","3628,1554,611,624","15.84897649483216,-21.6250284605271,-12.236461095479017,19.43269235815334","3.0134774550532164,-9.449868232469207,-4.212743238222844,21.787072406398956","0","0"
"1265","86","text","0","139","1191318","0-0","","","","","","","","","","","","","","","","","","","","","","","","","","","","","","","","","","","","",""
"","","plant-game","0","140","1203328","0-0","","200","160","2","CORN CROP","Left","200","180","8","THISTLE WEED","experimental","57","1,2,3,4,5,6,7,8","160,166.35387458855297,140,116.45602443415984,113.54182034297753,132.1146510245528,145.85889889330593,145.4255709549991","2,1,6,5,4,3,2,1","CORN CROP,CORN CROP,WHEAT CROP,WHEAT CROP,WHEAT CROP,WHEAT CROP,WHEAT CROP,WHEAT CROP","180,209.56998948800418,239.70027009238763,211.0808415379314,202.68616105510515,187.8412764171698,213.4454872626667,228.9529438258407","8,7,6,5,4,3,2,1","THISTLE WEED,THISTLE WEED,THISTLE WEED,THISTLE WEED,THISTLE WEED,THISTLE WEED,THISTLE WEED,THISTLE WEED","20,20,20,20,20,20,20,20","20,20,20,20,20,20,20,20","10,10,10,10,10,10,10,10","20,20,20,20,20,20,20,20","0,0,0,0,0,0,0,0","20,20,20,20,20,20,20,20","20,20,20,20,20,20,20,20","20,20,20,20,20,20,20,20","10,10,10,10,10,10,10,10","20,20,20,20,20,20,20,20","0,0,0,0,0,0,0,0","20,20,20,20,20,20,20,20","0,1,1,1,1,1,1,1","1045,924,904,676,582,491,535,497","6.353874588552982,-5.530594064088774,-23.543975565840164,-2.914204091182314,18.572830681575297,13.74424786875313,-0.433327938306835,30.81594270551483","29.569989488004182,30.130280604383437,-28.61942855445623,-8.394680482826253,-14.844884637935326,25.604210845496876,15.507456563173994,-8.754041388811824","0","0"
"489","86","text","0","141","1203942","0-0","","","","","","","","","","","","","","","","","","","","","","","","","","","","","","","","","","","","",""
"","","plant-game","0","142","1219502","0-0","","200","180","4","WHEAT CROP","Left","200","160","8","THISTLE WEED","experimental","58","1,2,3,4,5,6,7,8","180,262.3839233653795,282.34030767174113,321.1769135084377,160,180.77321801483237,191.0687793698785,245.7443614279008","4,3,2,1,4,3,2,1","WHEAT CROP,WHEAT CROP,WHEAT CROP,WHEAT CROP,CORN CROP,CORN CROP,CORN CROP,CORN CROP","160,188.52702420746752,205.552147529721,221.80832681194926,242.3601848845387,263.3078974263412,266.0841752299939,245.97604894545623","8,7,6,5,4,3,2,1","THISTLE WEED,THISTLE WEED,THISTLE WEED,THISTLE WEED,THISTLE WEED,THISTLE WEED,THISTLE WEED,THISTLE WEED","20,20,20,20,20,20,20,20","20,20,20,20,20,20,20,20","10,10,10,10,10,10,10,10","20,20,20,20,20,20,20,20","0,0,0,0,0,0,0,0","20,20,20,20,20,20,20,20","20,20,20,20,20,20,20,20","20,20,20,20,20,20,20,20","10,10,10,10,10,10,10,10","20,20,20,20,20,20,20,20","0,0,0,0,0,0,0,0","20,20,20,20,20,20,20,20","0,0,0,0,0,0,0,0","2057,526,356,1220,2643,629,535,760","82.38392336537946,19.956384306361663,38.83660583669655,31.358788361482787,20.773218014832374,10.295561355046157,54.675582058022286,37.85958259785683","28.52702420746752,17.025123322253478,16.25617928222827,20.551858072589447,20.94771254180246,2.776277803652725,-20.108126284537647,47.3286498006901","0","0"
"800","86","text","0","143","1220462","0-0","","","","","","","","","","","","","","","","","","","","","","","","","","","","","","","","","","","","",""
"","","plant-game","0","144","1227252","0-0","","200","180","2","CORN CROP","Right","200","120","2","NETTLE WEED","experimental","59","1,2","120,104.80857516381255","2,1","NETTLE WEED,NETTLE WEED","180,162.4702531436443","2,1","CORN CROP,CORN CROP","0,0","20,20","10,10","20,20","20,20","20,20","0,0","20,20","10,10","20,20","20,20","20,20","0,1","1552,2031","-15.191424836187446,18.641970350958","-17.529746856355708,15.857078923103735","0","0"
"829","86","text","0","145","1228201","0-0","","","","","","","","","","","","","","","","","","","","","","","","","","","","","","","","","","","","",""
"","","plant-game","0","146","1235847","0-0","","200","160","2","CORN CROP","Right","200","120","2","THISTLE WEED","experimental","60","1,2","120,159.07916758438347","2,1","THISTLE WEED,THISTLE WEED","160,180.0261174007178","2,1","CORN CROP,CORN CROP","0,0","20,20","10,10","20,20","20,20","20,20","0,0","20,20","10,10","20,20","20,20","20,20","1,1","2484,1730","39.07916758438347,7.321455953431544","20.026117400717787,29.80934603738944","0","0"
"413","86","text","0","147","1236370","0-0","","","","","","","","","","","","","","","","","","","","","","","","","","","","","","","","","","","","",""
"","","plant-game","0","148","1248015","0-0","","200","120","1","WHEAT CROP","Left","200","160","2","THISTLE WEED","experimental","61","1,2","120,190","1,1","WHEAT CROP,CORN CROP","160,160.77082349569616","2,1","THISTLE WEED,THISTLE WEED","20,20","20,20","10,10","20,20","0,0","20,20","20,20","20,20","10,10","20,20","0,0","20,20","0,0","2083,2622","46.860462276490935,49.07005201491072","0.7708234956961704,49.507692689887094","0","0"
"448","86","text","0","149","1248593","0-0","","","","","","","","","","","","","","","","","","","","","","","","","","","","","","","","","","","","",""
"","","plant-game","0","150","1258359","0-0","","200","180","4","WHEAT CROP","Left","200","160","2","THISTLE WEED","experimental","62","1,2,3,4","180,177.4623289121934,136.53604460400777,141.05675965391507","4,3,2,1","WHEAT CROP,WHEAT CROP,WHEAT CROP,WHEAT CROP","160,159.58720583259594,180,185.59656122560634","2,1,2,1","THISTLE WEED,THISTLE WEED,NETTLE WEED,NETTLE WEED","20,20,20,20","20,20,20,20","10,10,10,10","20,20,20,20","0,0,0,0","20,20,20,20","20,20,20,20","20,20,20,20","10,10,10,10","20,20,20,20","0,0,0,0","20,20,20,20","1,1,0,0","1871,597,992,1251","-2.537671087806573,-40.92628430818564,4.520715049907283,3.4191551733361223","-0.41279416740406555,57.02987640032071,5.59656122560634,36.60608272338874","0","0"
"4067","86","text","0","151","1262536","0-0","","","","","","","","","","","","","","","","","","","","","","","","","","","","","","","","","","","","",""
"","","plant-game","0","152","1277746","0-0","","200","190","1","CORN CROP","Right","200","190","8","NETTLE WEED","experimental","63","1,2,3,4,5,6,7,8","190,196.02632391445152,184.14448907478055,178.07938373040795,157.09166428680078,168.47623023106013,201.11884863052566,225.09097985916256","8,7,6,5,4,3,2,1","NETTLE WEED,NETTLE WEED,NETTLE WEED,NETTLE WEED,NETTLE WEED,NETTLE WEED,NETTLE WEED,NETTLE WEED","190,130,101.31334357054655,101.50690816879474,123.45620271560469,146.46291959269186,167.2609222864076,207.14043979470114","1,7,6,5,4,3,2,1","CORN CROP,WHEAT CROP,WHEAT CROP,WHEAT CROP,WHEAT CROP,WHEAT CROP,WHEAT CROP,WHEAT CROP","0,0,0,0,0,0,0,0","20,20,20,20,20,20,20,20","10,10,10,10,10,10,10,10","20,20,20,20,20,20,20,20","20,20,20,20,20,20,20,20","20,20,20,20,20,20,20,20","0,0,0,0,0,0,0,0","20,20,20,20,20,20,20,20","10,10,10,10,10,10,10,10","20,20,20,20,20,20,20,20","20,20,20,20,20,20,20,20","20,20,20,20,20,20,20,20","1,0,0,0,0,0,1,0","3859,2397,448,342,253,324,686,867","6.026323914451533,-11.881834839670962,-6.065105344372608,-20.987719443607162,11.38456594425936,32.642618399465526,23.97213122863689,8.3524802559426","14.632390198706453,-28.686656429453457,0.1935645982481824,21.94929454680996,23.00671687708716,20.79800269371576,39.879517508293546,6.874754263629763","0","0"
"416","86","text","0","153","1278291","0-0","","","","","","","","","","","","","","","","","","","","","","","","","","","","","","","","","","","","",""
"","","plant-game","0","154","1292054","0-0","","200","180","8","CORN CROP","Right","200","120","2","NETTLE WEED","experimental","64","1,2,3,4,5,6,7,8","120,164.3781896730944,140,161.99407987488442,163.91631287282266,189.62160631715835,210.2633123563248,214.4562302343767","2,1,6,5,4,3,2,1","NETTLE WEED,NETTLE WEED,THISTLE WEED,THISTLE WEED,THISTLE WEED,THISTLE WEED,THISTLE WEED,THISTLE WEED","180,191.17402012953943,155.45574386813252,176.83094364742246,173.65940274762335,154.0555869874039,164.61714523859706,167.08055923403973","8,7,6,5,4,3,2,1","CORN CROP,CORN CROP,CORN CROP,CORN CROP,CORN CROP,CORN CROP,CORN CROP,CORN CROP","0,0,0,0,0,0,0,0","20,20,20,20,20,20,20,20","10,10,10,10,10,10,10,10","20,20,20,20,20,20,20,20","20,20,20,20,20,20,20,20","20,20,20,20,20,20,20,20","0,0,0,0,0,0,0,0","20,20,20,20,20,20,20,20","10,10,10,10,10,10,10,10","20,20,20,20,20,20,20,20","20,20,20,20,20,20,20,20","20,20,20,20,20,20,20,20","1,1,1,1,1,1,0,0","1709,456,1160,809,573,680,947,677","44.3781896730944,-5.337035510541309,21.99407987488441,1.9222329979382486,25.70529344433568,20.64170603916644,4.192917878051906,5.850166212855999","11.174020129539423,-35.71827626140691,21.37519977928995,-3.171540899799112,-19.60381576021946,10.561558251193151,2.4634139954426577,2.486823040470156","0","0"
"1433","86","text","0","155","1293627","0-0","","","","","","","","","","","","","","","","","","","","","","","","","","","","","","","","","","","","",""
"","","plant-game","0","156","1304034","0-0","","200","120","8","WHEAT CROP","Left","200","160","2","NETTLE WEED","experimental","65","1,2,3,4,5,6,7,8","120,136.70234659754317,131.13861767511304,163.99690859400985,182.6872475841455,167.6595678502032,190.9111575725317,199.22816075803496","8,7,6,5,4,3,2,1","WHEAT CROP,WHEAT CROP,WHEAT CROP,WHEAT CROP,WHEAT CROP,WHEAT CROP,WHEAT CROP,WHEAT CROP","160,182.6952477853958,140,200.16146604105444,252.19308792210893,275.70480510916053,299.5743853210536,312.5335318648406","2,1,6,5,4,3,2,1","NETTLE WEED,NETTLE WEED,THISTLE WEED,THISTLE WEED,THISTLE WEED,THISTLE WEED,THISTLE WEED,THISTLE WEED","20,20,20,20,20,20,20,20","20,20,20,20,20,20,20,20","10,10,10,10,10,10,10,10","20,20,20,20,20,20,20,20","0,0,0,0,0,0,0,0","20,20,20,20,20,20,20,20","20,20,20,20,20,20,20,20","20,20,20,20,20,20,20,20","10,10,10,10,10,10,10,10","20,20,20,20,20,20,20,20","0,0,0,0,0,0,0,0","20,20,20,20,20,20,20,20","1,1,0,0,0,0,0,0","577,478,917,553,296,203,602,445","16.70234659754317,-5.56372892243012,32.858290918896806,18.69033899013565,-15.027679733942321,23.251589722328518,8.317003185503257,15.364265217205993","22.69524778539578,17.859336171790442,60.16146604105443,52.03162188105448,23.511717187051627,23.869580211893112,12.959146543786968,4.328212140598787","0","0"
"520","86","text","0","157","1304717","0-0","","","","","","","","","","","","","","","","","","","","","","","","","","","","","","","","","","","","",""
"","","plant-game","0","158","1327930","0-0","","200","190","2","WHEAT CROP","Left","200","190","8","THISTLE WEED","experimental","66","1,2,3,4,5,6,7,8","190,222.14561102309438,140,124.77017453556326,125.49114974349857,131.97501733666255,119.50285753696622,123.50153875092732","2,1,6,5,4,3,2,1","WHEAT CROP,WHEAT CROP,CORN CROP,CORN CROP,CORN CROP,CORN CROP,CORN CROP,CORN CROP","190,188.46634198440393,205.08886584712155,228.02707667871957,226.03829997385373,197.60895694258258,218.38759523005527,214.85055045125227","8,7,6,5,4,3,2,1","THISTLE WEED,THISTLE WEED,THISTLE WEED,THISTLE WEED,THISTLE WEED,THISTLE WEED,THISTLE WEED,THISTLE WEED","20,20,20,20,20,20,20,20","20,20,20,20,20,20,20,20","10,10,10,10,10,10,10,10","20,20,20,20,20,20,20,20","0,0,0,0,0,0,0,0","20,20,20,20,20,20,20,20","20,20,20,20,20,20,20,20","20,20,20,20,20,20,20,20","10,10,10,10,10,10,10,10","20,20,20,20,20,20,20,20","0,0,0,0,0,0,0,0","20,20,20,20,20,20,20,20","1,0,0,1,1,1,1,1","2221,3249,7490,853,493,848,594,688","32.145611023094375,5.126375764461988,-15.229825464436743,0.7209752079353065,6.48386759316398,-12.472159799696334,3.998681213961108,-32.97684929984056","-1.5336580155960666,16.622523862717628,22.938210831598006,-1.9887767048658491,-28.42934303127114,20.778638287472685,-3.5370447788029886,-13.194613155643786","0","0"
"4891","86","text","0","159","1332921","0-0","","","","","","","","","","","","","","","","","","","","","","","","","","","","","","","","","","","","",""
"","","plant-game","0","160","1343543","0-0","","200","160","2","CORN CROP","Right","200","160","4","THISTLE WEED","experimental","67","1,2,3,4","160,167.85908159550993,195.1972720000295,172.27987635151817","4,3,2,1","THISTLE WEED,THISTLE WEED,THISTLE WEED,THISTLE WEED","160,185.98143438818877,180,169.6595247405287","2,1,2,1","CORN CROP,CORN CROP,WHEAT CROP,WHEAT CROP","0,0,0,0","20,20,20,20","10,10,10,10","20,20,20,20","20,20,20,20","20,20,20,20","0,0,0,0","20,20,20,20","10,10,10,10","20,20,20,20","20,20,20,20","20,20,20,20","1,1,0,1","2337,413,2668,922","7.859081595509924,27.338190404519562,-22.917395648511324,-19.392173492479465","25.981434388188767,51.50490983523998,-10.340475259471313,46.098923267910656","0","0"
"515","86","text","0","161","1344178","0-0","","","","","","","","","","","","","","","","","","","","","","","","","","","","","","","","","","","","",""
"","","plant-game","0","162","1356017","0-0","","200","180","8","WHEAT CROP","Right","200","180","4","NETTLE WEED","experimental","68","1,2,3,4,5,6,7,8","180,164.57642233994454,164.81986241654087,132.04106085394565,160,210.59505584701935,203.14204119078,186.42980245001002","4,3,2,1,4,3,2,1","NETTLE WEED,NETTLE WEED,NETTLE WEED,NETTLE WEED,THISTLE WEED,THISTLE WEED,THISTLE WEED,THISTLE WEED","180,184.86387214308968,169.59466698525748,188.68223023891588,179.99314331307477,214.76373338776517,218.99308899887725,228.45001053781894","8,7,6,5,4,3,2,1","WHEAT CROP,WHEAT CROP,WHEAT CROP,WHEAT CROP,WHEAT CROP,WHEAT CROP,WHEAT CROP,WHEAT CROP","0,0,0,0,0,0,0,0","20,20,20,20,20,20,20,20","10,10,10,10,10,10,10,10","20,20,20,20,20,20,20,20","20,20,20,20,20,20,20,20","20,20,20,20,20,20,20,20","0,0,0,0,0,0,0,0","20,20,20,20,20,20,20,20","10,10,10,10,10,10,10,10","20,20,20,20,20,20,20,20","20,20,20,20,20,20,20,20","20,20,20,20,20,20,20,20","0,0,0,0,1,0,0,0","1613,512,546,383,496,762,428,1528","-15.423577660055463,0.24344007659633704,-32.77880156259521,18.112472085641297,50.59505584701934,-7.453014656239352,-16.712238740769983,5.2312622886559135","4.863872143089693,-15.269205157832204,19.0875632536584,-8.6890869258411,34.77059007469042,4.229355611112075,9.456921538941675,6.848873473579813","0","0"
"1865","86","text","0","163","1358002","0-0","","","","","","","","","","","","","","","","","","","","","","","","","","","","","","","","","","","","",""
"","","plant-game","0","164","1369651","0-0","","200","190","2","WHEAT CROP","Left","200","160","8","NETTLE WEED","experimental","69","1,2,3,4,5,6,7,8","190,213.84524123739675,140,120.30123875317082,98.09971734774768,79.24233752046501,96.96719504240849,88.17321715361106","2,1,6,5,4,3,2,1","WHEAT CROP,WHEAT CROP,CORN CROP,CORN CROP,CORN CROP,CORN CROP,CORN CROP,CORN CROP","160,182.64612418947183,217.23816019500663,181.55819612874996,166.93028546389476,168.3441696278325,157.21885834597927,164.1675499068785","8,7,6,5,4,3,2,1","NETTLE WEED,NETTLE WEED,NETTLE WEED,NETTLE WEED,NETTLE WEED,NETTLE WEED,NETTLE WEED,NETTLE WEED","20,20,20,20,20,20,20,20","20,20,20,20,20,20,20,20","10,10,10,10,10,10,10,10","20,20,20,20,20,20,20,20","0,0,0,0,0,0,0,0","20,20,20,20,20,20,20,20","20,20,20,20,20,20,20,20","20,20,20,20,20,20,20,20","10,10,10,10,10,10,10,10","20,20,20,20,20,20,20,20","0,0,0,0,0,0,0,0","20,20,20,20,20,20,20,20","0,0,1,1,1,1,1,1","793,1366,2260,517,444,399,483,404","23.84524123739676,22.113838014513174,-19.69876124682918,-22.20152140542314,-18.857379827282667,17.724857521943473,-8.793977888797427,-5.966769973909264","22.64612418947182,34.59203600553479,-35.67996406625669,-14.627910664855182,1.4138841639377384,-11.125311281853241,6.948691560899226,-4.612474501520017","0","0"
"422","86","text","0","165","1370163","0-0","","","","","","","","","","","","","","","","","","","","","","","","","","","","","","","","","","","","",""
"","","plant-game","0","166","1389105","0-0","","200","160","8","WHEAT CROP","Left","200","160","4","NETTLE WEED","experimental","70","1,2,3,4,5,6,7,8","160,183.1601315331448,174.753108550119,227.82529302859353,228.01188804544336,245.55514674917453,258.48621349937247,307.979616027214","8,7,6,5,4,3,2,1","WHEAT CROP,WHEAT CROP,WHEAT CROP,WHEAT CROP,WHEAT CROP,WHEAT CROP,WHEAT CROP,WHEAT CROP","160,168.78234177836362,197.8760709911718,225.38195588024718,160,202.17248465358884,197.09551826397905,204.29521856108747","4,3,2,1,4,3,2,1","NETTLE WEED,NETTLE WEED,NETTLE WEED,NETTLE WEED,THISTLE WEED,THISTLE WEED,THISTLE WEED,THISTLE WEED","20,20,20,20,20,20,20,20","20,20,20,20,20,20,20,20","10,10,10,10,10,10,10,10","20,20,20,20,20,20,20,20","0,0,0,0,0,0,0,0","20,20,20,20,20,20,20,20","20,20,20,20,20,20,20,20","20,20,20,20,20,20,20,20","10,10,10,10,10,10,10,10","20,20,20,20,20,20,20,20","0,0,0,0,0,0,0,0","20,20,20,20,20,20,20,20","1,1,0,0,1,0,0,0","1186,640,2728,718,3569,2011,729,985","23.1601315331448,-8.407022983025783,53.07218447847454,0.18659501684983582,17.54325870373116,12.931066750197957,49.49340252784153,43.244404564652875","8.782341778363623,29.093729212808178,27.505884889075375,-2.062604807733809,42.172484653588846,-5.076966389609787,7.199700297108421,-1.4047862636257769","0","0"
"581","86","text","0","167","1389796","0-0","","","","","","","","","","","","","","","","","","","","","","","","","","","","","","","","","","","","",""
"","","plant-game","0","168","1400232","0-0","","200","180","1","CORN CROP","Left","200","190","8","THISTLE WEED","experimental","71","1,2,3,4,5,6,7,8","180,130,154.1000402816249,158.22930556995502,184.03100261999438,178.2608062828462,178.05922953167007,185.0465466440158","1,7,6,5,4,3,2,1","CORN CROP,WHEAT CROP,WHEAT CROP,WHEAT CROP,WHEAT CROP,WHEAT CROP,WHEAT CROP,WHEAT CROP","190,239.69505941339702,255.79128351252697,303.9902332706739,297.4453844951354,251.58956647645056,243.4751183390714,271.90856548653255","8,7,6,5,4,3,2,1","THISTLE WEED,THISTLE WEED,THISTLE WEED,THISTLE WEED,THISTLE WEED,THISTLE WEED,THISTLE WEED,THISTLE WEED","20,20,20,20,20,20,20,20","20,20,20,20,20,20,20,20","10,10,10,10,10,10,10,10","20,20,20,20,20,20,20,20","0,0,0,0,0,0,0,0","20,20,20,20,20,20,20,20","20,20,20,20,20,20,20,20","20,20,20,20,20,20,20,20","10,10,10,10,10,10,10,10","20,20,20,20,20,20,20,20","0,0,0,0,0,0,0,0","20,20,20,20,20,20,20,20","0,1,1,1,1,1,1,1","1808,785,318,354,258,147,369,535","16.777838112964563,24.100040281624885,4.129265288330131,25.801697050039373,-5.770196337148171,-0.20157675117613752,6.987317112345722,4.1824342410725395","49.69505941339702,16.096224099129948,48.198949758146945,-6.544848775538531,-45.855818018684815,-8.114448137379163,28.433447147461134,-2.272299346374678","0","0"
"369","86","text","0","169","1400711","0-0","","","","","","","","","","","","","","","","","","","","","","","","","","","","","","","","","","","","",""
"","","plant-game","0","170","1411211","0-0","","200","120","2","CORN CROP","Left","200","160","4","NETTLE WEED","experimental","72","1,2,3,4","120,176.68722640086426,180,220.93265991451761","2,1,2,1","CORN CROP,CORN CROP,WHEAT CROP,WHEAT CROP","160,156.83332303544663,140.16362563961818,173.59616139739109","4,3,2,1","NETTLE WEED,NETTLE WEED,NETTLE WEED,NETTLE WEED","20,20,20,20","20,20,20,20","10,10,10,10","20,20,20,20","0,0,0,0","20,20,20,20","20,20,20,20","20,20,20,20","10,10,10,10","20,20,20,20","0,0,0,0","20,20,20,20","0,0,0,1","703,504,2601,1219","56.68722640086426,70.87725631792836,40.9326599145176,-19.519928945514923","-3.1666769645533677,-16.669697395828457,33.432535757772925,-34.29499654250772","0","0"
"502","86","text","0","171","1411777","0-0","","","","","","","","","","","","","","","","","","","","","","","","","","","","","","","","","","","","",""
"","","plant-game","0","172","1427679","0-0","","200","160","1","CORN CROP","Right","200","160","8","NETTLE WEED","experimental","73","1,2,3,4,5,6,7,8","160,197.5505812324405,190.1972819783318,192.49719271305685,169.06111849974837,184.99174608036438,190.05290619084127,188.71243772392737","8,7,6,5,4,3,2,1","NETTLE WEED,NETTLE WEED,NETTLE WEED,NETTLE WEED,NETTLE WEED,NETTLE WEED,NETTLE WEED,NETTLE WEED","160,130,98.07111562076086,88.94997559417267,123.99874690745835,126.06972871953013,128.47364044700385,108.10405374786235","1,7,6,5,4,3,2,1","CORN CROP,WHEAT CROP,WHEAT CROP,WHEAT CROP,WHEAT CROP,WHEAT CROP,WHEAT CROP,WHEAT CROP","0,0,0,0,0,0,0,0","20,20,20,20,20,20,20,20","10,10,10,10,10,10,10,10","20,20,20,20,20,20,20,20","20,20,20,20,20,20,20,20","20,20,20,20,20,20,20,20","0,0,0,0,0,0,0,0","20,20,20,20,20,20,20,20","10,10,10,10,10,10,10,10","20,20,20,20,20,20,20,20","20,20,20,20,20,20,20,20","20,20,20,20,20,20,20,20","1,0,0,0,0,0,0,0","1991,2344,599,632,470,508,1080,1215","37.55058123244049,-7.353299254108693,2.2999107347250494,-23.436074213308476,15.930627580616004,5.0611601104768935,-1.3404684669138964,-1.7852786941799903","20.755933533526186,-31.928884379239136,-9.121140026588197,35.04877131328568,2.070981812071777,2.4039117274737096,-20.369586699141497,-14.413153859705547","0","0"
"1097","86","text","0","173","1428885","0-0","","","","","","","","","","","","","","","","","","","","","","","","","","","","","","","","","","","","",""
"","","plant-game","0","174","1432921","0-0","","200","120","1","WHEAT CROP","Right","200","160","1","NETTLE WEED","experimental","74","1","160","1","NETTLE WEED","120","1","WHEAT CROP","0","20","10","20","20","20","0","20","10","20","20","20","1","692","10.53480435551879","29.953430990932087","0","0"
"398","86","text","0","175","1433413","0-0","","","","","","","","","","","","","","","","","","","","","","","","","","","","","","","","","","","","",""
"","","plant-game","0","176","1445221","0-0","","200","160","2","CORN CROP","Left","200","120","8","NETTLE WEED","experimental","75","1,2,3,4,5,6,7,8","160,174.6360927218705,140,150.71128078224416,158.81293546023286,140.1620915878783,172.60098106795633,192.10185128079186","2,1,6,5,4,3,2,1","CORN CROP,CORN CROP,WHEAT CROP,WHEAT CROP,WHEAT CROP,WHEAT CROP,WHEAT CROP,WHEAT CROP","120,123.09462430739747,182.940744586246,186.2625783132029,182.56312710650818,197.5830171833045,212.52379246690404,214.10246335653457","8,7,6,5,4,3,2,1","NETTLE WEED,NETTLE WEED,NETTLE WEED,NETTLE WEED,NETTLE WEED,NETTLE WEED,NETTLE WEED,NETTLE WEED","20,20,20,20,20,20,20,20","20,20,20,20,20,20,20,20","10,10,10,10,10,10,10,10","20,20,20,20,20,20,20,20","0,0,0,0,0,0,0,0","20,20,20,20,20,20,20,20","20,20,20,20,20,20,20,20","20,20,20,20,20,20,20,20","10,10,10,10,10,10,10,10","20,20,20,20,20,20,20,20","0,0,0,0,0,0,0,0","20,20,20,20,20,20,20,20","0,0,1,1,1,1,1,1","2547,382,1029,399,418,466,524,278","14.636092721870515,7.687054692296387,10.711280782244163,8.101654677988718,-18.65084387235455,32.43888948007802,19.50087021283553,28.811099877888996","3.0946243073974635,59.84612027884853,3.321833726956893,-3.6994512066947225,15.019890076796308,14.940775283599542,1.5786708896305361,2.1597706917248836","0","0"
"2611","86","text","0","177","1447962","0-0","","","","","","","","","","","","","","","","","","","","","","","","","","","","","","","","","","","","",""
"","","plant-game","0","178","1467737","0-0","","200","160","2","CORN CROP","Right","200","160","1","THISTLE WEED","experimental","76","1,2","160,190","1,1","THISTLE WEED,NETTLE WEED","160,177.10472495273785","2,1","CORN CROP,CORN CROP","0,0","20,20","10,10","20,20","20,20","20,20","0,0","20,20","10,10","20,20","20,20","20,20","1,1","2309,3015","15.575556692325923,17.52831869107937","17.104724952737858,11.835243843544909","2","0"
"3531","86","text","0","179","1471378","0-0","","","","","","","","","","","","","","","","","","","","","","","","","","","","","","","","","","","","",""
"","","plant-game","0","180","1490350","0-0","","200","160","8","CORN CROP","Right","200","190","1","NETTLE WEED","experimental","77","1,2,3,4,5,6,7,8","190,130,173.539819805212,184.79253234006285,244.83006820918106,267.4030267328421,292.319506722117,340.24402411665926","1,7,6,5,4,3,2,1","NETTLE WEED,THISTLE WEED,THISTLE WEED,THISTLE WEED,THISTLE WEED,THISTLE WEED,THISTLE WEED,THISTLE WEED","160,183.1579399463099,192.88201071692515,187.59057709266236,208.30231782888018,186.1989044493266,192.65277924474702,224.03499479061597","8,7,6,5,4,3,2,1","CORN CROP,CORN CROP,CORN CROP,CORN CROP,CORN CROP,CORN CROP,CORN CROP,CORN CROP","0,0,0,0,0,0,0,0","20,20,20,20,20,20,20,20","10,10,10,10,10,10,10,10","20,20,20,20,20,20,20,20","20,20,20,20,20,20,20,20","20,20,20,20,20,20,20,20","0,0,0,0,0,0,0,0","20,20,20,20,20,20,20,20","10,10,10,10,10,10,10,10","20,20,20,20,20,20,20,20","20,20,20,20,20,20,20,20","20,20,20,20,20,20,20,20","0,1,1,1,0,1,1,1","2388,704,399,628,1124,2072,5814,423","-15.979319214674724,43.53981980521199,11.25271253485083,60.03753586911821,22.57295852366102,24.91647998927494,47.92451739454225,24.435503312329452","23.157939946309902,9.724070770615231,-5.29143362426279,20.711740736217823,-22.103413379553576,6.453874795420436,31.382215545868952,35.96625607611176","0","0"
"629","86","text","0","181","1491089","0-0","","","","","","","","","","","","","","","","","","","","","","","","","","","","","","","","","","","","",""
"","","plant-game","0","182","1500030","0-0","","200","180","1","CORN CROP","Right","200","190","2","NETTLE WEED","experimental","78","1,2","190,186.649036946843","2,1","NETTLE WEED,NETTLE WEED","180,190","1,1","CORN CROP,WHEAT CROP","0,0","20,20","10,10","20,20","20,20","20,20","0,0","20,20","10,10","20,20","20,20","20,20","1,0","1229,647","-3.3509630531569954,31.060337557768616","17.284996239225137,-21.6872302598467","0","0"
