"rt","key_press","trial_type","trial_index","trial_index_global","time_elapsed","internal_chunk_id","responses","experimental_goal_height","experimental_start_height","experimental_weeks_total","experimental_crop_type","experimental_crop_side","fixed_goal_height","fixed_start_height","fixed_weeks_total","fixed_crop_type","trial_kind","trial_number","stage","left_current_height","left_weeks_remaining","left_crop_type","right_current_height","right_weeks_remaining","right_crop_type","mean_left_growth_given_left","sd_left_growth_given_left","mean_left_growth_given_middle","sd_left_growth_given_middle","mean_left_growth_given_right","sd_left_growth_given_right","mean_right_growth_given_left","sd_right_growth_given_left","mean_right_growth_given_middle","sd_right_growth_given_middle","mean_right_growth_given_right","sd_right_growth_given_right","response","response_time","left_growth","right_growth","other_key_pressed","mouse_clicked"
"3152322","77","text","0","0","3152417","0-0","","","","","","","","","","","","","","","","","","","","","","","","","","","","","","","","","","","","",""
"3897","","survey-text","0","1","3157329","0-0","{""Q0"":""23""}","","","","","","","","","","","","","","","","","","","","","","","","","","","","","","","","","","","",""
"4545","86","text","0","2","4670","0-0","","","","","","","","","","","","","","","","","","","","","","","","","","","","","","","","","","","","",""
"","","plant-game","0","3","60609","0-0","","200","120","8","CORN CROP","Left","200","120","8","THISTLE WEED","practice","1","1,2,3,4,5,6,7,8","120,114.2332164485016,113.33552817831281,132.2456090777856,166.64841465093394,157.05100240466828,161.1204259197324,148.96343224661874","8,7,6,5,4,3,2,1","CORN CROP,CORN CROP,CORN CROP,CORN CROP,CORN CROP,CORN CROP,CORN CROP,CORN CROP","120,124.22289490169427,132.75743812240916,149.15288413313118,156.40211112902256,121.41006042997415,148.74980209813816,139.99247952589482","8,7,6,5,4,3,2,1","THISTLE WEED,THISTLE WEED,THISTLE WEED,THISTLE WEED,THISTLE WEED,THISTLE WEED,THISTLE WEED,THISTLE WEED","20,20,20,20,20,20,20,20","20,20,20,20,20,20,20,20","10,10,10,10,10,10,10,10","20,20,20,20,20,20,20,20","0,0,0,0,0,0,0,0","20,20,20,20,20,20,20,20","20,20,20,20,20,20,20,20","20,20,20,20,20,20,20,20","10,10,10,10,10,10,10,10","20,20,20,20,20,20,20,20","0,0,0,0,0,0,0,0","20,20,20,20,20,20,20,20","0,0,1,1,1,0,1,0","11494,6394,1908,2697,2606,2473,2233,2947","-5.76678355149841,-0.8976882701887767,18.91008089947277,34.40280557314834,-9.597412246265671,4.06942351506412,-12.15699367311367,16.716002211967762","4.222894901694271,8.534543220714886,16.395446010722022,7.249226995891391,-34.99205069904841,27.339741668163995,-8.757322572243343,11.342509588286697","0","0"
"995","86","text","0","4","61760","0-0","","","","","","","","","","","","","","","","","","","","","","","","","","","","","","","","","","","","",""
"","","plant-game","0","5","87350","0-0","","200","160","4","WHEAT CROP","Right","200","160","4","THISTLE WEED","practice","2","1,2,3,4","160,179.50059386126244,196.94686574479917,196.4452398711823","4,3,2,1","THISTLE WEED,THISTLE WEED,THISTLE WEED,THISTLE WEED","160,165.90142713571817,186.48834104158422,223.30643533972727","4,3,2,1","WHEAT CROP,WHEAT CROP,WHEAT CROP,WHEAT CROP","0,0,0,0","20,20,20,20","10,10,10,10","20,20,20,20","20,20,20,20","20,20,20,20","0,0,0,0","20,20,20,20","10,10,10,10","20,20,20,20","20,20,20,20","20,20,20,20","0,1,0,0","4557,2887,2651,2199","19.50059386126244,17.446271883536717,-0.5016258736168672,71.95842183914786","5.901427135718166,20.586913905866055,36.818094298143066,-22.45871237031135","0","0"
"900","86","text","0","6","88430","0-0","","","","","","","","","","","","","","","","","","","","","","","","","","","","","","","","","","","","",""
"","","plant-game","0","7","101414","0-0","","200","180","2","CORN CROP","Right","200","180","2","NETTLE WEED","practice","3","1,2","180,216.96239180939955","2,1","NETTLE WEED,NETTLE WEED","180,192.27849625868305","2,1","CORN CROP,CORN CROP","0,0","20,20","10,10","20,20","20,20","20,20","0,0","20,20","10,10","20,20","20,20","20,20","0,0","4151,1503","36.962391809399556,1.601450318502653","12.278496258683056,-22.677900043184867","0","0"
"121","86","text","0","8","101648","0-0","","","","","","","","","","","","","","","","","","","","","","","","","","","","","","","","","","","","",""
"","","plant-game","0","9","114249","0-0","","200","190","1","CORN CROP","Left","200","190","1","THISTLE WEED","practice","4","1","190","1","CORN CROP","190","1","THISTLE WEED","20","20","10","20","0","20","20","20","10","20","0","20","0","3894","20.67516910546116","-20.919294501199204","0","0"
"841","86","text","0","10","115210","0-0","","","","","","","","","","","","","","","","","","","","","","","","","","","","","","","","","","","","",""
"","","plant-game","0","11","135108","0-0","","200","120","8","CORN CROP","Left","200","160","8","THISTLE WEED","practice","5","1,2,3,4,5,6,7,8","120,140.6356943586249,141.7465850623066,154.77256303139396,201.82984173487762,205.52658031674545,172.41057377282945,183.39818928643135","8,7,6,5,4,3,2,1","CORN CROP,CORN CROP,CORN CROP,CORN CROP,CORN CROP,CORN CROP,CORN CROP,CORN CROP","160,175.485122286873,210.8719405079972,277.0925566181391,308.4045574541292,299.38720553454317,309.73617225393446,309.06478302089675","8,7,6,5,4,3,2,1","THISTLE WEED,THISTLE WEED,THISTLE WEED,THISTLE WEED,THISTLE WEED,THISTLE WEED,THISTLE WEED,THISTLE WEED","20,20,20,20,20,20,20,20","20,20,20,20,20,20,20,20","10,10,10,10,10,10,10,10","20,20,20,20,20,20,20,20","0,0,0,0,0,0,0,0","20,20,20,20,20,20,20,20","20,20,20,20,20,20,20,20","20,20,20,20,20,20,20,20","10,10,10,10,10,10,10,10","20,20,20,20,20,20,20,20","0,0,0,0,0,0,0,0","20,20,20,20,20,20,20,20","0,0,0,0,1,1,1,0","1321,1071,2635,1566,2698,1177,1451,1120","20.635694358624903,1.1108907036817008,13.025977969087364,47.05727870348367,3.696738581867846,-33.116006543916,10.987615513601902,23.954830045872924","15.485122286872997,35.38681822112421,66.22061611014189,31.312000835990084,-9.01735191958603,10.348966719391278,-0.6713892330376878,50.16177245643526","0","0"
"531","86","text","0","12","135789","0-0","","","","","","","","","","","","","","","","","","","","","","","","","","","","","","","","","","","","",""
"","","plant-game","0","13","147058","0-0","","200","180","4","WHEAT CROP","Right","200","160","4","THISTLE WEED","practice","6","1,2,3,4","160,143.70552519156533,151.98261425479686,136.79553310102645","4,3,2,1","THISTLE WEED,THISTLE WEED,THISTLE WEED,THISTLE WEED","180,196.96250513194252,189.3843940023026,183.25697161024343","4,3,2,1","WHEAT CROP,WHEAT CROP,WHEAT CROP,WHEAT CROP","0,0,0,0","20,20,20,20","10,10,10,10","20,20,20,20","20,20,20,20","20,20,20,20","0,0,0,0","20,20,20,20","10,10,10,10","20,20,20,20","20,20,20,20","20,20,20,20","0,1,0,0","1090,1895,1585,1374","-16.294474808434668,8.277089063231521,-15.187081153770407,-28.68271662410905","16.962505131942528,-7.578111129639925,-6.127422392059164,-8.998608126197222","0","0"
"103","86","text","0","14","147241","0-0","","","","","","","","","","","","","","","","","","","","","","","","","","","","","","","","","","","","",""
"","","plant-game","0","15","157083","0-0","","200","180","2","CORN CROP","Left","200","190","2","NETTLE WEED","practice","7","1,2","180,179.5261088127623","2,1","CORN CROP,CORN CROP","190,189.28700726009157","2,1","NETTLE WEED,NETTLE WEED","20,20","20,20","10,10","20,20","0,0","20,20","20,20","20,20","10,10","20,20","0,0","20,20","0,0","3728,1110","-0.4738911872377152,-0.5198627044597686","-0.7129927399084224,11.650906654977824","0","0"
"93","86","text","0","16","157266","0-0","","","","","","","","","","","","","","","","","","","","","","","","","","","","","","","","","","","","",""
"","","plant-game","0","17","178816","0-0","","200","120","4","WHEAT CROP","Right","200","120","8","NETTLE WEED","practice","8","1,2,3,4,5,6,7,8","120,151.52381745353915,208.18355648924708,200.40757100946496,207.6896184542961,192.26225143852798,212.78746761317245,193.7233893582545","8,7,6,5,4,3,2,1","NETTLE WEED,NETTLE WEED,NETTLE WEED,NETTLE WEED,NETTLE WEED,NETTLE WEED,NETTLE WEED,NETTLE WEED","120,145.82197045641726,160.95483898690327,154.8950104483195,160,182.0010451482617,228.35095898199876,214.57545042668582","4,3,2,1,4,3,2,1","WHEAT CROP,WHEAT CROP,WHEAT CROP,WHEAT CROP,CORN CROP,CORN CROP,CORN CROP,CORN CROP","0,0,0,0,0,0,0,0","20,20,20,20,20,20,20,20","10,10,10,10,10,10,10,10","20,20,20,20,20,20,20,20","20,20,20,20,20,20,20,20","20,20,20,20,20,20,20,20","0,0,0,0,0,0,0,0","20,20,20,20,20,20,20,20","10,10,10,10,10,10,10,10","20,20,20,20,20,20,20,20","20,20,20,20,20,20,20,20","20,20,20,20,20,20,20,20","1,1,0,0,0,1,0,0","2684,765,1141,1457,4244,1902,1700,1218","31.52381745353915,56.65973903570793,-7.775985479782114,7.282047444831133,-15.427367015768121,20.52521617464446,-19.06407825491796,14.512373897968935","25.821970456417247,15.132868530486014,-6.059828538583756,13.502184695155929,22.00104514826172,46.34991383373706,-13.775508555312939,3.880416713465769","0","0"
"598","86","text","0","18","179574","0-0","","","","","","","","","","","","","","","","","","","","","","","","","","","","","","","","","","","","",""
"","","plant-game","0","19","199589","0-0","","200","160","4","WHEAT CROP","Right","200","160","2","NETTLE WEED","practice","9","1,2,3,4","160,131.1235223980974,180,183.29076427313618","2,1,2,1","NETTLE WEED,NETTLE WEED,THISTLE WEED,THISTLE WEED","160,201.14955946160734,206.81774869835925,182.29329732491084","4,3,2,1","WHEAT CROP,WHEAT CROP,WHEAT CROP,WHEAT CROP","0,0,0,0","20,20,20,20","10,10,10,10","20,20,20,20","20,20,20,20","20,20,20,20","0,0,0,0","20,20,20,20","10,10,10,10","20,20,20,20","20,20,20,20","20,20,20,20","1,1,0,1","1735,1703,3139,1368","-28.87647760190258,41.29598419479518,3.2907642731361655,1.4739663592189025","41.14955946160734,5.668189236751919,-24.524451373448404,65.64999222552083","0","0"
"573","86","text","0","20","200283","0-0","","","","","","","","","","","","","","","","","","","","","","","","","","","","","","","","","","","","",""
"","","plant-game","0","21","216059","0-0","","200","180","2","WHEAT CROP","Left","200","180","1","NETTLE WEED","practice","10","1,2","180,210.9450299468721","2,1","WHEAT CROP,WHEAT CROP","180,190","1,1","NETTLE WEED,THISTLE WEED","20,20","20,20","10,10","20,20","0,0","20,20","20,20","20,20","10,10","20,20","0,0","20,20","0,0","3503,1791","30.945029946872104,11.739438757663173","26.470477311635573,29.32864201503217","0","0"
"111","86","text","0","22","216250","0-0","","","","","","","","","","","","","","","","","","","","","","","","","","","","","","","","","","","","",""
"","","plant-game","0","23","236136","0-0","","200","120","8","WHEAT CROP","Right","200","160","4","NETTLE WEED","practice","11","1,2,3,4,5,6,7,8","160,178.84345223206122,178.3156528595788,236.65330297490516,160,135.52506019594531,144.11134832524627,163.23374622310487","4,3,2,1,4,3,2,1","NETTLE WEED,NETTLE WEED,NETTLE WEED,NETTLE WEED,THISTLE WEED,THISTLE WEED,THISTLE WEED,THISTLE WEED","120,144.6246532064607,159.98708526822085,183.12012406556073,222.9102716361599,243.99235611354595,245.77373098541665,255.7963064004863","8,7,6,5,4,3,2,1","WHEAT CROP,WHEAT CROP,WHEAT CROP,WHEAT CROP,WHEAT CROP,WHEAT CROP,WHEAT CROP,WHEAT CROP","0,0,0,0,0,0,0,0","20,20,20,20,20,20,20,20","10,10,10,10,10,10,10,10","20,20,20,20,20,20,20,20","20,20,20,20,20,20,20,20","20,20,20,20,20,20,20,20","0,0,0,0,0,0,0,0","20,20,20,20,20,20,20,20","10,10,10,10,10,10,10,10","20,20,20,20,20,20,20,20","20,20,20,20,20,20,20,20","20,20,20,20,20,20,20,20","1,1,1,0,0,0,0,0","2051,886,881,2116,1542,949,498,794","18.84345223206122,-0.5277993724824235,58.33765011532638,12.38684828430219,-24.474939804054685,8.586288129300948,19.122397897858615,-36.13580566721354","24.624653206460692,15.362432061760158,23.133038797339868,39.790147570599174,21.08208447738604,1.7813748718706988,10.022575415069625,-17.529602126891216","0","0"
"514","86","text","0","24","236800","0-0","","","","","","","","","","","","","","","","","","","","","","","","","","","","","","","","","","","","",""
"","","plant-game","0","25","255522","0-0","","200","180","2","CORN CROP","Left","200","160","4","NETTLE WEED","practice","12","1,2,3,4","180,207.46285274154735,180,208.60346922877983","2,1,2,1","CORN CROP,CORN CROP,WHEAT CROP,WHEAT CROP","160,189.37980933878907,186.95637957189578,186.09800526606836","4,3,2,1","NETTLE WEED,NETTLE WEED,NETTLE WEED,NETTLE WEED","20,20,20,20","20,20,20,20","10,10,10,10","20,20,20,20","0,0,0,0","20,20,20,20","20,20,20,20","20,20,20,20","10,10,10,10","20,20,20,20","0,0,0,0","20,20,20,20","0,1,0,1","2867,2009,3260,2424","27.46285274154736,45.833086394475245,28.603469228779815,5.34817564178644","29.379809338789087,-2.4234297668932934,-0.858374305827418,-19.728262044372048","0","0"
"444","86","text","0","26","256086","0-0","","","","","","","","","","","","","","","","","","","","","","","","","","","","","","","","","","","","",""
"6586","86","text","0","27","263832","0-0","","","","","","","","","","","","","","","","","","","","","","","","","","","","","","","","","","","","",""
"","","plant-game","0","28","276371","0-0","","200","160","1","WHEAT CROP","Left","200","120","2","NETTLE WEED","experimental","1","1,2","160,190","1,1","WHEAT CROP,CORN CROP","120,127.90229368826533","2,1","NETTLE WEED,NETTLE WEED","20,20","20,20","10,10","20,20","0,0","20,20","20,20","20,20","10,10","20,20","0,0","20,20","0,0","3038,2877","-12.888378951093948,0.07197326486758371","7.902293688265328,71.1277876077086","0","0"
"876","86","text","0","29","277372","0-0","","","","","","","","","","","","","","","","","","","","","","","","","","","","","","","","","","","","",""
"","","plant-game","0","30","291215","0-0","","200","120","4","CORN CROP","Right","200","160","4","THISTLE WEED","experimental","2","1,2,3,4","160,171.64728800939375,200.61032960073928,206.04672082733796","4,3,2,1","THISTLE WEED,THISTLE WEED,THISTLE WEED,THISTLE WEED","120,137.33369000854157,147.5232281489715,155.9547701415239","4,3,2,1","CORN CROP,CORN CROP,CORN CROP,CORN CROP","0,0,0,0","20,20,20,20","10,10,10,10","20,20,20,20","20,20,20,20","20,20,20,20","0,0,0,0","20,20,20,20","10,10,10,10","20,20,20,20","20,20,20,20","20,20,20,20","0,0,0,0","7353,1077,1494,639","11.647288009393753,28.963041591345537,5.436391226598685,7.320181736969625","17.333690008541556,10.189538140429931,8.431541992552411,27.464868509947095","0","0"
"740","86","text","0","31","292075","0-0","","","","","","","","","","","","","","","","","","","","","","","","","","","","","","","","","","","","",""
"","","plant-game","0","32","307973","0-0","","200","120","4","CORN CROP","Left","200","190","1","NETTLE WEED","experimental","3","1,2,3,4","120,137.49040095210728,150.94778288557208,165.6873536171004","4,3,2,1","CORN CROP,CORN CROP,CORN CROP,CORN CROP","190,170,155.82287606423932,179.76858139600353","1,3,2,1","NETTLE WEED,THISTLE WEED,THISTLE WEED,THISTLE WEED","20,20,20,20","20,20,20,20","10,10,10,10","20,20,20,20","0,0,0,0","20,20,20,20","20,20,20,20","20,20,20,20","10,10,10,10","20,20,20,20","0,0,0,0","20,20,20,20","1,0,0,0","3506,4144,1395,1500","17.49040095210727,13.457381933464799,14.739570731528314,9.1954638917686","-24.477515680657863,-14.177123935760662,23.945705331764195,10.706136755591594","0","0"
"603","86","text","0","33","308732","0-0","","","","","","","","","","","","","","","","","","","","","","","","","","","","","","","","","","","","",""
"","","plant-game","0","34","319954","0-0","","200","190","4","WHEAT CROP","Left","200","180","4","NETTLE WEED","experimental","4","1,2,3,4","190,203.78956358672755,181.19613856943886,223.36005898209504","4,3,2,1","WHEAT CROP,WHEAT CROP,WHEAT CROP,WHEAT CROP","180,191.95810868765315,192.61097933218585,221.3874182677252","4,3,2,1","NETTLE WEED,NETTLE WEED,NETTLE WEED,NETTLE WEED","20,20,20,20","20,20,20,20","10,10,10,10","20,20,20,20","0,0,0,0","20,20,20,20","20,20,20,20","20,20,20,20","10,10,10,10","20,20,20,20","0,0,0,0","20,20,20,20","0,1,0,1","2437,2429,1979,1375","13.789563586727551,-22.593425017288702,42.16392041265619,9.582944837041778","11.958108687653153,0.6528706445326882,28.776438935539353,2.368762678576384","0","0"
"94","86","text","0","35","320130","0-0","","","","","","","","","","","","","","","","","","","","","","","","","","","","","","","","","","","","",""
"","","plant-game","0","36","337802","0-0","","200","190","1","WHEAT CROP","Left","200","190","4","THISTLE WEED","experimental","5","1,2,3,4","190,170,164.88239108759,169.36712747732545","1,3,2,1","WHEAT CROP,CORN CROP,CORN CROP,CORN CROP","190,207.96775009138815,195.50627192453348,181.51233389919065","4,3,2,1","THISTLE WEED,THISTLE WEED,THISTLE WEED,THISTLE WEED","20,20,20,20","20,20,20,20","10,10,10,10","20,20,20,20","0,0,0,0","20,20,20,20","20,20,20,20","20,20,20,20","10,10,10,10","20,20,20,20","0,0,0,0","20,20,20,20","1,1,1,0","5641,4163,1295,1261","11.78744417546842,-5.117608912410003,4.484736389735454,16.501142133652746","17.96775009138815,-12.461478166854684,-13.993938025342828,21.823196770773343","0","0"
"544","86","text","0","37","338486","0-0","","","","","","","","","","","","","","","","","","","","","","","","","","","","","","","","","","","","",""
"","","plant-game","0","38","344721","0-0","","200","160","1","CORN CROP","Left","200","120","1","THISTLE WEED","experimental","6","1","160","1","CORN CROP","120","1","THISTLE WEED","20","20","10","20","0","20","20","20","10","20","0","20","0","2830","24.77959207429599","22.15026612720637","0","0"
"592","86","text","0","39","345493","0-0","","","","","","","","","","","","","","","","","","","","","","","","","","","","","","","","","","","","",""
"","","plant-game","0","40","352741","0-0","","200","120","2","WHEAT CROP","Left","200","160","2","NETTLE WEED","experimental","7","1,2","120,136.8167342553939","2,1","WHEAT CROP,WHEAT CROP","160,196.50441590697008","2,1","NETTLE WEED,NETTLE WEED","20,20","20,20","10,10","20,20","0,0","20,20","20,20","20,20","10,10","20,20","0,0","20,20","1,1","3188,1046","16.816734255393897,3.587619398208246","36.50441590697008,-7.586839745829548","0","0"
"459","86","text","0","41","353340","0-0","","","","","","","","","","","","","","","","","","","","","","","","","","","","","","","","","","","","",""
"","","plant-game","0","42","366987","0-0","","200","120","2","WHEAT CROP","Right","200","160","1","THISTLE WEED","experimental","8","1,2","160,190","1,1","THISTLE WEED,NETTLE WEED","120,90.01926573190717","2,1","WHEAT CROP,WHEAT CROP","0,0","20,20","10,10","20,20","20,20","20,20","0,0","20,20","10,10","20,20","20,20","20,20","0,0","4448,4000","-9.036223146318754,-15.747126960759443","-29.980734268092828,-12.694405452305","0","0"
"570","86","text","0","43","367697","0-0","","","","","","","","","","","","","","","","","","","","","","","","","","","","","","","","","","","","",""
"","","plant-game","0","44","374368","0-0","","200","120","2","WHEAT CROP","Right","200","120","2","NETTLE WEED","experimental","9","1,2","120,143.3101431053069","2,1","NETTLE WEED,NETTLE WEED","120,143.13378949935026","2,1","WHEAT CROP,WHEAT CROP","0,0","20,20","10,10","20,20","20,20","20,20","0,0","20,20","10,10","20,20","20,20","20,20","1,1","2285,953","23.3101431053069,20.718805895835","23.13378949935027,-1.8901718905268048","0","0"
"732","86","text","0","45","375256","0-0","","","","","","","","","","","","","","","","","","","","","","","","","","","","","","","","","","","","",""
"","","plant-game","0","46","393047","0-0","","200","180","2","CORN CROP","Left","200","160","8","NETTLE WEED","experimental","10","1,2,3,4,5,6,7,8","180,171.7719438473804,140,136.7781480490998,96.4199198729075,107.54735128967823,105.98838941299977,99.5481526470637","2,1,6,5,4,3,2,1","CORN CROP,CORN CROP,WHEAT CROP,WHEAT CROP,WHEAT CROP,WHEAT CROP,WHEAT CROP,WHEAT CROP","160,148.45520442988263,154.73612341306765,191.81878281065872,193.27053677005594,216.73214111313544,224.12733499074855,243.86483391446455","8,7,6,5,4,3,2,1","NETTLE WEED,NETTLE WEED,NETTLE WEED,NETTLE WEED,NETTLE WEED,NETTLE WEED,NETTLE WEED,NETTLE WEED","20,20,20,20,20,20,20,20","20,20,20,20,20,20,20,20","10,10,10,10,10,10,10,10","20,20,20,20,20,20,20,20","0,0,0,0,0,0,0,0","20,20,20,20,20,20,20,20","20,20,20,20,20,20,20,20","20,20,20,20,20,20,20,20","10,10,10,10,10,10,10,10","20,20,20,20,20,20,20,20","0,0,0,0,0,0,0,0","20,20,20,20,20,20,20,20","0,0,0,1,1,1,1,1","2735,1315,1934,1295,2076,2424,425,382","-8.228056152619597,2.863582839934029,-3.2218519509002093,-40.3582281761923,11.127431416770735,-1.5589618766784696,-6.440236765936059,26.410699717240544","-11.54479557011738,6.280918983185021,37.08265939759107,1.4517539593972104,23.46160434307951,7.395193877613102,19.737498923716007,-3.915641052715152","0","0"
"471","86","text","0","47","393648","0-0","","","","","","","","","","","","","","","","","","","","","","","","","","","","","","","","","","","","",""
"","","plant-game","0","48","405731","0-0","","200","180","2","CORN CROP","Left","200","190","4","THISTLE WEED","experimental","11","1,2,3,4","180,216.13231617971996,180,212.42578789455763","2,1,2,1","CORN CROP,CORN CROP,WHEAT CROP,WHEAT CROP","190,214.61553382731756,250.6195961585332,242.24511321605792","4,3,2,1","THISTLE WEED,THISTLE WEED,THISTLE WEED,THISTLE WEED","20,20,20,20","20,20,20,20","10,10,10,10","20,20,20,20","0,0,0,0","20,20,20,20","20,20,20,20","20,20,20,20","10,10,10,10","20,20,20,20","0,0,0,0","20,20,20,20","0,1,1,1","2639,1198,1892,1005","36.13231617971996,6.667200906984712,32.42578789455763,4.762232339998297","24.61553382731757,36.004062331215636,-8.374482942475284,31.298132441296186","0","0"
"103","86","text","0","49","405937","0-0","","","","","","","","","","","","","","","","","","","","","","","","","","","","","","","","","","","","",""
"","","plant-game","0","50","431709","0-0","","200","160","8","CORN CROP","Right","200","180","4","THISTLE WEED","experimental","12","1,2,3,4,5,6,7,8","180,195.76261005102123,220.95626471856016,194.59981925385608,160,147.54208089152078,151.0888586396655,176.84845528132803","4,3,2,1,4,3,2,1","THISTLE WEED,THISTLE WEED,THISTLE WEED,THISTLE WEED,NETTLE WEED,NETTLE WEED,NETTLE WEED,NETTLE WEED","160,180.84645098380614,138.9064083952031,149.49219140427013,172.6127343429297,182.98593538100795,187.65876272280593,192.82663146155107","8,7,6,5,4,3,2,1","CORN CROP,CORN CROP,CORN CROP,CORN CROP,CORN CROP,CORN CROP,CORN CROP,CORN CROP","0,0,0,0,0,0,0,0","20,20,20,20,20,20,20,20","10,10,10,10,10,10,10,10","20,20,20,20,20,20,20,20","20,20,20,20,20,20,20,20","20,20,20,20,20,20,20,20","0,0,0,0,0,0,0,0","20,20,20,20,20,20,20,20","10,10,10,10,10,10,10,10","20,20,20,20,20,20,20,20","20,20,20,20,20,20,20,20","20,20,20,20,20,20,20,20","0,0,0,0,1,1,1,1","3978,1955,1899,4400,3397,1180,1165,1404","15.762610051021223,25.193654667538933,-26.356445464704077,-12.89530974098221,-12.45791910847921,3.5467777481447023,25.759596641662554,23.26428770913497","20.846450983806143,-41.94004258860303,10.585783009067022,23.120542938659582,10.373201038078232,4.672827341797971,5.167868738745138,7.9721211661995675","0","0"
"180","86","text","0","51","431999","0-0","","","","","","","","","","","","","","","","","","","","","","","","","","","","","","","","","","","","",""
"","","plant-game","0","52","440313","0-0","","200","180","2","CORN CROP","Right","200","160","2","THISTLE WEED","experimental","13","1,2","160,182.54588766678435","2,1","THISTLE WEED,THISTLE WEED","180,196.06416804303657","2,1","CORN CROP,CORN CROP","0,0","20,20","10,10","20,20","20,20","20,20","0,0","20,20","10,10","20,20","20,20","20,20","1,0","3636,2161","22.54588766678435,-9.318490491008415","16.064168043036585,-2.406739355735039","0","0"
"466","86","text","0","53","440899","0-0","","","","","","","","","","","","","","","","","","","","","","","","","","","","","","","","","","","","",""
"","","plant-game","0","54","453924","0-0","","200","180","2","CORN CROP","Left","200","120","4","THISTLE WEED","experimental","14","1,2,3,4","180,200.93729587015306,180,177.804446287855","2,1,2,1","CORN CROP,CORN CROP,WHEAT CROP,WHEAT CROP","120,139.56527722036404,147.91152270582919,167.92425956087015","4,3,2,1","THISTLE WEED,THISTLE WEED,THISTLE WEED,THISTLE WEED","20,20,20,20","20,20,20,20","10,10,10,10","20,20,20,20","0,0,0,0","20,20,20,20","20,20,20,20","20,20,20,20","10,10,10,10","20,20,20,20","0,0,0,0","20,20,20,20","0,1,0,0","2413,1910,3074,1146","20.937295870153058,27.193915343225168,-2.195553712144985,-3.0651539311024614","19.565277220364035,8.34624548546515,20.01273685504097,15.090547467510575","0","0"
"477","86","text","0","55","454511","0-0","","","","","","","","","","","","","","","","","","","","","","","","","","","","","","","","","","","","",""
"","","plant-game","0","56","471939","0-0","","200","190","8","CORN CROP","Left","200","160","2","NETTLE WEED","experimental","15","1,2,3,4,5,6,7,8","190,214.4072375526722,271.6799864134484,300.036940910541,285.86298332213585,276.32849079856743,294.61290547599253,314.0723175834652","8,7,6,5,4,3,2,1","CORN CROP,CORN CROP,CORN CROP,CORN CROP,CORN CROP,CORN CROP,CORN CROP,CORN CROP","160,164.6157779375128,140,114.96540207956531,108.06781483676241,106.75662372678272,129.2201782247465,120.35719178980443","2,1,6,5,4,3,2,1","NETTLE WEED,NETTLE WEED,THISTLE WEED,THISTLE WEED,THISTLE WEED,THISTLE WEED,THISTLE WEED,THISTLE WEED","20,20,20,20,20,20,20,20","20,20,20,20,20,20,20,20","10,10,10,10,10,10,10,10","20,20,20,20,20,20,20,20","0,0,0,0,0,0,0,0","20,20,20,20,20,20,20,20","20,20,20,20,20,20,20,20","20,20,20,20,20,20,20,20","10,10,10,10,10,10,10,10","20,20,20,20,20,20,20,20","0,0,0,0,0,0,0,0","20,20,20,20,20,20,20,20","1,1,1,1,1,1,1,1","4455,2131,3620,420,251,230,487,434","24.407237552672207,57.27274886077619,28.356954497092595,-14.173957588405157,-9.53449252356839,18.284414677425122,19.459412107472662,-15.912857958017907","4.615777937512797,-4.842044038362408,-25.0345979204347,-6.897587242802905,-1.3111911099796831,22.463554497963763,-8.862986434942053,33.33903027527085","0","0"
"543","86","text","0","57","472632","0-0","","","","","","","","","","","","","","","","","","","","","","","","","","","","","","","","","","","","",""
"","","plant-game","0","58","478331","0-0","","200","180","1","WHEAT CROP","Left","200","180","1","THISTLE WEED","experimental","16","1","180","1","WHEAT CROP","180","1","THISTLE WEED","20","20","10","20","0","20","20","20","10","20","0","20","0","2693","0.31036533067932126","13.633693938326807","0","0"
"6375","86","text","0","59","484908","0-0","","","","","","","","","","","","","","","","","","","","","","","","","","","","","","","","","","","","",""
"","","plant-game","0","60","498876","0-0","","200","180","4","CORN CROP","Left","200","180","2","THISTLE WEED","experimental","17","1,2,3,4","180,190.70931547514152,186.26003595110896,156.25678099597474","4,3,2,1","CORN CROP,CORN CROP,CORN CROP,CORN CROP","180,193.0769378091908,180,174.93154915376783","2,1,2,1","THISTLE WEED,THISTLE WEED,NETTLE WEED,NETTLE WEED","20,20,20,20","20,20,20,20","10,10,10,10","20,20,20,20","0,0,0,0","20,20,20,20","20,20,20,20","20,20,20,20","10,10,10,10","20,20,20,20","0,0,0,0","20,20,20,20","0,1,1,1","3264,1970,2092,944","10.709315475141509,-4.449279524032573,-30.003254955134224,28.395469795368037","13.076937809190822,-14.489175000513736,-5.068450846232155,-12.8503155619516","0","0"
"622","86","text","0","61","499654","0-0","","","","","","","","","","","","","","","","","","","","","","","","","","","","","","","","","","","","",""
"","","plant-game","0","62","513141","0-0","","200","190","8","WHEAT CROP","Right","200","160","8","THISTLE WEED","experimental","18","1,2,3,4,5,6,7,8","160,145.66197589461024,179.43266629971703,149.31188660681997,180.11277911421644,178.8610725628461,169.8187117186989,142.74292774319653","8,7,6,5,4,3,2,1","THISTLE WEED,THISTLE WEED,THISTLE WEED,THISTLE WEED,THISTLE WEED,THISTLE WEED,THISTLE WEED,THISTLE WEED","190,197.05543843859795,178.32399615034788,156.76331323403627,142.67673773356907,142.10765614034176,126.0965970039031,122.46640927503837","8,7,6,5,4,3,2,1","WHEAT CROP,WHEAT CROP,WHEAT CROP,WHEAT CROP,WHEAT CROP,WHEAT CROP,WHEAT CROP,WHEAT CROP","0,0,0,0,0,0,0,0","20,20,20,20,20,20,20,20","10,10,10,10,10,10,10,10","20,20,20,20,20,20,20,20","20,20,20,20,20,20,20,20","20,20,20,20,20,20,20,20","0,0,0,0,0,0,0,0","20,20,20,20,20,20,20,20","10,10,10,10,10,10,10,10","20,20,20,20,20,20,20,20","20,20,20,20,20,20,20,20","20,20,20,20,20,20,20,20","0,0,0,0,0,0,0,0","4560,540,464,509,608,1220,1276,392","-14.338024105389767,33.770690405106805,-30.120779692897056,30.800892507396473,-1.2517065513703471,-9.042360844147192,-27.075783975502354,33.5263020252217","7.055438438597948,-18.731442288250058,-21.560682916311606,-14.086575500467218,-0.5690815932273123,-16.011059136438664,-3.630187728864722,-5.937026904796755","0","0"
"197","86","text","0","63","513432","0-0","","","","","","","","","","","","","","","","","","","","","","","","","","","","","","","","","","","","",""
"","","plant-game","0","64","525583","0-0","","200","160","1","WHEAT CROP","Right","200","180","4","NETTLE WEED","experimental","19","1,2,3,4","180,189.70129074138316,194.79856198856598,178.39655314309","4,3,2,1","NETTLE WEED,NETTLE WEED,NETTLE WEED,NETTLE WEED","160,170,194.66553463784663,173.96539524062285","1,3,2,1","WHEAT CROP,CORN CROP,CORN CROP,CORN CROP","0,0,0,0","20,20,20,20","10,10,10,10","20,20,20,20","20,20,20,20","20,20,20,20","0,0,0,0","20,20,20,20","10,10,10,10","20,20,20,20","20,20,20,20","20,20,20,20","0,0,0,0","2314,1434,2056,798","9.701290741383149,5.09727124718281,-16.402008845475983,-1.9684862309426563","-10.79490730325658,24.665534637846637,-20.700139397223793,-24.0752037894324","0","0"
"75","86","text","0","65","525783","0-0","","","","","","","","","","","","","","","","","","","","","","","","","","","","","","","","","","","","",""
"","","plant-game","0","66","530459","0-0","","200","190","1","CORN CROP","Right","200","160","1","NETTLE WEED","experimental","20","1","160","1","NETTLE WEED","190","1","CORN CROP","0","20","10","20","20","20","0","20","10","20","20","20","0","1675","0.41262263330481275","31.03560313268811","0","0"
"444","86","text","0","67","531063","0-0","","","","","","","","","","","","","","","","","","","","","","","","","","","","","","","","","","","","",""
"","","plant-game","0","68","546739","0-0","","200","180","8","WHEAT CROP","Right","200","180","4","THISTLE WEED","experimental","21","1,2,3,4,5,6,7,8","180,181.75121069450563,180.50328024843643,164.51761593310715,160,136.3319194572969,127.08266633336352,144.42735019449606","4,3,2,1,4,3,2,1","THISTLE WEED,THISTLE WEED,THISTLE WEED,THISTLE WEED,NETTLE WEED,NETTLE WEED,NETTLE WEED,NETTLE WEED","180,193.01829002533182,200.263750387043,194.5157997074825,199.15081251424743,219.31028066047108,239.84113890277166,242.7150880639824","8,7,6,5,4,3,2,1","WHEAT CROP,WHEAT CROP,WHEAT CROP,WHEAT CROP,WHEAT CROP,WHEAT CROP,WHEAT CROP,WHEAT CROP","0,0,0,0,0,0,0,0","20,20,20,20,20,20,20,20","10,10,10,10,10,10,10,10","20,20,20,20,20,20,20,20","20,20,20,20,20,20,20,20","20,20,20,20,20,20,20,20","0,0,0,0,0,0,0,0","20,20,20,20,20,20,20,20","10,10,10,10,10,10,10,10","20,20,20,20,20,20,20,20","20,20,20,20,20,20,20,20","20,20,20,20,20,20,20,20","0,0,0,0,0,0,0,1","1726,1035,1659,399,2021,845,337,1092","1.7512106945056285,-1.247930446069193,-15.985664315329268,-32.15739948816052,-23.668080542703116,-9.249253123933375,17.344683861132523,8.24851201444913","13.018290025331812,7.245460361711164,-5.7479506795604784,4.635012806764928,20.159468146223652,20.530858242300578,2.8739491612107178,58.69902393329333","0","0"
"538","86","text","0","69","547437","0-0","","","","","","","","","","","","","","","","","","","","","","","","","","","","","","","","","","","","",""
"","","plant-game","0","70","561918","0-0","","200","160","8","WHEAT CROP","Left","200","120","8","NETTLE WEED","experimental","22","1,2,3,4,5,6,7,8","160,177.73812082998862,184.633045798466,212.35969038041475,228.16705181864563,244.53021163014122,284.82630946434665,315.6474888731224","8,7,6,5,4,3,2,1","WHEAT CROP,WHEAT CROP,WHEAT CROP,WHEAT CROP,WHEAT CROP,WHEAT CROP,WHEAT CROP,WHEAT CROP","120,123.93587028210223,101.302863011716,143.0996668371714,98.08872068288518,92.44736994488463,113.7222773658686,109.68604381560482","8,7,6,5,4,3,2,1","NETTLE WEED,NETTLE WEED,NETTLE WEED,NETTLE WEED,NETTLE WEED,NETTLE WEED,NETTLE WEED,NETTLE WEED","20,20,20,20,20,20,20,20","20,20,20,20,20,20,20,20","10,10,10,10,10,10,10,10","20,20,20,20,20,20,20,20","0,0,0,0,0,0,0,0","20,20,20,20,20,20,20,20","20,20,20,20,20,20,20,20","20,20,20,20,20,20,20,20","10,10,10,10,10,10,10,10","20,20,20,20,20,20,20,20","0,0,0,0,0,0,0,0","20,20,20,20,20,20,20,20","1,1,0,1,1,0,0,0","2604,229,1344,1498,1028,1878,398,463","17.738120829988606,6.894924968477368,27.72664458194877,15.807361438230899,16.363159811495585,40.29609783420545,30.821179408775755,20.262583808817325","3.9358702821022296,-22.63300727038623,41.7968038254554,-45.01094615428623,-5.641350738000558,21.274907420983975,-4.0362335502637805,33.66237445341239","0","0"
"511","86","text","0","71","562579","0-0","","","","","","","","","","","","","","","","","","","","","","","","","","","","","","","","","","","","",""
"","","plant-game","0","72","574446","0-0","","200","180","4","CORN CROP","Left","200","160","1","THISTLE WEED","experimental","23","1,2,3,4","180,187.80069512210156,155.34938102890155,137.49441054257545","4,3,2,1","CORN CROP,CORN CROP,CORN CROP,CORN CROP","160,170,178.33700247300663,184.9133813165713","1,3,2,1","THISTLE WEED,NETTLE WEED,NETTLE WEED,NETTLE WEED","20,20,20,20","20,20,20,20","10,10,10,10","20,20,20,20","0,0,0,0","20,20,20,20","20,20,20,20","20,20,20,20","10,10,10,10","20,20,20,20","0,0,0,0","20,20,20,20","1,1,1,1","3599,2047,840,581","7.80069512210156,-32.451314093200004,-17.85497048632608,10.703125691017437","-2.4058023668262543,8.337002473006647,6.576378843564675,0.09191540148854231","0","0"
"107","86","text","0","73","574678","0-0","","","","","","","","","","","","","","","","","","","","","","","","","","","","","","","","","","","","",""
"","","plant-game","0","74","583707","0-0","","200","190","2","WHEAT CROP","Left","200","160","1","NETTLE WEED","experimental","24","1,2","190,164.25277767965366","2,1","WHEAT CROP,WHEAT CROP","160,190","1,1","NETTLE WEED,THISTLE WEED","20,20","20,20","10,10","20,20","0,0","20,20","20,20","20,20","10,10","20,20","0,0","20,20","1,1","1954,1539","-25.74722232034633,21.112137927772014","-18.034445736018636,39.86301075841767","0","0"
"217","86","text","0","75","584084","0-0","","","","","","","","","","","","","","","","","","","","","","","","","","","","","","","","","","","","",""
"","","plant-game","0","76","595977","0-0","","200","160","4","CORN CROP","Right","200","190","2","NETTLE WEED","experimental","25","1,2,3,4","190,161.2706267313659,180,192.607210076891","2,1,2,1","NETTLE WEED,NETTLE WEED,THISTLE WEED,THISTLE WEED","160,153.08593194095133,150.03262971536992,159.00207931411248","4,3,2,1","CORN CROP,CORN CROP,CORN CROP,CORN CROP","0,0,0,0","20,20,20,20","10,10,10,10","20,20,20,20","20,20,20,20","20,20,20,20","0,0,0,0","20,20,20,20","10,10,10,10","20,20,20,20","20,20,20,20","20,20,20,20","0,0,1,1","2390,445,2024,1708","-28.729373268634117,9.430982465137077,12.60721007689099,13.710496141681935","-6.914068059048662,-3.053302225581392,8.969449598742559,26.55938889159993","0","0"
"177","86","text","0","77","596324","0-0","","","","","","","","","","","","","","","","","","","","","","","","","","","","","","","","","","","","",""
"","","plant-game","0","78","607163","0-0","","200","160","4","WHEAT CROP","Left","200","160","2","THISTLE WEED","experimental","26","1,2,3,4","160,136.73334531316561,156.89049402570333,162.4624829932771","4,3,2,1","WHEAT CROP,WHEAT CROP,WHEAT CROP,WHEAT CROP","160,151.57789586284667,180,202.41446769073687","2,1,2,1","THISTLE WEED,THISTLE WEED,NETTLE WEED,NETTLE WEED","20,20,20,20","20,20,20,20","10,10,10,10","20,20,20,20","0,0,0,0","20,20,20,20","20,20,20,20","20,20,20,20","10,10,10,10","20,20,20,20","0,0,0,0","20,20,20,20","0,0,0,0","2530,871,1550,1306","-23.266654686834386,20.157148712537712,5.571988967573773,-2.295214527025756","-8.422104137153333,13.277341313941433,22.414467690736874,23.679436881100475","0","0"
"473","86","text","0","79","607776","0-0","","","","","","","","","","","","","","","","","","","","","","","","","","","","","","","","","","","","",""
"","","plant-game","0","80","620043","0-0","","200","180","4","CORN CROP","Left","200","190","2","NETTLE WEED","experimental","27","1,2,3,4","180,192.86041782722808,214.49685950016118,225.1568608065339","4,3,2,1","CORN CROP,CORN CROP,CORN CROP,CORN CROP","190,171.9690393069537,180,234.85968797659652","2,1,2,1","NETTLE WEED,NETTLE WEED,THISTLE WEED,THISTLE WEED","20,20,20,20","20,20,20,20","10,10,10,10","20,20,20,20","0,0,0,0","20,20,20,20","20,20,20,20","20,20,20,20","10,10,10,10","20,20,20,20","0,0,0,0","20,20,20,20","1,0,1,1","1787,1395,2933,1181","12.860417827228067,21.636441672933117,10.660001306372713,7.644271338732047","-18.030960693046307,19.881169353862276,54.859687976596526,-6.5659270121095945","0","0"
"561","86","text","0","81","620764","0-0","","","","","","","","","","","","","","","","","","","","","","","","","","","","","","","","","","","","",""
"","","plant-game","0","82","632303","0-0","","200","160","1","CORN CROP","Right","200","160","2","NETTLE WEED","experimental","28","1,2","160,205.78978276383566","2,1","NETTLE WEED,NETTLE WEED","160,190","1,1","CORN CROP,WHEAT CROP","0,0","20,20","10,10","20,20","20,20","20,20","0,0","20,20","10,10","20,20","20,20","20,20","0,1","2609,2221","45.789782763835674,39.49387839090636","-36.23309922086693,14.917573689320054","0","0"
"28","86","text","0","83","632504","0-0","","","","","","","","","","","","","","","","","","","","","","","","","","","","","","","","","","","","",""
"","","plant-game","0","84","648500","0-0","","200","180","1","CORN CROP","Left","200","180","8","NETTLE WEED","experimental","29","1,2,3,4,5,6,7,8","180,130,119.12664158727725,163.69078081725058,132.15225790816194,149.09333817895737,212.7495209922127,239.26357358814676","1,7,6,5,4,3,2,1","CORN CROP,WHEAT CROP,WHEAT CROP,WHEAT CROP,WHEAT CROP,WHEAT CROP,WHEAT CROP,WHEAT CROP","180,185.66700187952372,173.8292953641789,211.76261237336072,206.41027675208497,198.87308240654352,185.45369119489482,208.2326037415684","8,7,6,5,4,3,2,1","NETTLE WEED,NETTLE WEED,NETTLE WEED,NETTLE WEED,NETTLE WEED,NETTLE WEED,NETTLE WEED,NETTLE WEED","20,20,20,20,20,20,20,20","20,20,20,20,20,20,20,20","10,10,10,10,10,10,10,10","20,20,20,20,20,20,20,20","0,0,0,0,0,0,0,0","20,20,20,20,20,20,20,20","20,20,20,20,20,20,20,20","20,20,20,20,20,20,20,20","10,10,10,10,10,10,10,10","20,20,20,20,20,20,20,20","0,0,0,0,0,0,0,0","20,20,20,20,20,20,20,20","1,1,0,1,1,1,1,1","1796,2407,794,810,942,734,1900,1092","-2.556942199627605,-10.873358412722753,44.564139229973335,-31.53852290908865,16.941080270795418,63.65618281325531,26.51405259593406,8.037022809292207","5.667001879523711,-11.837706515344827,37.93331700918181,-5.352335621275754,-7.5371943455414385,-13.419391211648716,22.778912546673578,19.82629311994907","0","0"
"90","86","text","0","85","648720","0-0","","","","","","","","","","","","","","","","","","","","","","","","","","","","","","","","","","","","",""
"","","plant-game","0","86","653698","0-0","","200","160","1","WHEAT CROP","Left","200","190","1","NETTLE WEED","experimental","30","1","160","1","WHEAT CROP","190","1","NETTLE WEED","20","20","10","20","0","20","20","20","10","20","0","20","0","1642","38.28810679225919","3.443580320382985","0","0"
"667","86","text","0","87","654515","0-0","","","","","","","","","","","","","","","","","","","","","","","","","","","","","","","","","","","","",""
"","","plant-game","0","88","668833","0-0","","200","120","1","CORN CROP","Right","200","180","8","THISTLE WEED","experimental","31","1,2,3,4,5,6,7,8","180,162.73697452417306,187.44735344651687,228.4410698477226,231.7429959144336,257.5586551829758,273.96497471264246,263.6525321986404","8,7,6,5,4,3,2,1","THISTLE WEED,THISTLE WEED,THISTLE WEED,THISTLE WEED,THISTLE WEED,THISTLE WEED,THISTLE WEED,THISTLE WEED","120,130,123.05382370983818,145.60775444204472,138.63423846219376,122.58338368382755,141.24385916604612,92.75328862462013","1,7,6,5,4,3,2,1","CORN CROP,WHEAT CROP,WHEAT CROP,WHEAT CROP,WHEAT CROP,WHEAT CROP,WHEAT CROP,WHEAT CROP","0,0,0,0,0,0,0,0","20,20,20,20,20,20,20,20","10,10,10,10,10,10,10,10","20,20,20,20,20,20,20,20","20,20,20,20,20,20,20,20","20,20,20,20,20,20,20,20","0,0,0,0,0,0,0,0","20,20,20,20,20,20,20,20","10,10,10,10,10,10,10,10","20,20,20,20,20,20,20,20","20,20,20,20,20,20,20,20","20,20,20,20,20,20,20,20","0,1,1,0,0,0,0,0","3399,1960,651,1039,444,506,335,649","-17.26302547582694,24.71037892234381,40.99371640120573,3.3019260667110157,25.81565926854224,16.406319529666632,-10.312442514002026,4.7850877559064795","5.2087983836505405,-6.946176290161823,22.553930732206528,-6.973515979850962,-16.05085477836621,18.660475482218562,-48.49057054142599,12.432845904665832","0","0"
"110","86","text","0","89","669033","0-0","","","","","","","","","","","","","","","","","","","","","","","","","","","","","","","","","","","","",""
"","","plant-game","0","90","684626","0-0","","200","180","1","CORN CROP","Right","200","120","8","NETTLE WEED","experimental","32","1,2,3,4,5,6,7,8","120,126.56001267722476,142.87107391146967,195.84521790320417,179.62920940789496,204.17218733592014,212.13490498720935,223.39092747223916","8,7,6,5,4,3,2,1","NETTLE WEED,NETTLE WEED,NETTLE WEED,NETTLE WEED,NETTLE WEED,NETTLE WEED,NETTLE WEED,NETTLE WEED","180,130,180.14622586285947,182.4832872223697,183.58966951201785,240.56611415393047,240.51334338841576,228.99615145333746","1,7,6,5,4,3,2,1","CORN CROP,WHEAT CROP,WHEAT CROP,WHEAT CROP,WHEAT CROP,WHEAT CROP,WHEAT CROP,WHEAT CROP","0,0,0,0,0,0,0,0","20,20,20,20,20,20,20,20","10,10,10,10,10,10,10,10","20,20,20,20,20,20,20,20","20,20,20,20,20,20,20,20","20,20,20,20,20,20,20,20","0,0,0,0,0,0,0,0","20,20,20,20,20,20,20,20","10,10,10,10,10,10,10,10","20,20,20,20,20,20,20,20","20,20,20,20,20,20,20,20","20,20,20,20,20,20,20,20","1,1,1,0,1,0,0,0","2659,2021,679,1024,681,1391,611,877","6.560012677224762,16.311061234244903,52.97414399173451,-16.216008495309225,24.54297792802518,7.962717651289218,11.256022485029792,-12.385541097620521","15.308475717177599,50.14622586285948,2.33706135951023,1.1063822896481448,56.976444641912636,-0.05277076551471317,-11.517191935078312,-5.016537519616172","0","0"
"104","86","text","0","91","684820","0-0","","","","","","","","","","","","","","","","","","","","","","","","","","","","","","","","","","","","",""
"","","plant-game","0","92","694975","0-0","","200","180","4","WHEAT CROP","Right","200","190","1","NETTLE WEED","experimental","33","1,2,3,4","190,170,183.91961274447422,162.01997656252112","1,3,2,1","NETTLE WEED,THISTLE WEED,THISTLE WEED,THISTLE WEED","180,184.3135399665215,208.17208026764382,219.1330522883558","4,3,2,1","WHEAT CROP,WHEAT CROP,WHEAT CROP,WHEAT CROP","0,0,0,0","20,20,20,20","10,10,10,10","20,20,20,20","20,20,20,20","20,20,20,20","0,0,0,0","20,20,20,20","10,10,10,10","20,20,20,20","20,20,20,20","20,20,20,20","1,1,0,1","1932,1964,845,831","-9.574534183504166,13.91961274447422,-21.89963618195311,16.011836018333838","4.313539966521493,23.85854030112233,10.960972020711983,36.23696052322761","0","0"
"46","86","text","0","93","695167","0-0","","","","","","","","","","","","","","","","","","","","","","","","","","","","","","","","","","","","",""
"","","plant-game","0","94","700209","0-0","","200","180","1","WHEAT CROP","Left","200","190","1","THISTLE WEED","experimental","34","1","180","1","WHEAT CROP","190","1","THISTLE WEED","20","20","10","20","0","20","20","20","10","20","0","20","0","2131","33.94620983885564","23.258220545678427","0","0"
"90","86","text","0","95","700409","0-0","","","","","","","","","","","","","","","","","","","","","","","","","","","","","","","","","","","","",""
"","","plant-game","0","96","707795","0-0","","200","160","4","WHEAT CROP","Right","200","120","4","THISTLE WEED","experimental","35","1,2,3,4","120,187.79814458705602,197.54062758344563,213.83400407882493","4,3,2,1","THISTLE WEED,THISTLE WEED,THISTLE WEED,THISTLE WEED","160,180.0756090687601,231.93202239341005,225.4322485915447","4,3,2,1","WHEAT CROP,WHEAT CROP,WHEAT CROP,WHEAT CROP","0,0,0,0","20,20,20,20","10,10,10,10","20,20,20,20","20,20,20,20","20,20,20,20","0,0,0,0","20,20,20,20","10,10,10,10","20,20,20,20","20,20,20,20","20,20,20,20","1,1,0,0","1564,1151,1082,953","67.798144587056,9.742482996389615,16.29337649537931,0.002197504200720306","20.07560906876009,51.856413324649964,-6.499773801865367,9.522789169548195","0","0"
"30","86","text","0","97","707939","0-0","","","","","","","","","","","","","","","","","","","","","","","","","","","","","","","","","","","","",""
"","","plant-game","0","98","718525","0-0","","200","190","4","WHEAT CROP","Right","200","190","2","NETTLE WEED","experimental","36","1,2,3,4","190,165.65521365365146,180,177.45812925235904","2,1,2,1","NETTLE WEED,NETTLE WEED,THISTLE WEED,THISTLE WEED","190,203.3916186358596,196.28222645637945,239.62597472538414","4,3,2,1","WHEAT CROP,WHEAT CROP,WHEAT CROP,WHEAT CROP","0,0,0,0","20,20,20,20","10,10,10,10","20,20,20,20","20,20,20,20","20,20,20,20","0,0,0,0","20,20,20,20","10,10,10,10","20,20,20,20","20,20,20,20","20,20,20,20","1,0,1,0","2276,870,1194,1175","-24.344786346348556,-29.092850924006854,-2.541870747640967,-19.601216575604074","13.391618635859608,-7.109392179480154,43.34374826900469,-41.68158062775436","0","0"
"100","86","text","0","99","718705","0-0","","","","","","","","","","","","","","","","","","","","","","","","","","","","","","","","","","","","",""
"","","plant-game","0","100","729703","0-0","","200","190","8","WHEAT CROP","Left","200","180","8","NETTLE WEED","experimental","37","1,2,3,4,5,6,7,8","190,231.2505062963004,242.09299008543738,230.51684616864878,245.99421938123976,286.92298505881234,275.9704822639821,270.97395935003254","8,7,6,5,4,3,2,1","WHEAT CROP,WHEAT CROP,WHEAT CROP,WHEAT CROP,WHEAT CROP,WHEAT CROP,WHEAT CROP,WHEAT CROP","180,237.41461483196713,242.10318889765446,233.192804388585,227.09487042568864,215.86189004355944,204.86622538380027,168.60662091630766","8,7,6,5,4,3,2,1","NETTLE WEED,NETTLE WEED,NETTLE WEED,NETTLE WEED,NETTLE WEED,NETTLE WEED,NETTLE WEED,NETTLE WEED","20,20,20,20,20,20,20,20","20,20,20,20,20,20,20,20","10,10,10,10,10,10,10,10","20,20,20,20,20,20,20,20","0,0,0,0,0,0,0,0","20,20,20,20,20,20,20,20","20,20,20,20,20,20,20,20","20,20,20,20,20,20,20,20","10,10,10,10,10,10,10,10","20,20,20,20,20,20,20,20","0,0,0,0,0,0,0,0","20,20,20,20,20,20,20,20","0,1,1,1,1,1,1,0","2215,1192,356,385,352,430,889,1577","41.2505062963004,10.842483789136999,-11.57614391678861,15.477373212590972,40.92876567757259,-10.952502794830233,-4.996522913949547,32.05055061584995","57.41461483196714,4.6885740656873365,-8.91038450906947,-6.097933962896339,-11.23298038212921,-10.995664659759164,-36.259604467492615,70.02830112266948","0","0"
"77","86","text","0","101","729870","0-0","","","","","","","","","","","","","","","","","","","","","","","","","","","","","","","","","","","","",""
"","","plant-game","0","102","742749","0-0","","200","160","4","WHEAT CROP","Right","200","190","1","NETTLE WEED","experimental","38","1,2,3,4","190,170,147.28145476391012,183.0492129142667","1,3,2,1","NETTLE WEED,THISTLE WEED,THISTLE WEED,THISTLE WEED","160,208.96136113533535,231.53265585600937,213.47213527780846","4,3,2,1","WHEAT CROP,WHEAT CROP,WHEAT CROP,WHEAT CROP","0,0,0,0","20,20,20,20","10,10,10,10","20,20,20,20","20,20,20,20","20,20,20,20","0,0,0,0","20,20,20,20","10,10,10,10","20,20,20,20","20,20,20,20","20,20,20,20","1,0,0,0","4510,2328,426,498","49.15947087760189,-22.71854523608988,35.76775815035657,-2.1960900098800424","48.96136113533535,22.571294720674018,-18.060520578200915,-10.655405434484225","0","0"
"112","86","text","0","103","743011","0-0","","","","","","","","","","","","","","","","","","","","","","","","","","","","","","","","","","","","",""
"","","plant-game","0","104","752865","0-0","","200","120","2","WHEAT CROP","Left","200","180","4","NETTLE WEED","experimental","39","1,2,3,4","120,158.67344429947707,180,198.99125174608827","2,1,2,1","WHEAT CROP,WHEAT CROP,CORN CROP,CORN CROP","180,193.07402812428504,212.7103830766997,271.9694025288211","4,3,2,1","NETTLE WEED,NETTLE WEED,NETTLE WEED,NETTLE WEED","20,20,20,20","20,20,20,20","10,10,10,10","20,20,20,20","0,0,0,0","20,20,20,20","20,20,20,20","20,20,20,20","10,10,10,10","20,20,20,20","0,0,0,0","20,20,20,20","0,0,0,1","1889,583,1543,2017","38.673444299477076,3.016102810678227,18.991251746088267,-11.381464270458384","13.074028124285036,19.636354952414678,59.25901945212137,9.827481385414135","0","0"
"26","86","text","0","105","753018","0-0","","","","","","","","","","","","","","","","","","","","","","","","","","","","","","","","","","","","",""
"","","plant-game","0","106","762240","0-0","","200","180","1","CORN CROP","Left","200","120","2","THISTLE WEED","experimental","40","1,2","180,190","1,1","CORN CROP,WHEAT CROP","120,120.11464644455206","2,1","THISTLE WEED,THISTLE WEED","20,20","20,20","10,10","20,20","0,0","20,20","20,20","20,20","10,10","20,20","0,0","20,20","1,1","2872,1942","20.81938977089468,10.43705570930328","0.11464644455207007,9.658927232882178","0","0"
"73","86","text","0","107","762433","0-0","","","","","","","","","","","","","","","","","","","","","","","","","","","","","","","","","","","","",""
"","","plant-game","0","108","775361","0-0","","200","120","8","WHEAT CROP","Left","200","180","2","THISTLE WEED","experimental","41","1,2,3,4,5,6,7,8","120,153.37411176599352,191.41290607778691,196.84821203020726,179.27228881730673,168.34748317709887,188.88174857346218,204.87522007758025","8,7,6,5,4,3,2,1","WHEAT CROP,WHEAT CROP,WHEAT CROP,WHEAT CROP,WHEAT CROP,WHEAT CROP,WHEAT CROP,WHEAT CROP","180,215.53877785854226,140,143.46418821418166,134.27532316296504,105.2181205048524,102.63746667836615,114.70386096753916","2,1,6,5,4,3,2,1","THISTLE WEED,THISTLE WEED,NETTLE WEED,NETTLE WEED,NETTLE WEED,NETTLE WEED,NETTLE WEED,NETTLE WEED","20,20,20,20,20,20,20,20","20,20,20,20,20,20,20,20","10,10,10,10,10,10,10,10","20,20,20,20,20,20,20,20","0,0,0,0,0,0,0,0","20,20,20,20,20,20,20,20","20,20,20,20,20,20,20,20","20,20,20,20,20,20,20,20","10,10,10,10,10,10,10,10","20,20,20,20,20,20,20,20","0,0,0,0,0,0,0,0","20,20,20,20,20,20,20,20","0,0,1,1,1,1,1,1","1564,1161,1838,532,1191,424,492,1075","33.374111765993504,38.03879431179339,5.435305952420344,-17.575923212900545,-10.924805640207873,20.5342653963633,15.993471504118089,-10.473135335952135","35.53877785854226,-21.50928093577224,3.464188214181675,-9.188865051216627,-29.057202658112644,-2.580653826486236,12.066394289173,33.68563857530152","0","0"
"97","86","text","0","109","775558","0-0","","","","","","","","","","","","","","","","","","","","","","","","","","","","","","","","","","","","",""
"","","plant-game","0","110","785433","0-0","","200","120","1","WHEAT CROP","Left","200","120","2","THISTLE WEED","experimental","42","1,2","120,190","1,1","WHEAT CROP,CORN CROP","120,124.38855003936514","2,1","THISTLE WEED,THISTLE WEED","20,20","20,20","10,10","20,20","0,0","20,20","20,20","20,20","10,10","20,20","0,0","20,20","0,1","2711,2703","29.30270704853949,-16.15662381707242","4.388550039365143,-19.54257935064205","0","0"
"88","86","text","0","111","785621","0-0","","","","","","","","","","","","","","","","","","","","","","","","","","","","","","","","","","","","",""
"","","plant-game","0","112","796402","0-0","","200","160","4","WHEAT CROP","Right","200","180","1","NETTLE WEED","experimental","43","1,2,3,4","180,170,181.4772815931769,170.36387345983053","1,3,2,1","NETTLE WEED,THISTLE WEED,THISTLE WEED,THISTLE WEED","160,177.01572553592206,189.60583428143258,207.5490273897187","4,3,2,1","WHEAT CROP,WHEAT CROP,WHEAT CROP,WHEAT CROP","0,0,0,0","20,20,20,20","10,10,10,10","20,20,20,20","20,20,20,20","20,20,20,20","0,0,0,0","20,20,20,20","10,10,10,10","20,20,20,20","20,20,20,20","20,20,20,20","1,1,1,0","1953,1863,857,1434","20.840576958056868,11.477281593176903,-11.113408133346383,-2.7395366645707435","17.015725535922062,12.590108745510534,17.943193108286135,23.89300962335851","0","0"
"71","86","text","0","113","796554","0-0","","","","","","","","","","","","","","","","","","","","","","","","","","","","","","","","","","","","",""
"","","plant-game","0","114","803985","0-0","","200","160","4","CORN CROP","Left","200","180","4","THISTLE WEED","experimental","44","1,2,3,4","160,184.33547365330116,224.3928116770813,221.66091082700154","4,3,2,1","CORN CROP,CORN CROP,CORN CROP,CORN CROP","180,198.69026314707685,214.5767041592034,210.8395687660417","4,3,2,1","THISTLE WEED,THISTLE WEED,THISTLE WEED,THISTLE WEED","20,20,20,20","20,20,20,20","10,10,10,10","20,20,20,20","0,0,0,0","20,20,20,20","20,20,20,20","20,20,20,20","10,10,10,10","20,20,20,20","0,0,0,0","20,20,20,20","0,0,1,1","1823,1014,1192,586","24.335473653301158,40.05733802378015,-2.7319008500797626,9.9809185402565","18.690263147076855,15.886441012126545,-3.7371353931616884,6.54314849159337","0","0"
"88","86","text","0","115","804178","0-0","","","","","","","","","","","","","","","","","","","","","","","","","","","","","","","","","","","","",""
"","","plant-game","0","116","814012","0-0","","200","160","1","WHEAT CROP","Right","200","160","4","NETTLE WEED","experimental","45","1,2,3,4","160,185.71635725005288,186.0653374468111,222.9733749721987","4,3,2,1","NETTLE WEED,NETTLE WEED,NETTLE WEED,NETTLE WEED","160,170,191.25963063193595,204.65358083100386","1,3,2,1","WHEAT CROP,CORN CROP,CORN CROP,CORN CROP","0,0,0,0","20,20,20,20","10,10,10,10","20,20,20,20","20,20,20,20","20,20,20,20","0,0,0,0","20,20,20,20","10,10,10,10","20,20,20,20","20,20,20,20","20,20,20,20","1,1,1,0","1702,1510,1026,1188","25.716357250052887,0.348980196758216,36.90803752538763,-1.4617998329757895","44.215684218105025,21.259630631935938,13.393950199067902,-6.38821417820714","0","0"
"109","86","text","0","117","814201","0-0","","","","","","","","","","","","","","","","","","","","","","","","","","","","","","","","","","","","",""
"","","plant-game","0","118","831138","0-0","","200","190","8","CORN CROP","Right","200","190","4","THISTLE WEED","experimental","46","1,2,3,4,5,6,7,8","190,202.52051327437388,152.3301739229085,172.77785835046524,160,141.79689814127767,126.42002753708324,92.22396638083944","4,3,2,1,4,3,2,1","THISTLE WEED,THISTLE WEED,THISTLE WEED,THISTLE WEED,NETTLE WEED,NETTLE WEED,NETTLE WEED,NETTLE WEED","190,214.99194406627544,208.68938422913126,217.81229977330338,202.0022614597598,185.501373380875,219.21636997692914,221.86496814270322","8,7,6,5,4,3,2,1","CORN CROP,CORN CROP,CORN CROP,CORN CROP,CORN CROP,CORN CROP,CORN CROP,CORN CROP","0,0,0,0,0,0,0,0","20,20,20,20,20,20,20,20","10,10,10,10,10,10,10,10","20,20,20,20,20,20,20,20","20,20,20,20,20,20,20,20","20,20,20,20,20,20,20,20","0,0,0,0,0,0,0,0","20,20,20,20,20,20,20,20","10,10,10,10,10,10,10,10","20,20,20,20,20,20,20,20","20,20,20,20,20,20,20,20","20,20,20,20,20,20,20,20","1,0,1,0,0,0,0,1","1702,2709,1561,1686,1693,515,1021,1099","12.520513274373883,-50.19033935146538,20.447684427556734,-5.271760231329827,-18.20310185872234,-15.376870604194428,-34.19606115624379,3.8333667305161576","24.991944066275423,-6.30255983714418,9.12291554417213,-15.81003831354356,-16.500888078884795,33.714996596054135,2.648598165774077,29.486577947022617","0","0"
"59","86","text","0","119","831332","0-0","","","","","","","","","","","","","","","","","","","","","","","","","","","","","","","","","","","","",""
"","","plant-game","0","120","839227","0-0","","200","160","1","WHEAT CROP","Left","200","180","2","NETTLE WEED","experimental","47","1,2","160,190","1,1","WHEAT CROP,CORN CROP","180,181.0171763638721","2,1","NETTLE WEED,NETTLE WEED","20,20","20,20","10,10","20,20","0,0","20,20","20,20","20,20","10,10","20,20","0,0","20,20","0,0","2072,1476","16.845952141532592,34.13587528018837","1.017176363872096,14.027775414010366","0","0"
"439","86","text","0","121","839786","0-0","","","","","","","","","","","","","","","","","","","","","","","","","","","","","","","","","","","","",""
"","","plant-game","0","122","856152","0-0","","200","190","4","CORN CROP","Right","200","190","8","NETTLE WEED","experimental","48","1,2,3,4,5,6,7,8","190,192.5418575574147,228.66416078292053,226.0720666237249,213.30793841809594,244.91000289919594,288.5932315336579,327.13815246502475","8,7,6,5,4,3,2,1","NETTLE WEED,NETTLE WEED,NETTLE WEED,NETTLE WEED,NETTLE WEED,NETTLE WEED,NETTLE WEED,NETTLE WEED","190,194.3616483555969,196.3594409511777,239.73854980361787,160,193.84750895325573,202.3349359476907,210.62139831575806","4,3,2,1,4,3,2,1","CORN CROP,CORN CROP,CORN CROP,CORN CROP,WHEAT CROP,WHEAT CROP,WHEAT CROP,WHEAT CROP","0,0,0,0,0,0,0,0","20,20,20,20,20,20,20,20","10,10,10,10,10,10,10,10","20,20,20,20,20,20,20,20","20,20,20,20,20,20,20,20","20,20,20,20,20,20,20,20","0,0,0,0,0,0,0,0","20,20,20,20,20,20,20,20","10,10,10,10,10,10,10,10","20,20,20,20,20,20,20,20","20,20,20,20,20,20,20,20","20,20,20,20,20,20,20,20","1,1,0,0,1,1,0,0","2452,1036,1067,1094,2711,1393,1170,328","2.5418575574146836,36.122303225505846,-2.5920941591956277,-12.764128205628968,31.602064481099994,43.683228634461955,38.54492093136684,0.7303948374213498","4.36164835559692,1.9977925955807834,43.379108852440176,-10.082916015133105,33.84750895325571,8.487426994434967,8.286462368067362,-22.633142573958942","0","0"
"56","86","text","0","123","856337","0-0","","","","","","","","","","","","","","","","","","","","","","","","","","","","","","","","","","","","",""
"","","plant-game","0","124","863372","0-0","","200","190","2","CORN CROP","Right","200","160","2","NETTLE WEED","experimental","49","1,2","160,169.4145798754915","2,1","NETTLE WEED,NETTLE WEED","190,203.91465124746244","2,1","CORN CROP,CORN CROP","0,0","20,20","10,10","20,20","20,20","20,20","0,0","20,20","10,10","20,20","20,20","20,20","1,0","3770,792","9.414579875491501,6.665508455442859","13.914651247462452,-21.979408772457308","0","0"
"105","86","text","0","125","863557","0-0","","","","","","","","","","","","","","","","","","","","","","","","","","","","","","","","","","","","",""
"","","plant-game","0","126","874236","0-0","","200","120","4","CORN CROP","Left","200","120","1","NETTLE WEED","experimental","50","1,2,3,4","120,154.2129729714728,151.88094440842607,174.77626196657408","4,3,2,1","CORN CROP,CORN CROP,CORN CROP,CORN CROP","120,170,201.18975096559777,172.82987872156897","1,3,2,1","NETTLE WEED,THISTLE WEED,THISTLE WEED,THISTLE WEED","20,20,20,20","20,20,20,20","10,10,10,10","20,20,20,20","0,0,0,0","20,20,20,20","20,20,20,20","20,20,20,20","10,10,10,10","20,20,20,20","0,0,0,0","20,20,20,20","0,0,1,0","1567,1487,1428,1326","34.2129729714728,-2.332028563046727,22.895317558148015,60.91293689508369","15.306851635783786,31.189750965597767,-28.359872244028796,8.343345311765964","0","0"
"92","86","text","0","127","874408","0-0","","","","","","","","","","","","","","","","","","","","","","","","","","","","","","","","","","","","",""
"","","plant-game","0","128","889448","0-0","","200","180","8","WHEAT CROP","Left","200","120","8","NETTLE WEED","experimental","51","1,2,3,4,5,6,7,8","180,155.3144412511126,142.3807187431473,144.96762870998202,186.7245242775631,212.53150682393328,205.70806138850304,259.7615380728819","8,7,6,5,4,3,2,1","WHEAT CROP,WHEAT CROP,WHEAT CROP,WHEAT CROP,WHEAT CROP,WHEAT CROP,WHEAT CROP,WHEAT CROP","120,140.0784476096499,151.55210837624833,198.9357642786916,231.0986560209808,254.5366996476366,283.48419899499504,305.1916365504773","8,7,6,5,4,3,2,1","NETTLE WEED,NETTLE WEED,NETTLE WEED,NETTLE WEED,NETTLE WEED,NETTLE WEED,NETTLE WEED,NETTLE WEED","20,20,20,20,20,20,20,20","20,20,20,20,20,20,20,20","10,10,10,10,10,10,10,10","20,20,20,20,20,20,20,20","0,0,0,0,0,0,0,0","20,20,20,20,20,20,20,20","20,20,20,20,20,20,20,20","20,20,20,20,20,20,20,20","10,10,10,10,10,10,10,10","20,20,20,20,20,20,20,20","0,0,0,0,0,0,0,0","20,20,20,20,20,20,20,20","1,1,0,0,0,0,0,1","2525,768,805,1336,1287,1614,1473,1511","-24.68555874888739,-12.93372250796532,2.5869099668347353,41.75689556758106,25.806982546370207,-6.82344543543023,54.05347668437882,6.033271969851661","20.078447609649913,11.473660766598426,47.38365590244328,32.1628917422892,23.4380436266558,28.94749934735845,21.70743755548228,-20.267476212758403","0","0"
"127","86","text","0","129","890015","0-0","","","","","","","","","","","","","","","","","","","","","","","","","","","","","","","","","","","","",""
"","","plant-game","0","130","900282","0-0","","200","190","4","CORN CROP","Right","200","190","1","NETTLE WEED","experimental","52","1,2,3,4","190,170,161.10884331403278,152.9337331486016","1,3,2,1","NETTLE WEED,THISTLE WEED,THISTLE WEED,THISTLE WEED","190,192.26033809046106,208.50444702017745,220.21918381081838","4,3,2,1","CORN CROP,CORN CROP,CORN CROP,CORN CROP","0,0,0,0","20,20,20,20","10,10,10,10","20,20,20,20","20,20,20,20","20,20,20,20","0,0,0,0","20,20,20,20","10,10,10,10","20,20,20,20","20,20,20,20","20,20,20,20","1,0,0,0","1893,2342,987,356","15.204138217510245,-8.891156685967207,-8.175110165431189,-4.018291797879134","2.2603380904610617,16.244108929716393,11.714736790640929,-3.300252665103754","0","0"
"113","86","text","0","131","900475","0-0","","","","","","","","","","","","","","","","","","","","","","","","","","","","","","","","","","","","",""
"","","plant-game","0","132","908979","0-0","","200","190","1","WHEAT CROP","Right","200","190","2","NETTLE WEED","experimental","53","1,2","190,240.38336846317998","2,1","NETTLE WEED,NETTLE WEED","190,190","1,1","WHEAT CROP,CORN CROP","0,0","20,20","10,10","20,20","20,20","20,20","0,0","20,20","10,10","20,20","20,20","20,20","1,1","1425,2062","50.38336846317996,0.5947100513454053","24.91320383435413,8.452375246906858","0","0"
"91","86","text","0","133","909170","0-0","","","","","","","","","","","","","","","","","","","","","","","","","","","","","","","","","","","","",""
"","","plant-game","0","134","918812","0-0","","200","180","1","CORN CROP","Left","200","160","4","THISTLE WEED","experimental","54","1,2,3,4","180,170,161.53958947790704,162.96767371584707","1,3,2,1","CORN CROP,WHEAT CROP,WHEAT CROP,WHEAT CROP","160,179.71539833567232,188.5839179561859,191.49059201485554","4,3,2,1","THISTLE WEED,THISTLE WEED,THISTLE WEED,THISTLE WEED","20,20,20,20","20,20,20,20","10,10,10,10","20,20,20,20","0,0,0,0","20,20,20,20","20,20,20,20","20,20,20,20","10,10,10,10","20,20,20,20","0,0,0,0","20,20,20,20","0,0,0,0","2140,2168,761,668","-19.150419518715466,-8.460410522092943,1.428084237940027,40.59751963861938","19.715398335672315,8.86851962051357,2.906674058669637,12.464025651598694","0","0"
"100","86","text","0","135","918992","0-0","","","","","","","","","","","","","","","","","","","","","","","","","","","","","","","","","","","","",""
"","","plant-game","0","136","928061","0-0","","200","190","4","WHEAT CROP","Left","200","120","2","NETTLE WEED","experimental","55","1,2,3,4","190,182.0715596364733,222.14080613802315,222.74966588504458","4,3,2,1","WHEAT CROP,WHEAT CROP,WHEAT CROP,WHEAT CROP","120,113.27087487533683,180,163.55221960781464","2,1,2,1","NETTLE WEED,NETTLE WEED,THISTLE WEED,THISTLE WEED","20,20,20,20","20,20,20,20","10,10,10,10","20,20,20,20","0,0,0,0","20,20,20,20","20,20,20,20","20,20,20,20","10,10,10,10","20,20,20,20","0,0,0,0","20,20,20,20","1,1,1,1","1660,466,2266,425","-7.928440363526697,40.06924650154984,0.6088597470214184,-1.4848164788882834","-6.729125124663176,-9.72652066735506,-16.44778039218536,-0.20786956583293573","0","0"
"84","86","text","0","137","928245","0-0","","","","","","","","","","","","","","","","","","","","","","","","","","","","","","","","","","","","",""
"","","plant-game","0","138","939027","0-0","","200","190","8","WHEAT CROP","Right","200","120","8","NETTLE WEED","experimental","56","1,2,3,4,5,6,7,8","120,134.64652795568168,157.21422130200042,176.5673432107919,180.3951944509848,202.7007688560108,227.9918824661042,229.9684134613434","8,7,6,5,4,3,2,1","NETTLE WEED,NETTLE WEED,NETTLE WEED,NETTLE WEED,NETTLE WEED,NETTLE WEED,NETTLE WEED,NETTLE WEED","190,178.36095349010046,159.58052162761103,196.3253396027248,202.91921242138736,196.2378472256375,201.21001124678156,210.2086580107609","8,7,6,5,4,3,2,1","WHEAT CROP,WHEAT CROP,WHEAT CROP,WHEAT CROP,WHEAT CROP,WHEAT CROP,WHEAT CROP,WHEAT CROP","0,0,0,0,0,0,0,0","20,20,20,20,20,20,20,20","10,10,10,10,10,10,10,10","20,20,20,20,20,20,20,20","20,20,20,20,20,20,20,20","20,20,20,20,20,20,20,20","0,0,0,0,0,0,0,0","20,20,20,20,20,20,20,20","10,10,10,10,10,10,10,10","20,20,20,20,20,20,20,20","20,20,20,20,20,20,20,20","20,20,20,20,20,20,20,20","0,0,1,0,0,0,0,0","1643,374,1067,676,1771,620,816,388","14.64652795568167,22.567693346318745,19.35312190879147,3.8278512401928877,22.305574405026,25.29111361009338,1.9765309952392243,-22.24117207704547","-11.639046509899531,-18.78043186248941,36.74481797511376,6.593872818662572,-6.6813651957498585,4.972164021144053,8.99864676397934,11.589858470295404","0","0"
"54","86","text","0","139","939181","0-0","","","","","","","","","","","","","","","","","","","","","","","","","","","","","","","","","","","","",""
"","","plant-game","0","140","951957","0-0","","200","120","8","CORN CROP","Left","200","160","4","NETTLE WEED","experimental","57","1,2,3,4,5,6,7,8","120,175.7918585936436,200.90101523721845,238.82863577174552,253.20309652553297,251.39642199925046,242.90456981423938,262.37333013649925","8,7,6,5,4,3,2,1","CORN CROP,CORN CROP,CORN CROP,CORN CROP,CORN CROP,CORN CROP,CORN CROP,CORN CROP","160,173.68298253580943,188.07232893885788,172.55272657745618,160,168.63099048638,177.40111030599832,163.35443081995984","4,3,2,1,4,3,2,1","NETTLE WEED,NETTLE WEED,NETTLE WEED,NETTLE WEED,THISTLE WEED,THISTLE WEED,THISTLE WEED,THISTLE WEED","20,20,20,20,20,20,20,20","20,20,20,20,20,20,20,20","10,10,10,10,10,10,10,10","20,20,20,20,20,20,20,20","0,0,0,0,0,0,0,0","20,20,20,20,20,20,20,20","20,20,20,20,20,20,20,20","20,20,20,20,20,20,20,20","10,10,10,10,10,10,10,10","20,20,20,20,20,20,20,20","0,0,0,0,0,0,0,0","20,20,20,20,20,20,20,20","0,0,1,1,1,1,1,1","1851,444,1042,421,2988,267,818,519","55.791858593643596,25.109156643574835,37.92762053452707,14.374460753787439,-1.8066745262824957,-8.49185218501107,19.46876032225987,19.78806328293797","13.68298253580944,14.389346403048439,-15.5196023614017,35.810047971901525,8.63099048637999,8.770119819618303,-14.046679486038462,23.092775242233266","0","0"
"104","86","text","0","141","952141","0-0","","","","","","","","","","","","","","","","","","","","","","","","","","","","","","","","","","","","",""
"","","plant-game","0","142","958996","0-0","","200","190","2","WHEAT CROP","Left","200","180","2","THISTLE WEED","experimental","58","1,2","190,191.7649917348673","2,1","WHEAT CROP,WHEAT CROP","180,174.92150957137406","2,1","THISTLE WEED,THISTLE WEED","20,20","20,20","10,10","20,20","0,0","20,20","20,20","20,20","10,10","20,20","0,0","20,20","1,1","2813,1514","1.7649917348673076,4.380648864982425","-5.0784904286259405,-10.259952096480216","0","0"
"28","86","text","0","143","959138","0-0","","","","","","","","","","","","","","","","","","","","","","","","","","","","","","","","","","","","",""
"","","plant-game","0","144","964611","0-0","","200","180","2","CORN CROP","Left","200","120","2","THISTLE WEED","experimental","59","1,2","180,212.94250101076128","2,1","CORN CROP,CORN CROP","120,154.65848144468424","2,1","THISTLE WEED,THISTLE WEED","20,20","20,20","10,10","20,20","0,0","20,20","20,20","20,20","10,10","20,20","0,0","20,20","0,1","1541,1071","32.94250101076127,-12.918078535035493","34.65848144468423,-16.49170394323842","0","0"
"83","86","text","0","145","964784","0-0","","","","","","","","","","","","","","","","","","","","","","","","","","","","","","","","","","","","",""
"","","plant-game","0","146","979045","0-0","","200","180","1","CORN CROP","Left","200","160","8","THISTLE WEED","experimental","60","1,2,3,4,5,6,7,8","180,130,162.6357442101792,196.38126883418394,200.60210004337213,226.11142533938778,247.5778565922823,247.44883209649987","1,7,6,5,4,3,2,1","CORN CROP,WHEAT CROP,WHEAT CROP,WHEAT CROP,WHEAT CROP,WHEAT CROP,WHEAT CROP,WHEAT CROP","160,196.6173879206894,199.84300674288912,225.20341050373352,225.91739597040333,201.97036874587525,196.10651771571008,215.55658245572386","8,7,6,5,4,3,2,1","THISTLE WEED,THISTLE WEED,THISTLE WEED,THISTLE WEED,THISTLE WEED,THISTLE WEED,THISTLE WEED,THISTLE WEED","20,20,20,20,20,20,20,20","20,20,20,20,20,20,20,20","10,10,10,10,10,10,10,10","20,20,20,20,20,20,20,20","0,0,0,0,0,0,0,0","20,20,20,20,20,20,20,20","20,20,20,20,20,20,20,20","20,20,20,20,20,20,20,20","10,10,10,10,10,10,10,10","20,20,20,20,20,20,20,20","0,0,0,0,0,0,0,0","20,20,20,20,20,20,20,20","0,0,0,0,1,1,1,1","2294,1552,756,969,1111,859,933,789","-4.584932431282883,32.63574421017922,33.74552462400473,4.220831209188191,25.509325296015653,21.466431252894527,-0.12902449578243622,4.071110733544712","36.6173879206894,3.225618822199724,25.360403760844413,0.7139854666698007,-23.94702722452809,-5.863851030165156,19.450064740013786,15.73072635797892","0","0"
"67","86","text","0","147","979222","0-0","","","","","","","","","","","","","","","","","","","","","","","","","","","","","","","","","","","","",""
"","","plant-game","0","148","989105","0-0","","200","120","2","CORN CROP","Left","200","180","1","THISTLE WEED","experimental","61","1,2","120,133.34519482953885","2,1","CORN CROP,CORN CROP","180,190","1,1","THISTLE WEED,NETTLE WEED","20,20","20,20","10,10","20,20","0,0","20,20","20,20","20,20","10,10","20,20","0,0","20,20","0,0","4135,1078","13.345194829538851,28.380272991235728","5.977178357369793,36.74033102971674","0","0"
"79","86","text","0","149","989272","0-0","","","","","","","","","","","","","","","","","","","","","","","","","","","","","","","","","","","","",""
"","","plant-game","0","150","1004106","0-0","","200","160","4","CORN CROP","Right","200","120","8","NETTLE WEED","experimental","62","1,2,3,4,5,6,7,8","120,166.76658129356085,177.70083955037282,167.1738059930666,212.0123493793281,245.5176662729909,244.24514787885937,252.67380463277217","8,7,6,5,4,3,2,1","NETTLE WEED,NETTLE WEED,NETTLE WEED,NETTLE WEED,NETTLE WEED,NETTLE WEED,NETTLE WEED,NETTLE WEED","160,182.5039649685512,205.8405218870294,203.57127369586325,160,195.5867599808428,211.8933061656358,225.30256661581393","4,3,2,1,4,3,2,1","CORN CROP,CORN CROP,CORN CROP,CORN CROP,WHEAT CROP,WHEAT CROP,WHEAT CROP,WHEAT CROP","0,0,0,0,0,0,0,0","20,20,20,20,20,20,20,20","10,10,10,10,10,10,10,10","20,20,20,20,20,20,20,20","20,20,20,20,20,20,20,20","20,20,20,20,20,20,20,20","0,0,0,0,0,0,0,0","20,20,20,20,20,20,20,20","10,10,10,10,10,10,10,10","20,20,20,20,20,20,20,20","20,20,20,20,20,20,20,20","20,20,20,20,20,20,20,20","1,0,0,0,1,1,0,0","2545,841,1016,579,2720,877,1132,457","46.76658129356085,10.934258256811969,-10.527033557306227,44.838543386261506,33.50531689366281,-1.272518394131545,8.428656753912794,19.01754712226305","22.503964968551216,23.33655691847822,-2.2692481911661537,-6.761286940574228,35.5867599808428,16.306546184793007,13.409260450178115,-32.47410548420159","0","0"
"92","86","text","0","151","1004476","0-0","","","","","","","","","","","","","","","","","","","","","","","","","","","","","","","","","","","","",""
"","","plant-game","0","152","1016330","0-0","","200","190","1","CORN CROP","Left","200","190","8","NETTLE WEED","experimental","63","1,2,3,4,5,6,7,8","190,130,133.2349014749039,127.62146294831447,123.86414233301423,114.59100963661238,124.42749722127591,112.92071926658046","1,7,6,5,4,3,2,1","CORN CROP,WHEAT CROP,WHEAT CROP,WHEAT CROP,WHEAT CROP,WHEAT CROP,WHEAT CROP,WHEAT CROP","190,224.07293095912803,242.37951925289624,283.0937547735134,291.5912778847877,338.25555027892113,347.54206273209894,313.8677289968687","8,7,6,5,4,3,2,1","NETTLE WEED,NETTLE WEED,NETTLE WEED,NETTLE WEED,NETTLE WEED,NETTLE WEED,NETTLE WEED,NETTLE WEED","20,20,20,20,20,20,20,20","20,20,20,20,20,20,20,20","10,10,10,10,10,10,10,10","20,20,20,20,20,20,20,20","0,0,0,0,0,0,0,0","20,20,20,20,20,20,20,20","20,20,20,20,20,20,20,20","20,20,20,20,20,20,20,20","10,10,10,10,10,10,10,10","20,20,20,20,20,20,20,20","0,0,0,0,0,0,0,0","20,20,20,20,20,20,20,20","0,0,0,0,1,1,1,1","2440,1366,468,1085,1098,154,144,117","7.902465602187995,3.2349014749038894,-5.6134385265894124,-3.757320615300248,-9.273132696401849,9.836487584663528,-11.506777954695448,4.248256740047004","34.072930959128016,18.30658829376821,40.71423552061715,8.497523111274264,46.664272394133455,9.286512453177824,-33.6743337352302,11.469352445519531","0","0"
"85","86","text","0","153","1016495","0-0","","","","","","","","","","","","","","","","","","","","","","","","","","","","","","","","","","","","",""
"","","plant-game","0","154","1025996","0-0","","200","190","2","CORN CROP","Left","200","160","4","THISTLE WEED","experimental","64","1,2,3,4","190,213.42112773316248,180,178.98668092748403","2,1,2,1","CORN CROP,CORN CROP,WHEAT CROP,WHEAT CROP","160,205.92615688592917,219.49104030761418,237.59211021329904","4,3,2,1","THISTLE WEED,THISTLE WEED,THISTLE WEED,THISTLE WEED","20,20,20,20","20,20,20,20","10,10,10,10","20,20,20,20","0,0,0,0","20,20,20,20","20,20,20,20","20,20,20,20","10,10,10,10","20,20,20,20","0,0,0,0","20,20,20,20","0,1,0,0","2273,1169,1754,785","23.421127733162486,8.576580106257875,-1.0133190725159835,15.487324863232915","45.92615688592918,13.564883421685005,18.10106990568485,19.58176077926391","0","0"
"36","86","text","0","155","1026202","0-0","","","","","","","","","","","","","","","","","","","","","","","","","","","","","","","","","","","","",""
"","","plant-game","0","156","1034963","0-0","","200","180","4","CORN CROP","Left","200","180","1","THISTLE WEED","experimental","65","1,2,3,4","180,218.48279551914197,225.97497334252685,242.37222861709546","4,3,2,1","CORN CROP,CORN CROP,CORN CROP,CORN CROP","180,170,177.79370446166294,147.43876912463685","1,3,2,1","THISTLE WEED,NETTLE WEED,NETTLE WEED,NETTLE WEED","20,20,20,20","20,20,20,20","10,10,10,10","20,20,20,20","0,0,0,0","20,20,20,20","20,20,20,20","20,20,20,20","10,10,10,10","20,20,20,20","0,0,0,0","20,20,20,20","0,1,1,1","1819,1754,902,91","38.48279551914198,7.492177823384881,16.3972552745686,-13.359138847228689","37.69080108133889,7.793704461662951,-30.354935337026077,-11.967428846314188","0","0"
"84","86","text","0","157","1035127","0-0","","","","","","","","","","","","","","","","","","","","","","","","","","","","","","","","","","","","",""
"","","plant-game","0","158","1050445","0-0","","200","160","8","WHEAT CROP","Right","200","120","2","THISTLE WEED","experimental","66","1,2,3,4,5,6,7,8","120,96.31896453908405,140,125.86185121038287,136.6869457864602,199.52614767518236,174.2743271617358,194.68826317353603","2,1,6,5,4,3,2,1","THISTLE WEED,THISTLE WEED,NETTLE WEED,NETTLE WEED,NETTLE WEED,NETTLE WEED,NETTLE WEED,NETTLE WEED","160,169.4480928022081,165.38670059681004,163.31153167179255,162.06080354091202,211.48574653036383,213.81357995453683,206.40412299683427","8,7,6,5,4,3,2,1","WHEAT CROP,WHEAT CROP,WHEAT CROP,WHEAT CROP,WHEAT CROP,WHEAT CROP,WHEAT CROP,WHEAT CROP","0,0,0,0,0,0,0,0","20,20,20,20,20,20,20,20","10,10,10,10,10,10,10,10","20,20,20,20,20,20,20,20","20,20,20,20,20,20,20,20","20,20,20,20,20,20,20,20","0,0,0,0,0,0,0,0","20,20,20,20,20,20,20,20","10,10,10,10,10,10,10,10","20,20,20,20,20,20,20,20","20,20,20,20,20,20,20,20","20,20,20,20,20,20,20,20","1,0,0,0,1,0,0,0","2829,1367,1227,1398,998,1052,706,646","-23.681035460915957,-10.281486449099406,-14.138148789617134,10.825094576077323,62.83920188872216,-25.25182051344656,20.413936011800203,-4.456637455604381","9.448092802208102,-4.061392205398059,-2.0751689250174996,-1.250728130880523,49.424942989451814,2.3278334241730168,-7.409456957702554,17.099662583329764","0","0"
"86","86","text","0","159","1050604","0-0","","","","","","","","","","","","","","","","","","","","","","","","","","","","","","","","","","","","",""
"","","plant-game","0","160","1062112","0-0","","200","120","4","WHEAT CROP","Right","200","120","2","THISTLE WEED","experimental","67","1,2,3,4","120,134.71654036388685,180,214.5258549905359","2,1,2,1","THISTLE WEED,THISTLE WEED,NETTLE WEED,NETTLE WEED","120,137.94313681030386,134.42508174474597,105.50185743881136","4,3,2,1","WHEAT CROP,WHEAT CROP,WHEAT CROP,WHEAT CROP","0,0,0,0","20,20,20,20","10,10,10,10","20,20,20,20","20,20,20,20","20,20,20,20","0,0,0,0","20,20,20,20","10,10,10,10","20,20,20,20","20,20,20,20","20,20,20,20","1,1,1,1","2074,812,1719,1809","14.716540363886836,14.34298011319026,34.52585499053589,-11.508796079117506","17.943136810303866,-3.5180550655578777,-28.923224305934603,9.830992932519937","0","0"
"45","86","text","0","161","1062269","0-0","","","","","","","","","","","","","","","","","","","","","","","","","","","","","","","","","","","","",""
"","","plant-game","0","162","1078660","0-0","","200","160","2","CORN CROP","Left","200","120","8","THISTLE WEED","experimental","68","1,2,3,4,5,6,7,8","160,200.43421400396073,140,191.5024845528846,204.07152605252764,195.38801372449097,209.29284531386108,224.32401713267987","2,1,6,5,4,3,2,1","CORN CROP,CORN CROP,WHEAT CROP,WHEAT CROP,WHEAT CROP,WHEAT CROP,WHEAT CROP,WHEAT CROP","120,123.07123566825013,171.48102864509633,197.78041191294776,203.77932985039448,178.93877860809053,193.27159893912338,214.15603661837685","8,7,6,5,4,3,2,1","THISTLE WEED,THISTLE WEED,THISTLE WEED,THISTLE WEED,THISTLE WEED,THISTLE WEED,THISTLE WEED,THISTLE WEED","20,20,20,20,20,20,20,20","20,20,20,20,20,20,20,20","10,10,10,10,10,10,10,10","20,20,20,20,20,20,20,20","0,0,0,0,0,0,0,0","20,20,20,20,20,20,20,20","20,20,20,20,20,20,20,20","20,20,20,20,20,20,20,20","10,10,10,10,10,10,10,10","20,20,20,20,20,20,20,20","0,0,0,0,0,0,0,0","20,20,20,20,20,20,20,20","0,1,0,0,1,0,1,1","1836,1301,1654,1117,992,1259,1763,1274","40.43421400396073,9.569563675120907,51.50248455288461,12.569041499643046,-8.683512328036674,13.904831589370108,15.031171818818782,9.855662292585333","3.0712356682501216,48.40979297684622,26.299383267851432,5.998917937446716,-24.840551242303945,14.332820331032853,20.88443767925346,15.278345914346732","0","0"
"73","86","text","0","163","1078823","0-0","","","","","","","","","","","","","","","","","","","","","","","","","","","","","","","","","","","","",""
"","","plant-game","0","164","1085980","0-0","","200","120","4","WHEAT CROP","Right","200","190","4","THISTLE WEED","experimental","69","1,2,3,4","190,234.58907121433148,249.22971160204548,267.34786751388464","4,3,2,1","THISTLE WEED,THISTLE WEED,THISTLE WEED,THISTLE WEED","120,127.07066208694417,128.61105473856864,103.99184446808314","4,3,2,1","WHEAT CROP,WHEAT CROP,WHEAT CROP,WHEAT CROP","0,0,0,0","20,20,20,20","10,10,10,10","20,20,20,20","20,20,20,20","20,20,20,20","0,0,0,0","20,20,20,20","10,10,10,10","20,20,20,20","20,20,20,20","20,20,20,20","1,1,0,0","1841,1054,732,465","44.58907121433148,14.640640387714011,18.118155911839178,-17.527810319047028","7.070662086944171,1.540392651624476,-24.619210270485496,-8.458059473888989","0","0"
"48","86","text","0","165","1086148","0-0","","","","","","","","","","","","","","","","","","","","","","","","","","","","","","","","","","","","",""
"","","plant-game","0","166","1100824","0-0","","200","120","1","CORN CROP","Right","200","120","8","THISTLE WEED","experimental","70","1,2,3,4,5,6,7,8","120,160.9423060122561,164.73410595713614,187.5315360050507,198.57109566527095,205.91326142336533,201.47454564533157,177.40868367016793","8,7,6,5,4,3,2,1","THISTLE WEED,THISTLE WEED,THISTLE WEED,THISTLE WEED,THISTLE WEED,THISTLE WEED,THISTLE WEED,THISTLE WEED","120,130,167.3035922220713,209.82190826407782,208.33417314286785,219.62445152004105,197.97128223836873,185.93972049808286","1,7,6,5,4,3,2,1","CORN CROP,WHEAT CROP,WHEAT CROP,WHEAT CROP,WHEAT CROP,WHEAT CROP,WHEAT CROP,WHEAT CROP","0,0,0,0,0,0,0,0","20,20,20,20,20,20,20,20","10,10,10,10,10,10,10,10","20,20,20,20,20,20,20,20","20,20,20,20,20,20,20,20","20,20,20,20,20,20,20,20","0,0,0,0,0,0,0,0","20,20,20,20,20,20,20,20","10,10,10,10,10,10,10,10","20,20,20,20,20,20,20,20","20,20,20,20,20,20,20,20","20,20,20,20,20,20,20,20","1,1,1,0,0,0,0,0","1370,2182,1179,1307,627,1743,612,1071","40.9423060122561,3.7917999448800295,22.797430047914556,11.03955966022026,7.342165758094371,-4.438715778033745,-24.065861975163646,-28.494085612500953","11.64343728481972,37.303592222071316,42.51831604200653,-1.487735121209977,11.290278377173195,-21.653169281672323,-12.031561740285866,9.685625031772961","0","0"
"85","86","text","0","167","1100999","0-0","","","","","","","","","","","","","","","","","","","","","","","","","","","","","","","","","","","","",""
"","","plant-game","0","168","1116949","0-0","","200","190","8","CORN CROP","Left","200","120","2","NETTLE WEED","experimental","71","1,2,3,4,5,6,7,8","190,192.47131322413506,175.33756467468294,199.60072940967484,168.771983760292,179.7803292348054,195.30094010061634,227.92803730660845","8,7,6,5,4,3,2,1","CORN CROP,CORN CROP,CORN CROP,CORN CROP,CORN CROP,CORN CROP,CORN CROP,CORN CROP","120,124.86950525446045,140,165.64635388167997,172.77083054523666,166.66959354681453,205.96053646588467,203.4100315525242","2,1,6,5,4,3,2,1","NETTLE WEED,NETTLE WEED,THISTLE WEED,THISTLE WEED,THISTLE WEED,THISTLE WEED,THISTLE WEED,THISTLE WEED","20,20,20,20,20,20,20,20","20,20,20,20,20,20,20,20","10,10,10,10,10,10,10,10","20,20,20,20,20,20,20,20","0,0,0,0,0,0,0,0","20,20,20,20,20,20,20,20","20,20,20,20,20,20,20,20","20,20,20,20,20,20,20,20","10,10,10,10,10,10,10,10","20,20,20,20,20,20,20,20","0,0,0,0,0,0,0,0","20,20,20,20,20,20,20,20","1,1,0,1,0,0,0,0","1871,430,1594,1835,1104,1059,1165,1384","2.471313224135062,-17.13374854945213,24.263164734991907,-30.82874564938285,11.008345474513415,15.520610865810944,32.62709720599211,42.72862759279241","4.869505254460448,18.622202975796622,25.64635388167997,7.124476663556686,-6.101236998422145,39.29094291907016,-2.5505049133604665,42.89446718592964","0","0"
"464","86","text","0","169","1117570","0-0","","","","","","","","","","","","","","","","","","","","","","","","","","","","","","","","","","","","",""
"","","plant-game","0","170","1127533","0-0","","200","190","4","WHEAT CROP","Right","200","180","2","THISTLE WEED","experimental","72","1,2,3,4","180,175.63693135288864,180,205.40376747555538","2,1,2,1","THISTLE WEED,THISTLE WEED,NETTLE WEED,NETTLE WEED","190,163.54186155466599,182.64865659296197,198.60913148456655","4,3,2,1","WHEAT CROP,WHEAT CROP,WHEAT CROP,WHEAT CROP","0,0,0,0","20,20,20,20","10,10,10,10","20,20,20,20","20,20,20,20","20,20,20,20","0,0,0,0","20,20,20,20","10,10,10,10","20,20,20,20","20,20,20,20","20,20,20,20","0,0,1,0","2141,642,1379,1403","-4.363068647111368,22.013820311436483,25.403767475555394,0.9796859788360277","-26.458138445334004,19.10679503829598,15.960474891604584,-25.825086705535355","0","0"
"160","86","text","0","171","1127813","0-0","","","","","","","","","","","","","","","","","","","","","","","","","","","","","","","","","","","","",""
"","","plant-game","0","172","1143630","0-0","","200","190","2","CORN CROP","Left","200","120","8","NETTLE WEED","experimental","73","1,2,3,4,5,6,7,8","190,219.5547314210507,140,163.21459549600795,149.48645916948686,110.7791616089182,117.36155667647239,147.78104176941696","2,1,6,5,4,3,2,1","CORN CROP,CORN CROP,WHEAT CROP,WHEAT CROP,WHEAT CROP,WHEAT CROP,WHEAT CROP,WHEAT CROP","120,151.29864618762548,151.17327497867734,147.86655264558317,149.85772321139547,158.89018404144045,179.4077872745232,252.97775108222055","8,7,6,5,4,3,2,1","NETTLE WEED,NETTLE WEED,NETTLE WEED,NETTLE WEED,NETTLE WEED,NETTLE WEED,NETTLE WEED,NETTLE WEED","20,20,20,20,20,20,20,20","20,20,20,20,20,20,20,20","10,10,10,10,10,10,10,10","20,20,20,20,20,20,20,20","0,0,0,0,0,0,0,0","20,20,20,20,20,20,20,20","20,20,20,20,20,20,20,20","20,20,20,20,20,20,20,20","10,10,10,10,10,10,10,10","20,20,20,20,20,20,20,20","0,0,0,0,0,0,0,0","20,20,20,20,20,20,20,20","0,1,0,1,1,0,0,1","1979,2023,1905,954,596,1095,521,1098","29.55473142105068,32.58841767435651,23.214595496007938,-13.728136326521083,-38.70729756056866,6.582395067554188,30.419485092944562,-2.983975529871114","31.298646187625494,-0.12537120894814807,-3.306722333094182,1.9911705658122978,9.03246083004497,20.517603233082763,73.56996380769735,6.436700483663879","0","0"
"535","86","text","0","173","1144277","0-0","","","","","","","","","","","","","","","","","","","","","","","","","","","","","","","","","","","","",""
"","","plant-game","0","174","1154334","0-0","","200","120","8","CORN CROP","Right","200","190","8","NETTLE WEED","experimental","74","1,2,3,4,5,6,7,8","190,189.23829019357981,235.17692985608312,268.68606911008146,276.9421709711528,264.4875724867981,273.4397405361682,256.734575597366","8,7,6,5,4,3,2,1","NETTLE WEED,NETTLE WEED,NETTLE WEED,NETTLE WEED,NETTLE WEED,NETTLE WEED,NETTLE WEED,NETTLE WEED","120,116.39839588013771,117.83489876500336,139.9633868115249,129.10767769056562,129.41505239316388,139.04532005029827,118.31377700822513","8,7,6,5,4,3,2,1","CORN CROP,CORN CROP,CORN CROP,CORN CROP,CORN CROP,CORN CROP,CORN CROP,CORN CROP","0,0,0,0,0,0,0,0","20,20,20,20,20,20,20,20","10,10,10,10,10,10,10,10","20,20,20,20,20,20,20,20","20,20,20,20,20,20,20,20","20,20,20,20,20,20,20,20","0,0,0,0,0,0,0,0","20,20,20,20,20,20,20,20","10,10,10,10,10,10,10,10","20,20,20,20,20,20,20,20","20,20,20,20,20,20,20,20","20,20,20,20,20,20,20,20","1,1,1,0,0,0,0,0","2227,961,1842,638,197,406,135,357","-0.7617098064201713,45.938639662503306,33.50913925399835,8.256101861071333,-12.454598484354664,8.95216804937008,-16.70516493880219,-14.80973539327019","-3.60160411986228,1.43650288486565,22.128488046521554,-10.855709120959297,0.30737470259825644,9.630267657134386,-20.731543042073138,20.386365185873288","0","0"
"83","86","text","0","175","1154537","0-0","","","","","","","","","","","","","","","","","","","","","","","","","","","","","","","","","","","","",""
"","","plant-game","0","176","1164789","0-0","","200","180","4","CORN CROP","Right","200","160","2","THISTLE WEED","experimental","75","1,2,3,4","160,134.1454484591464,180,155.93717858227149","2,1,2,1","THISTLE WEED,THISTLE WEED,NETTLE WEED,NETTLE WEED","180,212.941282965375,223.18810277861533,219.26180358059588","4,3,2,1","CORN CROP,CORN CROP,CORN CROP,CORN CROP","0,0,0,0","20,20,20,20","10,10,10,10","20,20,20,20","20,20,20,20","20,20,20,20","0,0,0,0","20,20,20,20","10,10,10,10","20,20,20,20","20,20,20,20","20,20,20,20","0,0,0,0","2273,1926,1505,808","-25.854551540853613,5.727893059712441,-24.062821417728507,23.97449835610213","32.941282965375,10.246819813240338,-3.9262991980194375,-4.989892269996704","0","0"
"92","86","text","0","177","1164991","0-0","","","","","","","","","","","","","","","","","","","","","","","","","","","","","","","","","","","","",""
"","","plant-game","0","178","1173718","0-0","","200","160","8","WHEAT CROP","Right","200","190","8","NETTLE WEED","experimental","76","1,2,3,4,5,6,7,8","190,215.2379051605092,236.64670689658456,277.7215461509005,253.80913374794048,255.72801344010065,225.98238026941473,273.00471187332903","8,7,6,5,4,3,2,1","NETTLE WEED,NETTLE WEED,NETTLE WEED,NETTLE WEED,NETTLE WEED,NETTLE WEED,NETTLE WEED,NETTLE WEED","160,180.09402251214968,171.97912071724176,230.59181924692157,235.57922640412966,268.14866944184524,244.63733442739561,226.95003465740953","8,7,6,5,4,3,2,1","WHEAT CROP,WHEAT CROP,WHEAT CROP,WHEAT CROP,WHEAT CROP,WHEAT CROP,WHEAT CROP,WHEAT CROP","0,0,0,0,0,0,0,0","20,20,20,20,20,20,20,20","10,10,10,10,10,10,10,10","20,20,20,20,20,20,20,20","20,20,20,20,20,20,20,20","20,20,20,20,20,20,20,20","0,0,0,0,0,0,0,0","20,20,20,20,20,20,20,20","10,10,10,10,10,10,10,10","20,20,20,20,20,20,20,20","20,20,20,20,20,20,20,20","20,20,20,20,20,20,20,20","1,1,0,0,0,0,0,0","1778,1114,509,211,1232,201,168,118","25.237905160509193,21.40880173607536,41.074839254315975,-23.91241240296004,1.9188796921601665,-29.74563317068593,47.022331603914324,32.29739184754469","20.09402251214967,-8.114901794907915,58.612698529679825,4.987407157208093,32.5694430377156,-23.51133501444963,-17.687299769986083,13.416083311933264","0","0"
"58","86","text","0","179","1173893","0-0","","","","","","","","","","","","","","","","","","","","","","","","","","","","","","","","","","","","",""
"","","plant-game","0","180","1185129","0-0","","200","180","4","CORN CROP","Right","200","120","1","THISTLE WEED","experimental","77","1,2,3,4","120,170,172.25475334963375,211.20193904148485","1,3,2,1","THISTLE WEED,NETTLE WEED,NETTLE WEED,NETTLE WEED","180,163.28583472084432,171.82549140979046,170.45686844338258","4,3,2,1","CORN CROP,CORN CROP,CORN CROP,CORN CROP","0,0,0,0","20,20,20,20","10,10,10,10","20,20,20,20","20,20,20,20","20,20,20,20","0,0,0,0","20,20,20,20","10,10,10,10","20,20,20,20","20,20,20,20","20,20,20,20","0,1,1,1","1979,2462,1086,1106","17.20277230547354,2.254753349633752,38.94718569185111,13.014660307483574","-16.714165279155672,8.539656688946135,-1.368622966407873,26.379776561454502","0","0"
"115","86","text","0","181","1185304","0-0","","","","","","","","","","","","","","","","","","","","","","","","","","","","","","","","","","","","",""
"","","plant-game","0","182","1193789","0-0","","200","190","2","WHEAT CROP","Right","200","120","1","NETTLE WEED","experimental","78","1,2","120,190","1,1","NETTLE WEED,THISTLE WEED","190,183.31206113845704","2,1","WHEAT CROP,WHEAT CROP","0,0","20,20","10,10","20,20","20,20","20,20","0,0","20,20","10,10","20,20","20,20","20,20","0,0","2477,1855","12.615527702484952,-42.065370040013505","-6.687938861542959,-12.685471858146204","0","0"
"430","86","text","0","183","1194329","0-0","","","","","","","","","","","","","","","","","","","","","","","","","","","","","","","","","","","","",""
"","","plant-game","0","184","1206156","0-0","","200","120","8","CORN CROP","Right","200","160","8","THISTLE WEED","experimental","79","1,2,3,4,5,6,7,8","160,193.86715701332454,188.5310840455248,204.7391220312872,217.31486580509898,193.97844742334115,175.15343627983032,227.52267355519854","8,7,6,5,4,3,2,1","THISTLE WEED,THISTLE WEED,THISTLE WEED,THISTLE WEED,THISTLE WEED,THISTLE WEED,THISTLE WEED,THISTLE WEED","120,145.43697862393395,189.5756417064688,174.15480486958572,141.67922258848176,127.21091911227187,122.16785553753537,145.7016766965727","8,7,6,5,4,3,2,1","CORN CROP,CORN CROP,CORN CROP,CORN CROP,CORN CROP,CORN CROP,CORN CROP,CORN CROP","0,0,0,0,0,0,0,0","20,20,20,20,20,20,20,20","10,10,10,10,10,10,10,10","20,20,20,20,20,20,20,20","20,20,20,20,20,20,20,20","20,20,20,20,20,20,20,20","0,0,0,0,0,0,0,0","20,20,20,20,20,20,20,20","10,10,10,10,10,10,10,10","20,20,20,20,20,20,20,20","20,20,20,20,20,20,20,20","20,20,20,20,20,20,20,20","1,1,0,0,0,0,1,0","1723,687,1076,1017,670,822,1197,782","33.867157013324544,-5.336072967799748,16.2080379857624,12.575743773811768,-23.33641838175783,-18.82501114351084,52.36923727536822,2.1769689930721543","25.436978623933946,44.13866308253485,-15.420836836883073,-32.47558228110397,-14.468303476209893,-5.043063574736491,23.53382115903732,28.162605545983524","0","0"
"87","86","text","0","185","1206333","0-0","","","","","","","","","","","","","","","","","","","","","","","","","","","","","","","","","","","","",""
"","","plant-game","0","186","1222888","0-0","","200","160","8","WHEAT CROP","Left","200","120","4","THISTLE WEED","experimental","80","1,2,3,4,5,6,7,8","160,175.1353877385156,209.9835771827075,172.65520020395294,173.98830917716373,194.34791395629676,160.77919391611726,151.63124350563433","8,7,6,5,4,3,2,1","WHEAT CROP,WHEAT CROP,WHEAT CROP,WHEAT CROP,WHEAT CROP,WHEAT CROP,WHEAT CROP,WHEAT CROP","120,143.9107220299525,141.55634784503928,139.74630376106273,160,169.87153491145,145.92824491140027,135.90111268834858","4,3,2,1,4,3,2,1","THISTLE WEED,THISTLE WEED,THISTLE WEED,THISTLE WEED,NETTLE WEED,NETTLE WEED,NETTLE WEED,NETTLE WEED","20,20,20,20,20,20,20,20","20,20,20,20,20,20,20,20","10,10,10,10,10,10,10,10","20,20,20,20,20,20,20,20","0,0,0,0,0,0,0,0","20,20,20,20,20,20,20,20","20,20,20,20,20,20,20,20","20,20,20,20,20,20,20,20","10,10,10,10,10,10,10,10","20,20,20,20,20,20,20,20","0,0,0,0,0,0,0,0","20,20,20,20,20,20,20,20","0,1,1,1,1,1,1,0","2239,855,1276,814,2477,1217,672,932","15.135387738515583,34.84818944419193,-37.32837697875457,1.3331089732107901,20.359604779133026,-33.56872004017949,-9.147950410482936,-20.966673114346378","23.91072202995249,-2.3543741849132207,-1.8100440839765541,-10.303412446593367,9.871534911449992,-23.943290000049714,-10.027132223051694,41.9926260169954","0","0"
"3011","86","text","0","187","1226089","0-0","","","","","","","","","","","","","","","","","","","","","","","","","","","","","","","","","","","","",""
"","","plant-game","0","188","1237924","0-0","","200","160","1","WHEAT CROP","Right","200","120","8","NETTLE WEED","experimental","81","1,2,3,4,5,6,7,8","120,140.45201602650818,150.46123215119394,165.1790034593821,160.53663853348849,183.83324316867183,172.5278597643205,163.01325025720294","8,7,6,5,4,3,2,1","NETTLE WEED,NETTLE WEED,NETTLE WEED,NETTLE WEED,NETTLE WEED,NETTLE WEED,NETTLE WEED,NETTLE WEED","160,130,124.75393685164843,140.96174208994367,165.1498598391059,199.513527154304,206.96516103620576,220.87038832403158","1,7,6,5,4,3,2,1","WHEAT CROP,CORN CROP,CORN CROP,CORN CROP,CORN CROP,CORN CROP,CORN CROP,CORN CROP","0,0,0,0,0,0,0,0","20,20,20,20,20,20,20,20","10,10,10,10,10,10,10,10","20,20,20,20,20,20,20,20","20,20,20,20,20,20,20,20","20,20,20,20,20,20,20,20","0,0,0,0,0,0,0,0","20,20,20,20,20,20,20,20","10,10,10,10,10,10,10,10","20,20,20,20,20,20,20,20","20,20,20,20,20,20,20,20","20,20,20,20,20,20,20,20","1,1,1,0,0,0,0,0","1974,1830,549,835,296,826,515,343","20.452016026508186,10.009216124685752,14.717771308188151,-4.642364925893617,23.29660463518335,-11.305383404351307,-9.514609507117559,1.0045655086215595","17.07693911745955,-5.246063148351574,16.207805238295247,24.188117749162213,34.36366731519811,7.451633881901768,13.90522728782583,10.828514718742255","0","0"
"96","86","text","0","189","1238139","0-0","","","","","","","","","","","","","","","","","","","","","","","","","","","","","","","","","","","","",""
"","","plant-game","0","190","1247464","0-0","","200","160","4","CORN CROP","Right","200","160","1","NETTLE WEED","experimental","82","1,2,3,4","160,170,186.9595854615595,163.4668252920857","1,3,2,1","NETTLE WEED,THISTLE WEED,THISTLE WEED,THISTLE WEED","160,151.3638009021842,165.36306407867522,170.24826312971248","4,3,2,1","CORN CROP,CORN CROP,CORN CROP,CORN CROP","0,0,0,0","20,20,20,20","10,10,10,10","20,20,20,20","20,20,20,20","20,20,20,20","0,0,0,0","20,20,20,20","10,10,10,10","20,20,20,20","20,20,20,20","20,20,20,20","0,1,0,0","1057,2037,885,403","-5.096907827128136,16.959585461559502,-23.492760169473787,16.39156255512315","-8.636199097815803,13.999263176491027,4.885199051037253,13.541100584672547","0","0"
"55","86","text","0","191","1247659","0-0","","","","","","","","","","","","","","","","","","","","","","","","","","","","","","","","","","","","",""
"","","plant-game","0","192","1262545","0-0","","200","120","4","WHEAT CROP","Left","200","180","2","THISTLE WEED","experimental","83","1,2,3,4","120,106.01588035991692,87.41002239107736,107.18871633537192","4,3,2,1","WHEAT CROP,WHEAT CROP,WHEAT CROP,WHEAT CROP","180,193.92882264069138,180,185.03616092008426","2,1,2,1","THISTLE WEED,THISTLE WEED,NETTLE WEED,NETTLE WEED","20,20,20,20","20,20,20,20","10,10,10,10","20,20,20,20","0,0,0,0","20,20,20,20","20,20,20,20","20,20,20,20","10,10,10,10","20,20,20,20","0,0,0,0","20,20,20,20","1,1,1,1","7883,534,2085,402","-13.984119640083074,-18.605857968839555,19.77869394429456,3.70771830397099","13.92882264069139,4.518706129306561,5.036160920084251,14.96727388540405","0","0"
"89","86","text","0","193","1262724","0-0","","","","","","","","","","","","","","","","","","","","","","","","","","","","","","","","","","","","",""
"","","plant-game","0","194","1277773","0-0","","200","160","8","WHEAT CROP","Right","200","160","1","THISTLE WEED","experimental","84","1,2,3,4,5,6,7,8","160,130,142.69722776593864,169.4965957329992,160.26683126280878,166.18957583017865,196.75168049592241,212.3861860828707","1,7,6,5,4,3,2,1","THISTLE WEED,NETTLE WEED,NETTLE WEED,NETTLE WEED,NETTLE WEED,NETTLE WEED,NETTLE WEED,NETTLE WEED","160,139.50568880752638,182.18234114543134,196.87721742292746,227.72615210519018,238.8581120797868,227.75393186665903,201.13739907577076","8,7,6,5,4,3,2,1","WHEAT CROP,WHEAT CROP,WHEAT CROP,WHEAT CROP,WHEAT CROP,WHEAT CROP,WHEAT CROP,WHEAT CROP","0,0,0,0,0,0,0,0","20,20,20,20,20,20,20,20","10,10,10,10,10,10,10,10","20,20,20,20,20,20,20,20","20,20,20,20,20,20,20,20","20,20,20,20,20,20,20,20","0,0,0,0,0,0,0,0","20,20,20,20,20,20,20,20","10,10,10,10,10,10,10,10","20,20,20,20,20,20,20,20","20,20,20,20,20,20,20,20","20,20,20,20,20,20,20,20","0,1,1,0,0,0,0,0","2298,2075,1080,1114,959,178,358,1740","-34.50920221672126,12.697227765938628,26.799367967060547,-9.229764470190421,5.922744567369884,30.562104665743774,15.634505586948285,-3.0550167165934887","-20.494311192473607,42.676652337904954,14.694876277496117,30.84893468226271,11.13195997459661,-11.104180213127767,-26.616532790888286,-32.3121112293521","0","0"
"73","86","text","0","195","1277946","0-0","","","","","","","","","","","","","","","","","","","","","","","","","","","","","","","","","","","","",""
"","","plant-game","0","196","1303958","0-0","","200","180","4","CORN CROP","Right","200","120","2","NETTLE WEED","experimental","85","1,2,3,4","120,128.69342752837605,180,184.78519472349","2,1,2,1","NETTLE WEED,NETTLE WEED,THISTLE WEED,THISTLE WEED","180,195.09723484896415,172.18057508130346,157.78612147389532","4,3,2,1","CORN CROP,CORN CROP,CORN CROP,CORN CROP","0,0,0,0","20,20,20,20","10,10,10,10","20,20,20,20","20,20,20,20","20,20,20,20","0,0,0,0","20,20,20,20","10,10,10,10","20,20,20,20","20,20,20,20","20,20,20,20","0,0,0,0","7318,1019,11655,722","8.693427528376045,12.200165035864025,4.7851947234900045,-20.745067996675914","15.097234848964163,-22.916659767660704,-14.394453607408128,2.874281392343282","1","0"
"124","86","text","0","197","1304160","0-0","","","","","","","","","","","","","","","","","","","","","","","","","","","","","","","","","","","","",""
"","","plant-game","0","198","1314466","0-0","","200","120","2","CORN CROP","Left","200","120","4","THISTLE WEED","experimental","86","1,2,3,4","120,109.02280341731851,180,192.4236784351708","2,1,2,1","CORN CROP,CORN CROP,WHEAT CROP,WHEAT CROP","120,109.9736642196743,100.8010602398504,182.91571103296232","4,3,2,1","THISTLE WEED,THISTLE WEED,THISTLE WEED,THISTLE WEED","20,20,20,20","20,20,20,20","10,10,10,10","20,20,20,20","0,0,0,0","20,20,20,20","20,20,20,20","20,20,20,20","10,10,10,10","20,20,20,20","0,0,0,0","20,20,20,20","1,1,0,0","2423,442,1983,1060","-10.977196582681481,11.335250748876149,12.42367843517081,0.806268718380835","-10.026335780325697,-9.172603979823903,82.11465079311192,7.8958082035724875","0","0"
"536","86","text","0","199","1315158","0-0","","","","","","","","","","","","","","","","","","","","","","","","","","","","","","","","","","","","",""
