"rt","key_press","trial_type","trial_index","trial_index_global","time_elapsed","internal_chunk_id","responses","experimental_goal_height","experimental_start_height","experimental_weeks_total","experimental_crop_type","experimental_crop_side","fixed_goal_height","fixed_start_height","fixed_weeks_total","fixed_crop_type","trial_kind","trial_number","stage","left_current_height","left_weeks_remaining","left_crop_type","right_current_height","right_weeks_remaining","right_crop_type","mean_left_growth_given_left","sd_left_growth_given_left","mean_left_growth_given_middle","sd_left_growth_given_middle","mean_left_growth_given_right","sd_left_growth_given_right","mean_right_growth_given_left","sd_right_growth_given_left","mean_right_growth_given_middle","sd_right_growth_given_middle","mean_right_growth_given_right","sd_right_growth_given_right","response","response_time","left_growth","right_growth","other_key_pressed","mouse_clicked"
"2911884","87","text","0","0","2912011","0-0","","","","","","","","","","","","","","","","","","","","","","","","","","","","","","","","","","","","",""
"6479","","survey-text","0","1","2919509","0-0","{""Q0"":""19""}","","","","","","","","","","","","","","","","","","","","","","","","","","","","","","","","","","","",""
"6667","86","text","0","2","6791","0-0","","","","","","","","","","","","","","","","","","","","","","","","","","","","","","","","","","","","",""
"","","plant-game","0","3","145223","0-0","","200","120","8","CORN CROP","Left","200","120","8","NETTLE WEED","practice","1","1,2,3,4,5,6,7,8","120,157.67879192736092,180.443593905858,201.24500444544665,173.9150442698191,172.0141917195805,145.9120123880817,155.37061738576475","8,7,6,5,4,3,2,1","CORN CROP,CORN CROP,CORN CROP,CORN CROP,CORN CROP,CORN CROP,CORN CROP,CORN CROP","120,169.9543165958687,169.46226569932105,174.92263430710233,159.84838807489356,141.31759589473984,168.24855793350628,195.20705351007942","8,7,6,5,4,3,2,1","NETTLE WEED,NETTLE WEED,NETTLE WEED,NETTLE WEED,NETTLE WEED,NETTLE WEED,NETTLE WEED,NETTLE WEED","20,20,20,20,20,20,20,20","20,20,20,20,20,20,20,20","10,10,10,10,10,10,10,10","20,20,20,20,20,20,20,20","0,0,0,0,0,0,0,0","20,20,20,20,20,20,20,20","20,20,20,20,20,20,20,20","20,20,20,20,20,20,20,20","10,10,10,10,10,10,10,10","20,20,20,20,20,20,20,20","0,0,0,0,0,0,0,0","20,20,20,20,20,20,20,20","0,1,1,1,1,1,1,0","43093,10348,5911,2751,10864,2684,1999,9040","37.67879192736092,22.764801978497072,20.801410539588666,-27.329960175627555,-1.9008525502385862,-26.102179331498814,9.458604997683036,26.341236215106655","49.95431659586869,-0.49205089654766476,5.4603686077812625,-15.074246232208765,-18.530792180153718,26.930962038766424,26.958495576573142,-5.718799398693953","1","6"
"1079","86","text","0","4","146473","0-0","","","","","","","","","","","","","","","","","","","","","","","","","","","","","","","","","","","","",""
"","","plant-game","0","5","234386","0-0","","200","160","4","WHEAT CROP","Right","200","160","4","NETTLE WEED","practice","2","1,2,3,4","160,185.05011912240897,154.17705710454996,157.3500316583777","4,3,2,1","NETTLE WEED,NETTLE WEED,NETTLE WEED,NETTLE WEED","160,145.3987165843414,185.18851237561697,206.19554577336112","4,3,2,1","WHEAT CROP,WHEAT CROP,WHEAT CROP,WHEAT CROP","0,0,0,0","20,20,20,20","10,10,10,10","20,20,20,20","20,20,20,20","20,20,20,20","0,0,0,0","20,20,20,20","10,10,10,10","20,20,20,20","20,20,20,20","20,20,20,20","0,0,1,1","16408,5441,11688,16064","25.050119122408965,-30.873062017859016,3.172974553827757,43.770140621032525","-14.601283415658594,39.78979579127556,21.007033397744152,21.302603345654","0","0"
"878","86","text","0","6","235434","0-0","","","","","","","","","","","","","","","","","","","","","","","","","","","","","","","","","","","","",""
"","","plant-game","0","7","297722","0-0","","200","180","2","CORN CROP","Left","200","180","2","THISTLE WEED","practice","3","1,2","180,199.03897207114633","2,1","CORN CROP,CORN CROP","180,198.45780674448633","2,1","THISTLE WEED,THISTLE WEED","20,20","20,20","10,10","20,20","0,0","20,20","20,20","20,20","10,10","20,20","0,0","20,20","1,0","18201,5297","19.038972071146326,14.086659084109733","18.457806744486327,62.38788443647255","0","0"
"728","86","text","0","8","298600","0-0","","","","","","","","","","","","","","","","","","","","","","","","","","","","","","","","","","","","",""
"","","plant-game","0","9","360382","0-0","","200","190","1","WHEAT CROP","Right","200","190","1","THISTLE WEED","practice","4","1","190","1","THISTLE WEED","190","1","WHEAT CROP","0","20","10","20","20","20","0","20","10","20","20","20","0","13860","-20.440843477335896","-13.728430418957036","0","0"
"476","86","text","0","10","361045","0-0","","","","","","","","","","","","","","","","","","","","","","","","","","","","","","","","","","","","",""
"","","plant-game","0","11","413901","0-0","","200","120","8","CORN CROP","Right","200","160","8","NETTLE WEED","practice","5","1,2,3,4,5,6,7,8","160,152.79241925735565,141.44449673628,139.42806891679587,157.4724464847663,173.18186272313557,207.46619772014003,210.4126022312026","8,7,6,5,4,3,2,1","NETTLE WEED,NETTLE WEED,NETTLE WEED,NETTLE WEED,NETTLE WEED,NETTLE WEED,NETTLE WEED,NETTLE WEED","120,159.58118444591796,128.77703035845724,157.23433858740657,140.92686101999064,112.20374912836456,131.4962341992059,159.37439692398564","8,7,6,5,4,3,2,1","CORN CROP,CORN CROP,CORN CROP,CORN CROP,CORN CROP,CORN CROP,CORN CROP,CORN CROP","0,0,0,0,0,0,0,0","20,20,20,20,20,20,20,20","10,10,10,10,10,10,10,10","20,20,20,20,20,20,20,20","20,20,20,20,20,20,20,20","20,20,20,20,20,20,20,20","0,0,0,0,0,0,0,0","20,20,20,20,20,20,20,20","10,10,10,10,10,10,10,10","20,20,20,20,20,20,20,20","20,20,20,20,20,20,20,20","20,20,20,20,20,20,20,20","0,0,0,0,0,1,0,0","6015,1841,2306,1518,1200,2962,4756,4895","-7.207580742644346,-11.347922521075658,-2.016427819484143,18.044377567970415,15.709416238369267,34.28433499700445,2.946404511062575,-9.900367470802578","39.58118444591796,-30.804154087460716,28.457308228949337,-16.30747756741594,-28.723111891626075,19.292485070841344,27.87816272477974,-5.640943087087922","0","0"
"664","86","text","0","12","414695","0-0","","","","","","","","","","","","","","","","","","","","","","","","","","","","","","","","","","","","",""
"","","plant-game","0","13","464449","0-0","","200","180","4","WHEAT CROP","Left","200","160","4","THISTLE WEED","practice","6","1,2,3,4","180,221.2754015859715,222.03933746253938,251.1173774917939","4,3,2,1","WHEAT CROP,WHEAT CROP,WHEAT CROP,WHEAT CROP","160,143.51638643051226,146.63020409443283,140.12577542671806","4,3,2,1","THISTLE WEED,THISTLE WEED,THISTLE WEED,THISTLE WEED","20,20,20,20","20,20,20,20","10,10,10,10","20,20,20,20","0,0,0,0","20,20,20,20","20,20,20,20","20,20,20,20","10,10,10,10","20,20,20,20","0,0,0,0","20,20,20,20","0,0,0,0","4549,12805,1947,3068","41.275401585971494,0.7639358765678814,29.078040029254524,59.52441593199778","-16.483613569487737,3.113817663920571,-6.504428667714748,17.19420422918926","1","0"
"780","86","text","0","14","465400","0-0","","","","","","","","","","","","","","","","","","","","","","","","","","","","","","","","","","","","",""
"","","plant-game","0","15","515837","0-0","","200","180","2","CORN CROP","Left","200","190","2","THISTLE WEED","practice","7","1,2","180,228.80593690849898","2,1","CORN CROP,CORN CROP","190,206.9672393718892","2,1","THISTLE WEED,THISTLE WEED","20,20","20,20","10,10","20,20","0,0","20,20","20,20","20,20","10,10","20,20","0,0","20,20","1,1","4940,4600","48.805936908498985,17.432626862075814","16.967239371889207,16.44769626192764","0","0"
"576","86","text","0","16","516603","0-0","","","","","","","","","","","","","","","","","","","","","","","","","","","","","","","","","","","","",""
"","","plant-game","0","17","595798","0-0","","200","120","4","CORN CROP","Right","200","120","8","NETTLE WEED","practice","8","1,2,3,4,5,6,7,8","120,166.20163588293298,193.81692942038515,239.8722288212643,222.90143490524898,213.48251293874796,212.91334655952292,229.611167603213","8,7,6,5,4,3,2,1","NETTLE WEED,NETTLE WEED,NETTLE WEED,NETTLE WEED,NETTLE WEED,NETTLE WEED,NETTLE WEED,NETTLE WEED","120,128.41630718426035,136.5901510603567,153.92014478371416,160,163.13371202262084,169.3135893670533,185.11911415756208","4,3,2,1,4,3,2,1","CORN CROP,CORN CROP,CORN CROP,CORN CROP,WHEAT CROP,WHEAT CROP,WHEAT CROP,WHEAT CROP","0,0,0,0,0,0,0,0","20,20,20,20,20,20,20,20","10,10,10,10,10,10,10,10","20,20,20,20,20,20,20,20","20,20,20,20,20,20,20,20","20,20,20,20,20,20,20,20","0,0,0,0,0,0,0,0","20,20,20,20,20,20,20,20","10,10,10,10,10,10,10,10","20,20,20,20,20,20,20,20","20,20,20,20,20,20,20,20","20,20,20,20,20,20,20,20","1,0,1,0,0,0,0,1","7556,10574,4083,6089,17405,2960,2005,2709","46.20163588293296,27.615293537452168,46.05529940087912,-16.970793916015307,-9.418921966501006,-0.5691663792250369,16.69782104369007,3.106324306415157","8.416307184260338,8.173843876096367,17.32999372335746,29.111129690750353,3.133712022620837,6.179877344432464,15.805524790508779,35.73925375215748","1","0"
"728","86","text","0","18","596686","0-0","","","","","","","","","","","","","","","","","","","","","","","","","","","","","","","","","","","","",""
"","","plant-game","0","19","719389","0-0","","200","160","4","CORN CROP","Left","200","160","2","THISTLE WEED","practice","9","1,2,3,4","160,179.29853970589855,178.95720579440342,203.12982015758257","4,3,2,1","CORN CROP,CORN CROP,CORN CROP,CORN CROP","160,187.49023307631631,180,221.12528273657014","2,1,2,1","THISTLE WEED,THISTLE WEED,NETTLE WEED,NETTLE WEED","20,20,20,20","20,20,20,20","10,10,10,10","20,20,20,20","0,0,0,0","20,20,20,20","20,20,20,20","20,20,20,20","10,10,10,10","20,20,20,20","0,0,0,0","20,20,20,20","0,0,0,1","25792,9473,9846,2050","19.298539705898545,-0.34133391149512704,24.172614363179154,-8.734865317254627","27.490233076316308,16.253658402674937,41.12528273657015,17.148175940844386","0","0"
"848","86","text","0","20","720397","0-0","","","","","","","","","","","","","","","","","","","","","","","","","","","","","","","","","","","","",""
"","","plant-game","0","21","765640","0-0","","200","180","2","CORN CROP","Left","200","180","1","THISTLE WEED","practice","10","1,2","180,148.81205981090386","2,1","CORN CROP,CORN CROP","180,190","1,1","THISTLE WEED,NETTLE WEED","20,20","20,20","10,10","20,20","0,0","20,20","20,20","20,20","10,10","20,20","0,0","20,20","1,1","4837,6611","-31.187940189096125,-12.885855059104308","22.673803965663396,-17.132083216016003","0","0"
"778","86","text","0","22","766620","0-0","","","","","","","","","","","","","","","","","","","","","","","","","","","","","","","","","","","","",""
"","","plant-game","0","23","848570","0-0","","200","120","8","CORN CROP","Left","200","160","4","THISTLE WEED","practice","11","1,2,3,4,5,6,7,8","120,149.51509549239867,156.64282097847774,154.22421066342653,189.77946874396486,222.51893779642865,243.21285901257866,259.84276055608814","8,7,6,5,4,3,2,1","CORN CROP,CORN CROP,CORN CROP,CORN CROP,CORN CROP,CORN CROP,CORN CROP,CORN CROP","160,219.60007563709482,250.77781187467363,294.5145962884402,160,180.16716584025272,178.79530545360177,188.9736539711493","4,3,2,1,4,3,2,1","THISTLE WEED,THISTLE WEED,THISTLE WEED,THISTLE WEED,NETTLE WEED,NETTLE WEED,NETTLE WEED,NETTLE WEED","20,20,20,20,20,20,20,20","20,20,20,20,20,20,20,20","10,10,10,10,10,10,10,10","20,20,20,20,20,20,20,20","0,0,0,0,0,0,0,0","20,20,20,20,20,20,20,20","20,20,20,20,20,20,20,20","20,20,20,20,20,20,20,20","10,10,10,10,10,10,10,10","20,20,20,20,20,20,20,20","0,0,0,0,0,0,0,0","20,20,20,20,20,20,20,20","0,0,1,0,0,1,1,1","2084,10415,3444,5698,11791,6801,1791,4977","29.515095492398668,7.127725486079061,-2.4186103150512177,35.55525808053833,32.73946905246379,20.693921216150024,16.62990154350949,-15.004293492680516","59.60007563709482,31.17773623757882,43.7367844137666,0.8400366139785795,20.16716584025272,-1.3718603866509593,10.178348517547525,7.517791749927422","0","0"
"585","86","text","0","24","849327","0-0","","","","","","","","","","","","","","","","","","","","","","","","","","","","","","","","","","","","",""
"","","plant-game","0","25","901565","0-0","","200","180","2","WHEAT CROP","Right","200","160","4","THISTLE WEED","practice","12","1,2,3,4","160,178.4857506420957,187.30375813558908,227.78979009630046","4,3,2,1","THISTLE WEED,THISTLE WEED,THISTLE WEED,THISTLE WEED","180,164.33989592100315,180,187.25116652508586","2,1,2,1","WHEAT CROP,WHEAT CROP,CORN CROP,CORN CROP","0,0,0,0","20,20,20,20","10,10,10,10","20,20,20,20","20,20,20,20","20,20,20,20","0,0,0,0","20,20,20,20","10,10,10,10","20,20,20,20","20,20,20,20","20,20,20,20","0,0,1,0","8315,1644,9540,3225","18.485750642095702,8.818007493493385,40.48603196071139,-7.774619968832283","-15.66010407899685,23.916877393509246,7.251166525085878,7.330672240761601","1","0"
"600","86","text","0","26","902315","0-0","","","","","","","","","","","","","","","","","","","","","","","","","","","","","","","","","","","","",""
"13053","86","text","0","27","916609","0-0","","","","","","","","","","","","","","","","","","","","","","","","","","","","","","","","","","","","",""
"","","plant-game","0","28","964308","0-0","","200","180","2","WHEAT CROP","Right","200","180","8","NETTLE WEED","experimental","1","1,2,3,4,5,6,7,8","180,191.99941604522655,199.0731700174727,185.91485218174574,211.26215101903168,267.0134016085448,306.75114114569254,339.5860796550399","8,7,6,5,4,3,2,1","NETTLE WEED,NETTLE WEED,NETTLE WEED,NETTLE WEED,NETTLE WEED,NETTLE WEED,NETTLE WEED,NETTLE WEED","180,178.37320135355,140,117.19200437096343,115.23825777462957,153.8312860869072,199.61297397001235,196.5454823409882","2,1,6,5,4,3,2,1","WHEAT CROP,WHEAT CROP,CORN CROP,CORN CROP,CORN CROP,CORN CROP,CORN CROP,CORN CROP","0,0,0,0,0,0,0,0","20,20,20,20,20,20,20,20","10,10,10,10,10,10,10,10","20,20,20,20,20,20,20,20","20,20,20,20,20,20,20,20","20,20,20,20,20,20,20,20","0,0,0,0,0,0,0,0","20,20,20,20,20,20,20,20","10,10,10,10,10,10,10,10","20,20,20,20,20,20,20,20","20,20,20,20,20,20,20,20","20,20,20,20,20,20,20,20","0,1,0,0,0,1,1,0","15719,4167,8068,1376,1211,1419,2772,1245","11.999416045226548,7.07375397224615,-13.158317835726976,25.347298837285926,55.751250589513155,39.73773953714773,32.834938509347346,11.304824066152658","-1.6267986464500008,30.966658805146594,-22.80799562903657,-1.9537465963338527,38.59302831227764,45.78168788310514,-3.06749162902414,12.97815414343212","0","0"
"707","86","text","0","29","965135","0-0","","","","","","","","","","","","","","","","","","","","","","","","","","","","","","","","","","","","",""
"","","plant-game","0","30","986701","0-0","","200","190","2","CORN CROP","Left","200","160","2","THISTLE WEED","experimental","2","1,2","190,242.59805929633004","2,1","CORN CROP,CORN CROP","160,197.74861029448948","2,1","THISTLE WEED,THISTLE WEED","20,20","20,20","10,10","20,20","0,0","20,20","20,20","20,20","10,10","20,20","0,0","20,20","0,1","7701,8966","52.59805929633004,51.75049314067269","37.74861029448949,6.544525442246217","0","0"
"650","86","text","0","31","987525","0-0","","","","","","","","","","","","","","","","","","","","","","","","","","","","","","","","","","","","",""
"","","plant-game","0","32","1033839","0-0","","200","120","8","CORN CROP","Left","200","190","1","THISTLE WEED","experimental","3","1,2,3,4,5,6,7,8","120,142.3000434114444,157.01715190911958,226.8474245471631,265.5362856444926,294.4611590709075,350.10831705858493,350.53074132883734","8,7,6,5,4,3,2,1","CORN CROP,CORN CROP,CORN CROP,CORN CROP,CORN CROP,CORN CROP,CORN CROP,CORN CROP","190,130,139.35621613318014,120.59278748531567,131.7984778511609,109.90536804272332,142.65507122022748,158.42462945475825","1,7,6,5,4,3,2,1","THISTLE WEED,NETTLE WEED,NETTLE WEED,NETTLE WEED,NETTLE WEED,NETTLE WEED,NETTLE WEED,NETTLE WEED","20,20,20,20,20,20,20,20","20,20,20,20,20,20,20,20","10,10,10,10,10,10,10,10","20,20,20,20,20,20,20,20","0,0,0,0,0,0,0,0","20,20,20,20,20,20,20,20","20,20,20,20,20,20,20,20","20,20,20,20,20,20,20,20","10,10,10,10,10,10,10,10","20,20,20,20,20,20,20,20","0,0,0,0,0,0,0,0","20,20,20,20,20,20,20,20","0,0,0,0,0,0,0,0","15125,5805,1822,3590,1978,3672,1912,1228","22.300043411444406,14.717108497675182,69.83027263804351,38.68886109732951,28.924873426414912,55.6471579876774,0.42242427025241724,26.83982929257356","23.770238602441122,9.356216133180153,-18.763428647864473,11.20569036584523,-21.893109808437565,32.74970317750416,15.769558234530773,13.489980649094054","0","0"
"568","86","text","0","33","1034517","0-0","","","","","","","","","","","","","","","","","","","","","","","","","","","","","","","","","","","","",""
"","","plant-game","0","34","1067330","0-0","","200","160","4","CORN CROP","Right","200","180","2","THISTLE WEED","experimental","4","1,2,3,4","180,194.5667726238491,180,206.459941113126","2,1,2,1","THISTLE WEED,THISTLE WEED,NETTLE WEED,NETTLE WEED","160,184.4844444266981,227.81545090805486,264.38129471409087","4,3,2,1","CORN CROP,CORN CROP,CORN CROP,CORN CROP","0,0,0,0","20,20,20,20","10,10,10,10","20,20,20,20","20,20,20,20","20,20,20,20","0,0,0,0","20,20,20,20","10,10,10,10","20,20,20,20","20,20,20,20","20,20,20,20","1,1,1,1","9721,2842,9069,2720","14.566772623849099,37.82137426560672,26.459941113126014,-0.5363467033118923","24.48444442669811,43.331006481356766,36.565843806036035,32.1000089871877","0","0"
"599","86","text","0","35","1068069","0-0","","","","","","","","","","","","","","","","","","","","","","","","","","","","","","","","","","","","",""
"","","plant-game","0","36","1105635","0-0","","200","120","8","WHEAT CROP","Left","200","120","1","THISTLE WEED","experimental","5","1,2,3,4,5,6,7,8","120,118.5367722838237,156.87211917790515,151.45366087140525,169.87599284738081,189.00879265972935,192.43833286453267,212.70336408590015","8,7,6,5,4,3,2,1","WHEAT CROP,WHEAT CROP,WHEAT CROP,WHEAT CROP,WHEAT CROP,WHEAT CROP,WHEAT CROP,WHEAT CROP","120,130,133.35793709740463,135.3084105615456,156.4349911960195,175.3743087683335,156.38796970507354,173.44253733260777","1,7,6,5,4,3,2,1","THISTLE WEED,NETTLE WEED,NETTLE WEED,NETTLE WEED,NETTLE WEED,NETTLE WEED,NETTLE WEED,NETTLE WEED","20,20,20,20,20,20,20,20","20,20,20,20,20,20,20,20","10,10,10,10,10,10,10,10","20,20,20,20,20,20,20,20","0,0,0,0,0,0,0,0","20,20,20,20,20,20,20,20","20,20,20,20,20,20,20,20","20,20,20,20,20,20,20,20","10,10,10,10,10,10,10,10","20,20,20,20,20,20,20,20","0,0,0,0,0,0,0,0","20,20,20,20,20,20,20,20","1,0,0,0,0,0,0,0","9061,5662,1908,697,1104,718,453,1516","-1.4632277161762988,38.335346894081454,-5.418458306499915,18.422331975975553,19.132799812348548,3.429540204803317,20.265031221367494,33.632838966500664","0.2847069467137852,3.35793709740463,1.9504734641409769,21.126580634473903,18.939317572314003,-18.986339063259933,17.05456762753423,-16.213790442352817","0","0"
"304","86","text","0","37","1106099","0-0","","","","","","","","","","","","","","","","","","","","","","","","","","","","","","","","","","","","",""
"","","plant-game","0","38","1134463","0-0","","200","120","2","CORN CROP","Right","200","190","8","NETTLE WEED","experimental","6","1,2,3,4,5,6,7,8","190,219.95703699499805,234.48180671247897,222.16186575265255,190.25269804537146,201.1279509407686,215.9028682306137,251.23852134876904","8,7,6,5,4,3,2,1","NETTLE WEED,NETTLE WEED,NETTLE WEED,NETTLE WEED,NETTLE WEED,NETTLE WEED,NETTLE WEED,NETTLE WEED","120,134.47533653624987,140,185.27372577297615,187.57782962532218,181.29765407972408,221.68084697223463,245.70658232040176","2,1,6,5,4,3,2,1","CORN CROP,CORN CROP,WHEAT CROP,WHEAT CROP,WHEAT CROP,WHEAT CROP,WHEAT CROP,WHEAT CROP","0,0,0,0,0,0,0,0","20,20,20,20,20,20,20,20","10,10,10,10,10,10,10,10","20,20,20,20,20,20,20,20","20,20,20,20,20,20,20,20","20,20,20,20,20,20,20,20","0,0,0,0,0,0,0,0","20,20,20,20,20,20,20,20","10,10,10,10,10,10,10,10","20,20,20,20,20,20,20,20","20,20,20,20,20,20,20,20","20,20,20,20,20,20,20,20","1,1,1,1,1,1,1,1","5177,1094,4331,1123,1190,1193,2132,1551","29.957036994998052,14.524769717480925,-12.319940959826418,-31.90916770728107,10.875252895397164,14.774917289845078,35.33565311815532,23.958277083204923","14.475336536249861,-6.238933544566553,45.273725772976164,2.304103852346028,-6.280175545598105,40.383192892510536,24.02573534816714,47.776351028021125","0","0"
"581","86","text","0","39","1135184","0-0","","","","","","","","","","","","","","","","","","","","","","","","","","","","","","","","","","","","",""
"","","plant-game","0","40","1183448","0-0","","200","190","2","CORN CROP","Left","200","120","8","THISTLE WEED","experimental","7","1,2,3,4,5,6,7,8","190,242.24775010654508,140,166.50874127990483,162.71518247235073,159.11616244193922,149.6071141838247,171.82462836153658","2,1,6,5,4,3,2,1","CORN CROP,CORN CROP,WHEAT CROP,WHEAT CROP,WHEAT CROP,WHEAT CROP,WHEAT CROP,WHEAT CROP","120,145.6776781197902,140.73577909738134,129.49811160452725,150.92852284390682,150.44771791561888,140.3939818093532,135.85438201712006","8,7,6,5,4,3,2,1","THISTLE WEED,THISTLE WEED,THISTLE WEED,THISTLE WEED,THISTLE WEED,THISTLE WEED,THISTLE WEED,THISTLE WEED","20,20,20,20,20,20,20,20","20,20,20,20,20,20,20,20","10,10,10,10,10,10,10,10","20,20,20,20,20,20,20,20","0,0,0,0,0,0,0,0","20,20,20,20,20,20,20,20","20,20,20,20,20,20,20,20","20,20,20,20,20,20,20,20","10,10,10,10,10,10,10,10","20,20,20,20,20,20,20,20","0,0,0,0,0,0,0,0","20,20,20,20,20,20,20,20","0,0,1,1,1,1,0,0","16181,1518,10201,1041,984,1618,4709,895","52.24775010654507,46.87254441718186,26.50874127990482,-3.793558807554105,-3.599020030411517,-9.509048258114511,22.21751417771188,7.113702684240026","25.67767811979018,-4.941899022408862,-11.237667492854078,21.430411239379566,-0.48080492828794485,-10.053736106265694,-4.539599792233126,12.925658528274825","1","0"
"678","86","text","0","41","1184267","0-0","","","","","","","","","","","","","","","","","","","","","","","","","","","","","","","","","","","","",""
"","","plant-game","0","42","1197100","0-0","","200","120","2","WHEAT CROP","Right","200","180","2","THISTLE WEED","experimental","8","1,2","180,171.22397812852944","2,1","THISTLE WEED,THISTLE WEED","120,128.69606012490584","2,1","WHEAT CROP,WHEAT CROP","0,0","20,20","10,10","20,20","20,20","20,20","0,0","20,20","10,10","20,20","20,20","20,20","0,1","6129,2009","-8.776021871470547,3.4697761111079757","8.696060124905854,35.530448925965025","0","0"
"688","86","text","0","43","1197975","0-0","","","","","","","","","","","","","","","","","","","","","","","","","","","","","","","","","","","","",""
"","","plant-game","0","44","1222360","0-0","","200","180","2","WHEAT CROP","Right","200","160","4","THISTLE WEED","experimental","9","1,2,3,4","160,161.00718478031706,175.36839305133216,158.72060665478912","4,3,2,1","THISTLE WEED,THISTLE WEED,THISTLE WEED,THISTLE WEED","180,182.87992335664512,180,158.75614948519512","2,1,2,1","WHEAT CROP,WHEAT CROP,CORN CROP,CORN CROP","0,0,0,0","20,20,20,20","10,10,10,10","20,20,20,20","20,20,20,20","20,20,20,20","0,0,0,0","20,20,20,20","10,10,10,10","20,20,20,20","20,20,20,20","20,20,20,20","1,1,0,1","5475,1182,8577,1816","1.0071847803170542,14.361208271015089,-16.64778639654303,5.378987321641029","2.8799233566451115,37.70650303660295,-21.243850514804873,20.116099636278726","0","0"
"557","86","text","0","45","1223057","0-0","","","","","","","","","","","","","","","","","","","","","","","","","","","","","","","","","","","","",""
"","","plant-game","0","46","1263810","0-0","","200","120","2","CORN CROP","Left","200","120","4","THISTLE WEED","experimental","10","1,2,3,4","120,166.87115475827997,180,205.24933429305025","2,1,2,1","CORN CROP,CORN CROP,WHEAT CROP,WHEAT CROP","120,109.74976002994099,171.5520571749069,200.3367475273119","4,3,2,1","THISTLE WEED,THISTLE WEED,THISTLE WEED,THISTLE WEED","20,20,20,20","20,20,20,20","10,10,10,10","20,20,20,20","0,0,0,0","20,20,20,20","20,20,20,20","20,20,20,20","10,10,10,10","20,20,20,20","0,0,0,0","20,20,20,20","0,0,0,1","13873,706,12364,5310","46.87115475827997,45.94704379771771,25.249334293050268,-0.7416820426621962","-10.25023997005901,61.802297144965905,28.78469035240498,-5.076004578462174","0","0"
"641","86","text","0","47","1264621","0-0","","","","","","","","","","","","","","","","","","","","","","","","","","","","","","","","","","","","",""
"","","plant-game","0","48","1308836","0-0","","200","160","1","WHEAT CROP","Left","200","160","4","THISTLE WEED","experimental","11","1,2,3,4","160,170,180.94811078531524,192.57812421619394","1,3,2,1","WHEAT CROP,CORN CROP,CORN CROP,CORN CROP","160,163.30446363207844,172.3919823094625,166.17791693813172","4,3,2,1","THISTLE WEED,THISTLE WEED,THISTLE WEED,THISTLE WEED","20,20,20,20","20,20,20,20","10,10,10,10","20,20,20,20","0,0,0,0","20,20,20,20","20,20,20,20","20,20,20,20","10,10,10,10","20,20,20,20","0,0,0,0","20,20,20,20","0,0,0,0","27663,5556,917,441","17.398838316003268,10.948110785315222,11.630013430878702,31.073996566191155","3.3044636320784413,9.087518677384047,-6.214065371330761,37.001011899742416","1","0"
"701","86","text","0","49","1309707","0-0","","","","","","","","","","","","","","","","","","","","","","","","","","","","","","","","","","","","",""
"","","plant-game","0","50","1351813","0-0","","200","120","4","WHEAT CROP","Left","200","180","2","THISTLE WEED","experimental","12","1,2,3,4","120,178.8837461895052,140.17120317854125,143.8270024167757","4,3,2,1","WHEAT CROP,WHEAT CROP,WHEAT CROP,WHEAT CROP","180,171.79063629767745,180,187.44959815517106","2,1,2,1","THISTLE WEED,THISTLE WEED,NETTLE WEED,NETTLE WEED","20,20,20,20","20,20,20,20","10,10,10,10","20,20,20,20","0,0,0,0","20,20,20,20","20,20,20,20","20,20,20,20","10,10,10,10","20,20,20,20","0,0,0,0","20,20,20,20","1,1,1,1","21580,2804,5789,2206","58.883746189505175,-38.71254301096393,3.655799238234457,-22.12955914365304","-8.209363702322559,5.479642462388055,7.4495981551710475,-2.3207340383267696","0","0"
"528","86","text","0","51","1352497","0-0","","","","","","","","","","","","","","","","","","","","","","","","","","","","","","","","","","","","",""
"","","plant-game","0","52","1384182","0-0","","200","160","4","WHEAT CROP","Left","200","120","8","NETTLE WEED","experimental","13","1,2,3,4,5,6,7,8","160,171.4189661688876,191.8524885170121,197.59683370242487,160,174.46150364507037,156.68849798063053,178.93008439584645","4,3,2,1,4,3,2,1","WHEAT CROP,WHEAT CROP,WHEAT CROP,WHEAT CROP,CORN CROP,CORN CROP,CORN CROP,CORN CROP","120,129.46446429964956,145.56189181641074,165.66764625097838,171.1221879992932,189.27655944824758,171.0140991086004,179.60483910972505","8,7,6,5,4,3,2,1","NETTLE WEED,NETTLE WEED,NETTLE WEED,NETTLE WEED,NETTLE WEED,NETTLE WEED,NETTLE WEED,NETTLE WEED","20,20,20,20,20,20,20,20","20,20,20,20,20,20,20,20","10,10,10,10,10,10,10,10","20,20,20,20,20,20,20,20","0,0,0,0,0,0,0,0","20,20,20,20,20,20,20,20","20,20,20,20,20,20,20,20","20,20,20,20,20,20,20,20","10,10,10,10,10,10,10,10","20,20,20,20,20,20,20,20","0,0,0,0,0,0,0,0","20,20,20,20,20,20,20,20","0,0,0,0,1,1,0,0","8350,842,1073,459,8170,1122,1929,902","11.418966168887621,20.43352234812449,5.744345185412778,3.1986622741379733,14.461503645070362,-17.773005664439843,22.241586415215917,14.037310888911506","9.464464299649567,16.097427516761172,20.10575443456764,5.454541748314821,18.154371448954375,-18.262460339647202,8.590740001124644,30.22260433531459","0","0"
"486","86","text","0","53","1384884","0-0","","","","","","","","","","","","","","","","","","","","","","","","","","","","","","","","","","","","",""
"","","plant-game","0","54","1521272","0-0","","200","120","4","WHEAT CROP","Left","200","120","8","NETTLE WEED","experimental","14","1,2,3,4,5,6,7,8","120,148.3635835579057,179.2744992927755,166.78785455739535,160,151.41369197724362,145.69191677054727,159.13892821629045","4,3,2,1,4,3,2,1","WHEAT CROP,WHEAT CROP,WHEAT CROP,WHEAT CROP,CORN CROP,CORN CROP,CORN CROP,CORN CROP","120,196.12759473822544,212.53898556604597,180.79509910871917,179.40092618686978,182.22636254888891,197.7584345816156,186.21962277814694","8,7,6,5,4,3,2,1","NETTLE WEED,NETTLE WEED,NETTLE WEED,NETTLE WEED,NETTLE WEED,NETTLE WEED,NETTLE WEED,NETTLE WEED","20,20,20,20,20,20,20,20","20,20,20,20,20,20,20,20","10,10,10,10,10,10,10,10","20,20,20,20,20,20,20,20","0,0,0,0,0,0,0,0","20,20,20,20,20,20,20,20","20,20,20,20,20,20,20,20","20,20,20,20,20,20,20,20","10,10,10,10,10,10,10,10","20,20,20,20,20,20,20,20","0,0,0,0,0,0,0,0","20,20,20,20,20,20,20,20","0,0,1,1,1,1,1,0","109860,1693,2815,2288,6498,1037,1089,3319","28.363583557905702,30.910915734869768,-12.486644735380148,10.971311873257894,-8.586308022756372,-5.721775206696348,13.447011445743179,-15.365494287270323","76.12759473822544,16.411390827820533,-31.743886457326788,-1.394172921849386,2.825436362019145,15.532072032726695,-11.538811803468663,1.0057162644032474","0","0"
"613","86","text","0","55","1521994","0-0","","","","","","","","","","","","","","","","","","","","","","","","","","","","","","","","","","","","",""
"","","plant-game","0","56","1579381","0-0","","200","190","1","CORN CROP","Left","200","160","4","THISTLE WEED","experimental","15","1,2,3,4","190,170,212.0699148697537,201.66176847727078","1,3,2,1","CORN CROP,WHEAT CROP,WHEAT CROP,WHEAT CROP","160,166.9490729099141,206.84316131204048,209.390936278934","4,3,2,1","THISTLE WEED,THISTLE WEED,THISTLE WEED,THISTLE WEED","20,20,20,20","20,20,20,20","10,10,10,10","20,20,20,20","0,0,0,0","20,20,20,20","20,20,20,20","20,20,20,20","10,10,10,10","20,20,20,20","0,0,0,0","20,20,20,20","0,0,1,1","36194,8942,1806,2964","59.18259088286399,42.0699148697537,-10.40814639248291,-26.326698225588174","6.949072909914085,39.8940884021264,2.5477749668935163,-5.674816873070739","0","0"
"268","86","text","0","57","1579909","0-0","","","","","","","","","","","","","","","","","","","","","","","","","","","","","","","","","","","","",""
"","","plant-game","0","58","1610753","0-0","","200","120","8","WHEAT CROP","Left","200","180","4","THISTLE WEED","experimental","16","1,2,3,4,5,6,7,8","120,124.83822405039294,139.24830567504853,135.98150295306215,127.27570282605694,153.25401010865485,180.2367600924711,232.5895442114404","8,7,6,5,4,3,2,1","WHEAT CROP,WHEAT CROP,WHEAT CROP,WHEAT CROP,WHEAT CROP,WHEAT CROP,WHEAT CROP,WHEAT CROP","180,195.22745929838462,185.56374284294952,229.65043633155506,160,140.9141876503376,169.2013613986393,205.88674755673438","4,3,2,1,4,3,2,1","THISTLE WEED,THISTLE WEED,THISTLE WEED,THISTLE WEED,NETTLE WEED,NETTLE WEED,NETTLE WEED,NETTLE WEED","20,20,20,20,20,20,20,20","20,20,20,20,20,20,20,20","10,10,10,10,10,10,10,10","20,20,20,20,20,20,20,20","0,0,0,0,0,0,0,0","20,20,20,20,20,20,20,20","20,20,20,20,20,20,20,20","20,20,20,20,20,20,20,20","10,10,10,10,10,10,10,10","20,20,20,20,20,20,20,20","0,0,0,0,0,0,0,0","20,20,20,20,20,20,20,20","1,1,1,1,0,0,0,1","5439,1077,1434,1784,7058,679,1045,4178","4.838224050392931,14.41008162465559,-3.2668027219863944,-8.705800127005205,25.978307282597918,26.982749983816234,52.35278411896932,-41.52998942139596","15.227459298384623,-9.66371645543508,44.08669348860552,-11.19505535559873,-19.085812349662405,28.28717374830171,36.68538615809508,29.486508650256482","0","0"
"435","86","text","0","59","1611298","0-0","","","","","","","","","","","","","","","","","","","","","","","","","","","","","","","","","","","","",""
"","","plant-game","0","60","1623074","0-0","","200","190","1","CORN CROP","Right","200","180","1","NETTLE WEED","experimental","17","1","180","1","NETTLE WEED","190","1","CORN CROP","0","20","10","20","20","20","0","20","10","20","20","20","0","7782","-38.92192018848605","-24.053420779832052","0","0"
"642","86","text","0","61","1623810","0-0","","","","","","","","","","","","","","","","","","","","","","","","","","","","","","","","","","","","",""
"","","plant-game","0","62","1641122","0-0","","200","120","2","CORN CROP","Right","200","120","2","NETTLE WEED","experimental","18","1,2","120,108.19735760813442","2,1","NETTLE WEED,NETTLE WEED","120,141.15280650060274","2,1","CORN CROP,CORN CROP","0,0","20,20","10,10","20,20","20,20","20,20","0,0","20,20","10,10","20,20","20,20","20,20","0,1","5807,1666","-11.802642391865575,-24.203492507145548","21.152806500602743,40.70024334071172","0","0"
"663","86","text","0","63","1641973","0-0","","","","","","","","","","","","","","","","","","","","","","","","","","","","","","","","","","","","",""
"","","plant-game","0","64","1681474","0-0","","200","180","4","WHEAT CROP","Right","200","120","4","THISTLE WEED","experimental","19","1,2,3,4","120,123.37049464312668,160.69186085614473,155.46607927100612","4,3,2,1","THISTLE WEED,THISTLE WEED,THISTLE WEED,THISTLE WEED","180,190.10365422919517,220.33924336404542,213.77073827452705","4,3,2,1","WHEAT CROP,WHEAT CROP,WHEAT CROP,WHEAT CROP","0,0,0,0","20,20,20,20","10,10,10,10","20,20,20,20","20,20,20,20","20,20,20,20","0,0,0,0","20,20,20,20","10,10,10,10","20,20,20,20","20,20,20,20","20,20,20,20","1,1,1,1","30801,512,2108,934","3.3704946431266833,37.32136621301805,-5.2257815851385985,5.6404161536685145","10.103654229195174,30.235589134850244,-6.568505089518368,29.75817379672574","0","0"
"710","86","text","0","65","1682294","0-0","","","","","","","","","","","","","","","","","","","","","","","","","","","","","","","","","","","","",""
"","","plant-game","0","66","1720426","0-0","","200","190","8","CORN CROP","Right","200","160","2","NETTLE WEED","experimental","20","1,2,3,4,5,6,7,8","160,175.16474076267392,140,137.95540012647066,116.91738786114684,163.07523840847023,175.08104341774722,129.66262132883134","2,1,6,5,4,3,2,1","NETTLE WEED,NETTLE WEED,THISTLE WEED,THISTLE WEED,THISTLE WEED,THISTLE WEED,THISTLE WEED,THISTLE WEED","190,210.99416921214493,216.50141239785785,211.87338299659802,212.95011104418694,212.45518419937486,223.8087188744489,221.71466370248865","8,7,6,5,4,3,2,1","CORN CROP,CORN CROP,CORN CROP,CORN CROP,CORN CROP,CORN CROP,CORN CROP,CORN CROP","0,0,0,0,0,0,0,0","20,20,20,20,20,20,20,20","10,10,10,10,10,10,10,10","20,20,20,20,20,20,20,20","20,20,20,20,20,20,20,20","20,20,20,20,20,20,20,20","0,0,0,0,0,0,0,0","20,20,20,20,20,20,20,20","10,10,10,10,10,10,10,10","20,20,20,20,20,20,20,20","20,20,20,20,20,20,20,20","20,20,20,20,20,20,20,20","0,0,0,0,0,0,0,0","6588,2486,14154,738,1145,1270,1094,2033","15.164740762673919,15.581280196410292,-2.0445998735293407,-21.038012265323832,46.15785054732338,12.005805009277005,-45.41842208891589,22.167648207450092","20.99416921214493,5.507243185712936,-4.628029401259824,1.076728047588912,-0.49492684481207505,11.353534675074055,-2.0940551719602545,-12.575106600488521","0","0"
"650","86","text","0","67","1721263","0-0","","","","","","","","","","","","","","","","","","","","","","","","","","","","","","","","","","","","",""
"","","plant-game","0","68","1760711","0-0","","200","180","8","CORN CROP","Right","200","180","4","THISTLE WEED","experimental","21","1,2,3,4,5,6,7,8","180,207.05213858103068,200.72811311381432,218.03591641286664,160,166.32061091919402,157.62385838992438,178.80632317213872","4,3,2,1,4,3,2,1","THISTLE WEED,THISTLE WEED,THISTLE WEED,THISTLE WEED,NETTLE WEED,NETTLE WEED,NETTLE WEED,NETTLE WEED","180,204.1718955255784,222.6903817729628,227.52381975758695,248.12855780083916,267.17756403234307,269.4519536850379,269.00976192956784","8,7,6,5,4,3,2,1","CORN CROP,CORN CROP,CORN CROP,CORN CROP,CORN CROP,CORN CROP,CORN CROP,CORN CROP","0,0,0,0,0,0,0,0","20,20,20,20,20,20,20,20","10,10,10,10,10,10,10,10","20,20,20,20,20,20,20,20","20,20,20,20,20,20,20,20","20,20,20,20,20,20,20,20","0,0,0,0,0,0,0,0","20,20,20,20,20,20,20,20","10,10,10,10,10,10,10,10","20,20,20,20,20,20,20,20","20,20,20,20,20,20,20,20","20,20,20,20,20,20,20,20","0,0,0,0,0,0,0,0","8517,586,782,485,19133,1060,892,543","27.052138581030675,-6.324025467216348,17.30780329905234,-7.310003087812222,6.320610919194033,-8.696752529269647,21.182464782214332,-3.0297352396367487","24.171895525578417,18.518486247384413,4.833437984624137,20.604738043252205,19.04900623150393,2.2743896526947935,-0.44219175547007133,-30.589323292993686","0","0"
"560","86","text","0","69","1761396","0-0","","","","","","","","","","","","","","","","","","","","","","","","","","","","","","","","","","","","",""
"","","plant-game","0","70","1775849","0-0","","200","190","4","WHEAT CROP","Left","200","190","4","NETTLE WEED","experimental","22","1,2,3,4","190,209.64909052853244,242.21627597732095,247.0107951550804","4,3,2,1","WHEAT CROP,WHEAT CROP,WHEAT CROP,WHEAT CROP","190,219.45384595329375,234.1335667703663,295.24026135611876","4,3,2,1","NETTLE WEED,NETTLE WEED,NETTLE WEED,NETTLE WEED","20,20,20,20","20,20,20,20","10,10,10,10","20,20,20,20","0,0,0,0","20,20,20,20","20,20,20,20","20,20,20,20","10,10,10,10","20,20,20,20","0,0,0,0","20,20,20,20","0,0,0,0","5054,853,694,605","19.649090528532447,32.56718544878851,4.79451917775944,39.823050698687666","29.45384595329375,14.679720817072528,61.10669458575249,20.80994039636965","0","0"
"770","86","text","0","71","1776889","0-0","","","","","","","","","","","","","","","","","","","","","","","","","","","","","","","","","","","","",""
"","","plant-game","0","72","1802839","0-0","","200","120","1","WHEAT CROP","Left","200","180","4","NETTLE WEED","experimental","23","1,2,3,4","120,170,172.8841960565768,140.12902748989862","1,3,2,1","WHEAT CROP,CORN CROP,CORN CROP,CORN CROP","180,186.79411859268228,196.67723112155238,218.30881628821152","4,3,2,1","NETTLE WEED,NETTLE WEED,NETTLE WEED,NETTLE WEED","20,20,20,20","20,20,20,20","10,10,10,10","20,20,20,20","0,0,0,0","20,20,20,20","20,20,20,20","20,20,20,20","10,10,10,10","20,20,20,20","0,0,0,0","20,20,20,20","0,0,1,1","10020,5018,1453,1077","9.901075605190776,2.8841960565767977,-32.75516856667817,-16.707113166098832","6.794118592682283,9.883112528870113,21.631585166659132,7.301981897110107","0","0"
"889","86","text","0","73","1803940","0-0","","","","","","","","","","","","","","","","","","","","","","","","","","","","","","","","","","","","",""
"","","plant-game","0","74","1850151","0-0","","200","180","4","WHEAT CROP","Right","200","190","8","NETTLE WEED","experimental","24","1,2,3,4,5,6,7,8","190,163.51845303371664,159.35957764634048,196.56031142647836,215.52146472445366,253.84941761007872,252.695407385584,251.34993743740728","8,7,6,5,4,3,2,1","NETTLE WEED,NETTLE WEED,NETTLE WEED,NETTLE WEED,NETTLE WEED,NETTLE WEED,NETTLE WEED,NETTLE WEED","180,193.01754361500036,244.8799679756999,252.88621300851884,160,167.59284160287103,205.6439960986651,252.29892708606792","4,3,2,1,4,3,2,1","WHEAT CROP,WHEAT CROP,WHEAT CROP,WHEAT CROP,CORN CROP,CORN CROP,CORN CROP,CORN CROP","0,0,0,0,0,0,0,0","20,20,20,20,20,20,20,20","10,10,10,10,10,10,10,10","20,20,20,20,20,20,20,20","20,20,20,20,20,20,20,20","20,20,20,20,20,20,20,20","0,0,0,0,0,0,0,0","20,20,20,20,20,20,20,20","10,10,10,10,10,10,10,10","20,20,20,20,20,20,20,20","20,20,20,20,20,20,20,20","20,20,20,20,20,20,20,20","1,1,1,1,1,1,1,1","6045,2188,1065,1113,23291,978,2017,1227","-26.481546966283375,-4.158875387376142,37.20073378013788,18.96115329797531,38.327952885625066,-1.1540102244947157,-1.3454699481767136,6.794414614740427","13.017543615000355,51.862424360699535,8.006245032818924,17.71526966309447,7.592841602871021,38.051154495794066,46.654930987402835,3.2752061771600296","1","0"
"6129","86","text","0","75","1856480","0-0","","","","","","","","","","","","","","","","","","","","","","","","","","","","","","","","","","","","",""
"","","plant-game","0","76","1882682","0-0","","200","120","8","WHEAT CROP","Right","200","120","8","THISTLE WEED","experimental","25","1,2,3,4,5,6,7,8","120,174.0934792752891,191.7565277549239,213.87067511775547,190.3833624814036,188.39532144595444,218.68271127005966,259.45972959777623","8,7,6,5,4,3,2,1","THISTLE WEED,THISTLE WEED,THISTLE WEED,THISTLE WEED,THISTLE WEED,THISTLE WEED,THISTLE WEED,THISTLE WEED","120,126.20504415883308,138.09356010328062,139.89382469112232,156.72341933996478,189.65063332412308,212.10032585587192,208.04771205301986","8,7,6,5,4,3,2,1","WHEAT CROP,WHEAT CROP,WHEAT CROP,WHEAT CROP,WHEAT CROP,WHEAT CROP,WHEAT CROP,WHEAT CROP","0,0,0,0,0,0,0,0","20,20,20,20,20,20,20,20","10,10,10,10,10,10,10,10","20,20,20,20,20,20,20,20","20,20,20,20,20,20,20,20","20,20,20,20,20,20,20,20","0,0,0,0,0,0,0,0","20,20,20,20,20,20,20,20","10,10,10,10,10,10,10,10","20,20,20,20,20,20,20,20","20,20,20,20,20,20,20,20","20,20,20,20,20,20,20,20","1,1,1,0,0,0,0,1","5430,644,433,2125,730,796,921,1135","54.09347927528909,17.66304847963479,22.114147362831563,-23.48731263635186,-1.9880410354491607,30.28738982410521,40.777018327716554,16.414680011210528","6.20504415883307,11.88851594444754,1.800264587841685,16.829594648842466,32.92721398415829,22.449692531748834,-4.052613802852045,7.6700746414739704","0","0"
"1162","86","text","0","77","1883964","0-0","","","","","","","","","","","","","","","","","","","","","","","","","","","","","","","","","","","","",""
"","","plant-game","0","78","1939006","0-0","","200","160","8","WHEAT CROP","Left","200","180","2","THISTLE WEED","experimental","26","1,2,3,4,5,6,7,8","160,187.6811151866905,201.2139934639893,210.41545439214391,194.75470248427195,217.1598246570414,230.85386217255945,203.50273825356783","8,7,6,5,4,3,2,1","WHEAT CROP,WHEAT CROP,WHEAT CROP,WHEAT CROP,WHEAT CROP,WHEAT CROP,WHEAT CROP,WHEAT CROP","180,184.21745890102596,140,140.98705030459786,177.06159430659446,205.85191835872297,233.1813534586873,284.97418399922645","2,1,6,5,4,3,2,1","THISTLE WEED,THISTLE WEED,NETTLE WEED,NETTLE WEED,NETTLE WEED,NETTLE WEED,NETTLE WEED,NETTLE WEED","20,20,20,20,20,20,20,20","20,20,20,20,20,20,20,20","10,10,10,10,10,10,10,10","20,20,20,20,20,20,20,20","0,0,0,0,0,0,0,0","20,20,20,20,20,20,20,20","20,20,20,20,20,20,20,20","20,20,20,20,20,20,20,20","10,10,10,10,10,10,10,10","20,20,20,20,20,20,20,20","0,0,0,0,0,0,0,0","20,20,20,20,20,20,20,20","0,0,0,0,1,0,1,1","24759,896,6774,819,2871,1279,1121,678","27.6811151866905,13.532878277298808,9.201460928154614,-15.660751907871969,22.405122172769456,13.694037515518035,-27.35112391899161,59.28735675984197","4.217458901025957,6.541494368723743,0.9870503045978616,36.0745440019966,28.79032405212852,27.329435099964353,51.79283054053915,28.20596960561034","0","0"
"587","86","text","0","79","1939683","0-0","","","","","","","","","","","","","","","","","","","","","","","","","","","","","","","","","","","","",""
"","","plant-game","0","80","2009950","0-0","","200","190","2","WHEAT CROP","Right","200","160","4","THISTLE WEED","experimental","27","1,2,3,4","160,194.17645211234793,216.2022383374694,271.0369332398012","4,3,2,1","THISTLE WEED,THISTLE WEED,THISTLE WEED,THISTLE WEED","190,204.02383939593176,180,128.45061585430685","2,1,2,1","WHEAT CROP,WHEAT CROP,CORN CROP,CORN CROP","0,0,0,0","20,20,20,20","10,10,10,10","20,20,20,20","20,20,20,20","20,20,20,20","0,0,0,0","20,20,20,20","10,10,10,10","20,20,20,20","20,20,20,20","20,20,20,20","1,1,0,1","18440,16943,26323,1662","34.176452112347945,22.025786225121468,54.83469490233185,32.79238025537627","14.02383939593177,-8.089070336719782,-51.549384145693146,17.51341479200019","0","0"
"637","86","text","0","81","2010727","0-0","","","","","","","","","","","","","","","","","","","","","","","","","","","","","","","","","","","","",""
"","","plant-game","0","82","2030093","0-0","","200","190","1","CORN CROP","Left","200","180","2","THISTLE WEED","experimental","28","1,2","190,190","1,1","CORN CROP,WHEAT CROP","180,236.5477033618986","2,1","THISTLE WEED,THISTLE WEED","20,20","20,20","10,10","20,20","0,0","20,20","20,20","20,20","10,10","20,20","0,0","20,20","0,0","5698,5814","-1.7200192023978325,45.45331268947425","56.54770336189861,5.063399193164804","0","0"
"1155","86","text","0","83","2031328","0-0","","","","","","","","","","","","","","","","","","","","","","","","","","","","","","","","","","","","",""
"","","plant-game","0","84","2066644","0-0","","200","160","8","CORN CROP","Right","200","190","1","THISTLE WEED","experimental","29","1,2,3,4,5,6,7,8","190,130,139.93569481170053,147.85417628190834,188.24026769061885,165.50306190832322,173.64428739735823,220.89469277521852","1,7,6,5,4,3,2,1","THISTLE WEED,NETTLE WEED,NETTLE WEED,NETTLE WEED,NETTLE WEED,NETTLE WEED,NETTLE WEED,NETTLE WEED","160,176.92508559236123,188.09299154336298,186.28660455815572,221.93880682754184,210.47789634127773,225.31369097153436,215.37483162958105","8,7,6,5,4,3,2,1","CORN CROP,CORN CROP,CORN CROP,CORN CROP,CORN CROP,CORN CROP,CORN CROP,CORN CROP","0,0,0,0,0,0,0,0","20,20,20,20,20,20,20,20","10,10,10,10,10,10,10,10","20,20,20,20,20,20,20,20","20,20,20,20,20,20,20,20","20,20,20,20,20,20,20,20","0,0,0,0,0,0,0,0","20,20,20,20,20,20,20,20","10,10,10,10,10,10,10,10","20,20,20,20,20,20,20,20","20,20,20,20,20,20,20,20","20,20,20,20,20,20,20,20","1,1,1,1,0,0,0,1","9705,4957,454,498,1750,1268,904,4428","16.509386959102933,9.93569481170054,7.918481470207814,40.38609140871053,-22.737205782295618,8.141225489035016,47.2504053778603,2.2944732709667193","16.925085592361228,11.167905951001757,-1.806386985207272,35.65220226938614,-11.460910486264108,14.835794630256618,-9.938859341953293,26.182716268998902","0","0"
"1093","86","text","0","85","2067917","0-0","","","","","","","","","","","","","","","","","","","","","","","","","","","","","","","","","","","","",""
"","","plant-game","0","86","2110222","0-0","","200","180","8","WHEAT CROP","Left","200","120","2","THISTLE WEED","experimental","30","1,2,3,4,5,6,7,8","180,134.36022495633821,92.17132568714916,121.60081671918144,160.13328733286278,194.72348825488515,198.33728336474775,240.81396296205685","8,7,6,5,4,3,2,1","WHEAT CROP,WHEAT CROP,WHEAT CROP,WHEAT CROP,WHEAT CROP,WHEAT CROP,WHEAT CROP,WHEAT CROP","120,100.11601507537259,140,154.08968170918135,194.063844968566,197.25111552661247,214.33836077926236,263.33797054530993","2,1,6,5,4,3,2,1","THISTLE WEED,THISTLE WEED,NETTLE WEED,NETTLE WEED,NETTLE WEED,NETTLE WEED,NETTLE WEED,NETTLE WEED","20,20,20,20,20,20,20,20","20,20,20,20,20,20,20,20","10,10,10,10,10,10,10,10","20,20,20,20,20,20,20,20","0,0,0,0,0,0,0,0","20,20,20,20,20,20,20,20","20,20,20,20,20,20,20,20","20,20,20,20,20,20,20,20","10,10,10,10,10,10,10,10","20,20,20,20,20,20,20,20","0,0,0,0,0,0,0,0","20,20,20,20,20,20,20,20","1,1,0,0,0,0,0,1","18640,1544,7926,538,1616,1378,763,2233","-45.639775043661786,-42.188899269189044,29.429491032032274,38.53247061368133,34.590200922022376,3.6137951098625933,42.4766795973091,20.833650174426776","-19.88398492462741,-19.420523053192284,14.089681709181338,39.97416325938466,3.1872705580464746,17.08724525264989,48.99960976604758,11.594072158400454","0","0"
"567","86","text","0","87","2110909","0-0","","","","","","","","","","","","","","","","","","","","","","","","","","","","","","","","","","","","",""
"","","plant-game","0","88","2131759","0-0","","200","190","2","CORN CROP","Right","200","120","1","NETTLE WEED","experimental","31","1,2","120,190","1,1","NETTLE WEED,THISTLE WEED","190,223.50790869499218","2,1","CORN CROP,CORN CROP","0,0","20,20","10,10","20,20","20,20","20,20","0,0","20,20","10,10","20,20","20,20","20,20","0,0","4783,7304","31.524439015893368,-35.501911179741505","33.507908694992175,1.2405181406354486","0","0"
"846","86","text","0","89","2132725","0-0","","","","","","","","","","","","","","","","","","","","","","","","","","","","","","","","","","","","",""
"","","plant-game","0","90","2151435","0-0","","200","160","1","WHEAT CROP","Left","200","120","1","NETTLE WEED","experimental","32","1","160","1","WHEAT CROP","120","1","NETTLE WEED","20","20","10","20","0","20","20","20","10","20","0","20","0","14935","24.17281871072214","0.6000791843759359","0","0"
"14934","86","text","0","91","2166525","0-0","","","","","","","","","","","","","","","","","","","","","","","","","","","","","","","","","","","","",""
"","","plant-game","0","92","2178536","0-0","","200","160","1","WHEAT CROP","Right","200","190","1","NETTLE WEED","experimental","33","1","190","1","NETTLE WEED","160","1","WHEAT CROP","0","20","10","20","20","20","0","20","10","20","20","20","1","7325","-23.224938842638693","17.67740338450455","0","0"
"838","86","text","0","93","2179499","0-0","","","","","","","","","","","","","","","","","","","","","","","","","","","","","","","","","","","","",""
"","","plant-game","0","94","2199046","0-0","","200","120","4","WHEAT CROP","Right","200","180","1","NETTLE WEED","experimental","34","1,2,3,4","180,170,170.08527335186713,202.50325865292683","1,3,2,1","NETTLE WEED,THISTLE WEED,THISTLE WEED,THISTLE WEED","120,125.57489729164027,114.41644029524637,154.53690725317836","4,3,2,1","WHEAT CROP,WHEAT CROP,WHEAT CROP,WHEAT CROP","0,0,0,0","20,20,20,20","10,10,10,10","20,20,20,20","20,20,20,20","20,20,20,20","0,0,0,0","20,20,20,20","10,10,10,10","20,20,20,20","20,20,20,20","20,20,20,20","0,0,1,1","5093,6233,1693,768","-13.766156689636714,0.08527335186712473,32.41798530105969,-0.2808342269266042","5.574897291640269,-11.158456996393893,40.120466957931995,-54.55946125898326","0","0"
"238","86","text","0","95","2199404","0-0","","","","","","","","","","","","","","","","","","","","","","","","","","","","","","","","","","","","",""
"","","plant-game","0","96","2228505","0-0","","200","120","2","WHEAT CROP","Left","200","180","4","NETTLE WEED","experimental","35","1,2,3,4","120,84.27413324152019,180,202.91942641974526","2,1,2,1","WHEAT CROP,WHEAT CROP,CORN CROP,CORN CROP","180,199.94037213911793,229.6905449066474,213.60665897151858","4,3,2,1","NETTLE WEED,NETTLE WEED,NETTLE WEED,NETTLE WEED","20,20,20,20","20,20,20,20","10,10,10,10","20,20,20,20","0,0,0,0","20,20,20,20","20,20,20,20","20,20,20,20","10,10,10,10","20,20,20,20","0,0,0,0","20,20,20,20","1,0,1,1","14449,801,4764,1472","-35.7258667584798,-3.0987902233136495,22.919426419745275,-6.478664200609172","19.940372139117926,29.750172767529484,-16.083885935128816,-1.4594242996879117","0","0"
"596","86","text","0","97","2229291","0-0","","","","","","","","","","","","","","","","","","","","","","","","","","","","","","","","","","","","",""
"","","plant-game","0","98","2251092","0-0","","200","180","1","CORN CROP","Right","200","180","4","THISTLE WEED","experimental","36","1,2,3,4","180,189.31041272215376,200.77489071142517,219.7641388474029","4,3,2,1","THISTLE WEED,THISTLE WEED,THISTLE WEED,THISTLE WEED","180,170,151.319741474627,157.77685422727328","1,3,2,1","CORN CROP,WHEAT CROP,WHEAT CROP,WHEAT CROP","0,0,0,0","20,20,20,20","10,10,10,10","20,20,20,20","20,20,20,20","20,20,20,20","0,0,0,0","20,20,20,20","10,10,10,10","20,20,20,20","20,20,20,20","20,20,20,20","1,1,0,1","3673,7510,2889,1314","9.310412722153757,11.464477989271423,18.989248135977743,9.926224712594587","30.016192248093716,-18.68025852537302,6.457112752646285,34.099139986902394","0","0"
"656","86","text","0","99","2251848","0-0","","","","","","","","","","","","","","","","","","","","","","","","","","","","","","","","","","","","",""
"","","plant-game","0","100","2268504","0-0","","200","120","1","WHEAT CROP","Left","200","180","2","THISTLE WEED","experimental","37","1,2","120,190","1,1","WHEAT CROP,CORN CROP","180,215.05328167249147","2,1","THISTLE WEED,THISTLE WEED","20,20","20,20","10,10","20,20","0,0","20,20","20,20","20,20","10,10","20,20","0,0","20,20","0,0","5402,5148","45.44200514740244,39.67948636685988","35.05328167249146,20.093361569290597","0","0"
"459","86","text","0","101","2269179","0-0","","","","","","","","","","","","","","","","","","","","","","","","","","","","","","","","","","","","",""
"","","plant-game","0","102","2280115","0-0","","200","120","1","WHEAT CROP","Left","200","160","1","NETTLE WEED","experimental","38","1","120","1","WHEAT CROP","160","1","NETTLE WEED","20","20","10","20","0","20","20","20","10","20","0","20","0","6909","-7.717387828701572","-2.2226674641148136","0","0"
"439","86","text","0","103","2280734","0-0","","","","","","","","","","","","","","","","","","","","","","","","","","","","","","","","","","","","",""
"","","plant-game","0","104","2318746","0-0","","200","180","4","WHEAT CROP","Right","200","120","1","NETTLE WEED","experimental","39","1,2,3,4","120,170,188.1122105588758,180.44865161493564","1,3,2,1","NETTLE WEED,THISTLE WEED,THISTLE WEED,THISTLE WEED","180,158.2115977166347,186.64980227871396,199.75798581109603","4,3,2,1","WHEAT CROP,WHEAT CROP,WHEAT CROP,WHEAT CROP","0,0,0,0","20,20,20,20","10,10,10,10","20,20,20,20","20,20,20,20","20,20,20,20","0,0,0,0","20,20,20,20","10,10,10,10","20,20,20,20","20,20,20,20","20,20,20,20","0,0,0,0","6633,23969,784,1082","22.59197794784616,18.112210558875816,-7.6635589439401635,14.445351474286674","-21.78840228336528,28.438204562079257,13.108183532382085,9.005356683326513","0","0"
"1233","86","text","0","105","2320065","0-0","","","","","","","","","","","","","","","","","","","","","","","","","","","","","","","","","","","","",""
"","","plant-game","0","106","2359469","0-0","","200","160","8","CORN CROP","Right","200","190","4","NETTLE WEED","experimental","40","1,2,3,4,5,6,7,8","190,201.3271438118406,213.84174744895296,251.10940273225066,160,209.59048868221137,201.88902789051633,214.89192699175078","4,3,2,1,4,3,2,1","NETTLE WEED,NETTLE WEED,NETTLE WEED,NETTLE WEED,THISTLE WEED,THISTLE WEED,THISTLE WEED,THISTLE WEED","160,169.28199125468922,174.4404784276688,223.99273356872936,267.96427563682676,276.12589750754745,299.84721782441244,329.0327006179658","8,7,6,5,4,3,2,1","CORN CROP,CORN CROP,CORN CROP,CORN CROP,CORN CROP,CORN CROP,CORN CROP,CORN CROP","0,0,0,0,0,0,0,0","20,20,20,20,20,20,20,20","10,10,10,10,10,10,10,10","20,20,20,20,20,20,20,20","20,20,20,20,20,20,20,20","20,20,20,20,20,20,20,20","0,0,0,0,0,0,0,0","20,20,20,20,20,20,20,20","10,10,10,10,10,10,10,10","20,20,20,20,20,20,20,20","20,20,20,20,20,20,20,20","20,20,20,20,20,20,20,20","0,0,1,1,1,0,0,0","9059,1096,1532,1239,16404,1540,1016,663","11.32714381184062,12.51460363711234,37.267655283297714,21.950168600014603,49.59048868221138,-7.701460791695029,13.002899101234433,2.346736074129164","9.281991254689226,5.158487172979585,49.55225514106055,43.971542068097406,8.161621870720703,23.721320316864997,29.18548279355338,5.247979504680726","0","0"
"539","86","text","0","107","2360209","0-0","","","","","","","","","","","","","","","","","","","","","","","","","","","","","","","","","","","","",""
"","","plant-game","0","108","2386594","0-0","","200","160","8","WHEAT CROP","Right","200","160","2","THISTLE WEED","experimental","41","1,2,3,4,5,6,7,8","160,187.00795723317208,140,142.42499267824144,124.9796230083543,120.73808166843601,177.0210679076155,207.43900677487966","2,1,6,5,4,3,2,1","THISTLE WEED,THISTLE WEED,NETTLE WEED,NETTLE WEED,NETTLE WEED,NETTLE WEED,NETTLE WEED,NETTLE WEED","160,181.7544330102226,205.92371407061586,216.65756585313682,255.66092537413368,300.8337281757948,277.543774442503,292.6629880522306","8,7,6,5,4,3,2,1","WHEAT CROP,WHEAT CROP,WHEAT CROP,WHEAT CROP,WHEAT CROP,WHEAT CROP,WHEAT CROP,WHEAT CROP","0,0,0,0,0,0,0,0","20,20,20,20,20,20,20,20","10,10,10,10,10,10,10,10","20,20,20,20,20,20,20,20","20,20,20,20,20,20,20,20","20,20,20,20,20,20,20,20","0,0,0,0,0,0,0,0","20,20,20,20,20,20,20,20","10,10,10,10,10,10,10,10","20,20,20,20,20,20,20,20","20,20,20,20,20,20,20,20","20,20,20,20,20,20,20,20","1,1,1,1,1,1,1,1","6207,1041,7124,778,1266,729,886,586","27.00795723317209,35.68821609201087,2.424992678241445,-17.445369669887143,-4.241541339918289,56.2829862391795,30.417938867264166,34.30144704873127","21.754433010222613,24.169281060393253,10.733851782520956,39.00335952099686,45.172802801661156,-23.28995373329186,15.119213609727662,14.362309340779692","1","0"
"136","86","text","0","109","2386851","0-0","","","","","","","","","","","","","","","","","","","","","","","","","","","","","","","","","","","","",""
"","","plant-game","0","110","2412165","0-0","","200","190","2","CORN CROP","Right","200","190","2","THISTLE WEED","experimental","42","1,2","190,220.30978239456087","2,1","THISTLE WEED,THISTLE WEED","190,166.58178109957353","2,1","CORN CROP,CORN CROP","0,0","20,20","10,10","20,20","20,20","20,20","0,0","20,20","10,10","20,20","20,20","20,20","1,1","21245,727","30.309782394560866,48.79579836769432","-23.418218900426467,-0.2238756486771294","0","0"
"1814","86","text","0","111","2414129","0-0","","","","","","","","","","","","","","","","","","","","","","","","","","","","","","","","","","","","",""
"","","plant-game","0","112","2441922","0-0","","200","160","8","CORN CROP","Left","200","120","4","NETTLE WEED","experimental","43","1,2,3,4,5,6,7,8","160,142.99659186895005,141.985817600385,164.95054905938858,190.07533937289915,243.73012463061107,286.05291657770834,287.8640188909954","8,7,6,5,4,3,2,1","CORN CROP,CORN CROP,CORN CROP,CORN CROP,CORN CROP,CORN CROP,CORN CROP,CORN CROP","120,149.43185136164456,139.41520930604494,151.332985943325,160,174.3857124601897,199.0753830297474,220.47578113682513","4,3,2,1,4,3,2,1","NETTLE WEED,NETTLE WEED,NETTLE WEED,NETTLE WEED,THISTLE WEED,THISTLE WEED,THISTLE WEED,THISTLE WEED","20,20,20,20,20,20,20,20","20,20,20,20,20,20,20,20","10,10,10,10,10,10,10,10","20,20,20,20,20,20,20,20","0,0,0,0,0,0,0,0","20,20,20,20,20,20,20,20","20,20,20,20,20,20,20,20","20,20,20,20,20,20,20,20","10,10,10,10,10,10,10,10","20,20,20,20,20,20,20,20","0,0,0,0,0,0,0,0","20,20,20,20,20,20,20,20","1,1,1,1,0,0,1,1","6659,788,497,1259,7281,1530,2794,672","-17.00340813104995,-1.0107742685650505,22.96473145900359,25.12479031351058,53.65478525771192,42.32279194709726,1.8111023132870612,-0.013518808619198172","29.431851361644554,-10.016642055599622,11.917776637280062,-9.809780619190434,14.385712460189703,24.68967056955772,21.40039810707774,27.395161376062998","0","0"
"705","86","text","0","113","2442854","0-0","","","","","","","","","","","","","","","","","","","","","","","","","","","","","","","","","","","","",""
"","","plant-game","0","114","2470716","0-0","","200","120","8","WHEAT CROP","Left","200","180","8","NETTLE WEED","experimental","44","1,2,3,4,5,6,7,8","120,112.02193760669108,113.62612034525276,147.6387800089869,152.54714882315577,129.58395175171484,157.3691342570057,172.86537749999337","8,7,6,5,4,3,2,1","WHEAT CROP,WHEAT CROP,WHEAT CROP,WHEAT CROP,WHEAT CROP,WHEAT CROP,WHEAT CROP,WHEAT CROP","180,177.55581439217434,139.62914654480332,164.9202785822175,146.4711328978784,132.83384754697224,173.45624764210666,143.56737555785523","8,7,6,5,4,3,2,1","NETTLE WEED,NETTLE WEED,NETTLE WEED,NETTLE WEED,NETTLE WEED,NETTLE WEED,NETTLE WEED,NETTLE WEED","20,20,20,20,20,20,20,20","20,20,20,20,20,20,20,20","10,10,10,10,10,10,10,10","20,20,20,20,20,20,20,20","0,0,0,0,0,0,0,0","20,20,20,20,20,20,20,20","20,20,20,20,20,20,20,20","20,20,20,20,20,20,20,20","10,10,10,10,10,10,10,10","20,20,20,20,20,20,20,20","0,0,0,0,0,0,0,0","20,20,20,20,20,20,20,20","1,1,1,1,1,1,1,1","17346,252,1599,710,532,1080,583,774","-7.978062393308923,1.6041827385616734,34.01265966373415,4.908368814168854,-22.963197071440938,27.785182505290862,15.496243242987662,48.141751038151604","-2.4441856078256468,-37.926667847371014,25.29113203741417,-18.449145684339094,-13.637285350906161,40.622400095134424,-29.88887208425143,12.370511401394992","0","0"
"227","86","text","0","115","2471043","0-0","","","","","","","","","","","","","","","","","","","","","","","","","","","","","","","","","","","","",""
"","","plant-game","0","116","2579162","0-0","","200","180","4","CORN CROP","Right","200","180","8","THISTLE WEED","experimental","45","1,2,3,4,5,6,7,8","180,249.38643254430428,250.55925957425572,252.67315359285695,250.13415434270075,236.87490999005593,223.92409067320185,202.8115017848998","8,7,6,5,4,3,2,1","THISTLE WEED,THISTLE WEED,THISTLE WEED,THISTLE WEED,THISTLE WEED,THISTLE WEED,THISTLE WEED,THISTLE WEED","180,203.35905601918185,225.87787774648942,249.5073621566662,160,185.4725925900299,160.48962889864072,172.85030814825268","4,3,2,1,4,3,2,1","CORN CROP,CORN CROP,CORN CROP,CORN CROP,WHEAT CROP,WHEAT CROP,WHEAT CROP,WHEAT CROP","0,0,0,0,0,0,0,0","20,20,20,20,20,20,20,20","10,10,10,10,10,10,10,10","20,20,20,20,20,20,20,20","20,20,20,20,20,20,20,20","20,20,20,20,20,20,20,20","0,0,0,0,0,0,0,0","20,20,20,20,20,20,20,20","10,10,10,10,10,10,10,10","20,20,20,20,20,20,20,20","20,20,20,20,20,20,20,20","20,20,20,20,20,20,20,20","1,1,1,0,0,0,0,0","50848,51,1114,2259,43532,320,830,988","69.3864325443043,1.1728270299514314,2.1138940186012256,-2.538999250156206,-13.259244352644817,-12.95081931685408,-21.11258888830203,21.186322296314195","23.359056019181843,22.51882172730756,23.62948441017679,-10.412067367073698,25.47259259002991,-24.9829636913892,12.360679249611975,-63.828046639666454","0","0"
"669","86","text","0","117","2579987","0-0","","","","","","","","","","","","","","","","","","","","","","","","","","","","","","","","","","","","",""
"","","plant-game","0","118","2593085","0-0","","200","190","2","WHEAT CROP","Right","200","120","2","THISTLE WEED","experimental","46","1,2","120,129.96829481494794","2,1","THISTLE WEED,THISTLE WEED","190,254.72525527532747","2,1","WHEAT CROP,WHEAT CROP","0,0","20,20","10,10","20,20","20,20","20,20","0,0","20,20","10,10","20,20","20,20","20,20","1,1","8146,1162","9.968294814947951,11.932074117579528","64.72525527532746,25.968036500613238","0","0"
"484","86","text","0","119","2593679","0-0","","","","","","","","","","","","","","","","","","","","","","","","","","","","","","","","","","","","",""
"","","plant-game","0","120","2619800","0-0","","200","190","1","WHEAT CROP","Left","200","120","2","NETTLE WEED","experimental","47","1,2","190,190","1,1","WHEAT CROP,CORN CROP","120,143.51766601525634","2,1","NETTLE WEED,NETTLE WEED","20,20","20,20","10,10","20,20","0,0","20,20","20,20","20,20","10,10","20,20","0,0","20,20","0,0","9573,8888","39.21257541040262,8.117413002498012","23.51766601525633,0.5693793548874346","0","0"
"587","86","text","0","121","2620527","0-0","","","","","","","","","","","","","","","","","","","","","","","","","","","","","","","","","","","","",""
"","","plant-game","0","122","2693778","0-0","","200","120","8","WHEAT CROP","Right","200","160","4","THISTLE WEED","experimental","48","1,2,3,4,5,6,7,8","160,167.0194063496064,164.96462618453532,196.3079086518867,160,125.88884682835726,120.2543468584172,105.08591868994881","4,3,2,1,4,3,2,1","THISTLE WEED,THISTLE WEED,THISTLE WEED,THISTLE WEED,NETTLE WEED,NETTLE WEED,NETTLE WEED,NETTLE WEED","120,151.6519345432204,149.10851940471372,150.86076419456785,159.85946033382834,185.23459156437693,198.70583285429367,217.8011390689807","8,7,6,5,4,3,2,1","WHEAT CROP,WHEAT CROP,WHEAT CROP,WHEAT CROP,WHEAT CROP,WHEAT CROP,WHEAT CROP,WHEAT CROP","0,0,0,0,0,0,0,0","20,20,20,20,20,20,20,20","10,10,10,10,10,10,10,10","20,20,20,20,20,20,20,20","20,20,20,20,20,20,20,20","20,20,20,20,20,20,20,20","0,0,0,0,0,0,0,0","20,20,20,20,20,20,20,20","10,10,10,10,10,10,10,10","20,20,20,20,20,20,20,20","20,20,20,20,20,20,20,20","20,20,20,20,20,20,20,20","0,0,0,0,0,0,0,0","8246,450,432,570,53792,199,774,843","7.019406349606424,-2.0547801650710804,31.34328246735138,13.883234067539972,-34.111153171642734,-5.634499969940071,-15.168428168468385,-11.816166306450073","31.651934543220392,-2.5434151385066657,1.7522447898541402,8.998696139260499,25.375131230548593,13.47124128991674,19.095306214687014,-4.931181841573122","0","0"
"2942","86","text","0","123","2696920","0-0","","","","","","","","","","","","","","","","","","","","","","","","","","","","","","","","","","","","",""
"","","plant-game","0","124","2748062","0-0","","200","120","2","WHEAT CROP","Right","200","160","8","NETTLE WEED","experimental","49","1,2,3,4,5,6,7,8","160,175.7714626084493,184.04196540007158,163.5116545948422,179.86641262561773,173.86381978783388,157.94550056151698,182.5708380731241","8,7,6,5,4,3,2,1","NETTLE WEED,NETTLE WEED,NETTLE WEED,NETTLE WEED,NETTLE WEED,NETTLE WEED,NETTLE WEED,NETTLE WEED","120,141.57980591949797,140,105.86550429156523,107.31783010527472,103.7835423353238,89.84096774456542,92.02522523764162","2,1,6,5,4,3,2,1","WHEAT CROP,WHEAT CROP,CORN CROP,CORN CROP,CORN CROP,CORN CROP,CORN CROP,CORN CROP","0,0,0,0,0,0,0,0","20,20,20,20,20,20,20,20","10,10,10,10,10,10,10,10","20,20,20,20,20,20,20,20","20,20,20,20,20,20,20,20","20,20,20,20,20,20,20,20","0,0,0,0,0,0,0,0","20,20,20,20,20,20,20,20","10,10,10,10,10,10,10,10","20,20,20,20,20,20,20,20","20,20,20,20,20,20,20,20","20,20,20,20,20,20,20,20","1,1,0,0,0,0,0,0","13383,978,13994,3068,2381,631,835,785","15.771462608449294,8.27050279162229,-20.530310805229355,16.354758030775503,-6.0025928377838635,-15.918319226316894,24.62533751160712,24.365621656765683","21.579805919497957,-4.882417798583134,-34.13449570843478,1.4523258137094974,-3.5342877699509194,-13.942574590758383,2.1842574930762098,-24.988388814003443","0","0"
"731","86","text","0","125","2748873","0-0","","","","","","","","","","","","","","","","","","","","","","","","","","","","","","","","","","","","",""
"","","plant-game","0","126","2780886","0-0","","200","180","1","WHEAT CROP","Right","200","190","2","THISTLE WEED","experimental","50","1,2","190,210.87315550704946","2,1","THISTLE WEED,THISTLE WEED","180,190","1,1","WHEAT CROP,CORN CROP","0,0","20,20","10,10","20,20","20,20","20,20","0,0","20,20","10,10","20,20","20,20","20,20","1,1","19208,3718","20.87315550704947,48.335047910322956","4.808251187986269,27.833643662765617","1","0"
"1223","86","text","0","127","2782204","0-0","","","","","","","","","","","","","","","","","","","","","","","","","","","","","","","","","","","","",""
"","","plant-game","0","128","2814910","0-0","","200","190","8","WHEAT CROP","Left","200","180","1","NETTLE WEED","experimental","51","1,2,3,4,5,6,7,8","190,224.54464031148183,236.63941125248294,258.4136863638346,267.58693263988795,275.4605369908452,277.2292724955127,291.0712806449782","8,7,6,5,4,3,2,1","WHEAT CROP,WHEAT CROP,WHEAT CROP,WHEAT CROP,WHEAT CROP,WHEAT CROP,WHEAT CROP,WHEAT CROP","180,130,94.98316100215136,108.7342553023051,109.37419770009396,95.47102828422857,74.59161291290752,113.54503107048387","1,7,6,5,4,3,2,1","NETTLE WEED,THISTLE WEED,THISTLE WEED,THISTLE WEED,THISTLE WEED,THISTLE WEED,THISTLE WEED,THISTLE WEED","20,20,20,20,20,20,20,20","20,20,20,20,20,20,20,20","10,10,10,10,10,10,10,10","20,20,20,20,20,20,20,20","0,0,0,0,0,0,0,0","20,20,20,20,20,20,20,20","20,20,20,20,20,20,20,20","20,20,20,20,20,20,20,20","10,10,10,10,10,10,10,10","20,20,20,20,20,20,20,20","0,0,0,0,0,0,0,0","20,20,20,20,20,20,20,20","1,1,1,1,1,1,1,1","6629,15085,713,756,456,442,632,816","34.54464031148183,12.094770941001114,21.774275111351624,9.173246276053375,7.873604350957235,1.7687355046674922,13.842008149465492,-27.19645411864125","9.473847862670567,-35.01683899784864,13.751094300153738,0.6399423977888629,-13.9031694158654,-20.879415371321052,38.95341815757635,-4.017468216558895","0","0"
"683","86","text","0","129","2815671","0-0","","","","","","","","","","","","","","","","","","","","","","","","","","","","","","","","","","","","",""
"","","plant-game","0","130","2836819","0-0","","200","190","4","WHEAT CROP","Right","200","190","2","THISTLE WEED","experimental","52","1,2,3,4","190,229.95501941538816,180,195.54561431050345","2,1,2,1","THISTLE WEED,THISTLE WEED,NETTLE WEED,NETTLE WEED","190,202.57180329744244,182.16137482104216,203.19798442343472","4,3,2,1","WHEAT CROP,WHEAT CROP,WHEAT CROP,WHEAT CROP","0,0,0,0","20,20,20,20","10,10,10,10","20,20,20,20","20,20,20,20","20,20,20,20","0,0,0,0","20,20,20,20","10,10,10,10","20,20,20,20","20,20,20,20","20,20,20,20","1,1,1,1","5182,1243,7259,1770","39.95501941538817,33.41432022702223,15.54561431050345,57.432722844116256","12.571803297442452,-20.410428476400284,21.036609602392566,37.43584866347851","0","0"
"742","86","text","0","131","2837611","0-0","","","","","","","","","","","","","","","","","","","","","","","","","","","","","","","","","","","","",""
"","","plant-game","0","132","2863146","0-0","","200","160","4","CORN CROP","Left","200","180","8","THISTLE WEED","experimental","53","1,2,3,4,5,6,7,8","160,191.77969094985428,228.01227920879205,293.22245281512926,160,192.6764238604333,197.95896965673023,224.89497583245887","4,3,2,1,4,3,2,1","CORN CROP,CORN CROP,CORN CROP,CORN CROP,WHEAT CROP,WHEAT CROP,WHEAT CROP,WHEAT CROP","180,170.92709315067327,201.55989823021616,227.46491224315778,251.79786620942681,272.7493559747879,250.64609977520567,294.2947292093974","8,7,6,5,4,3,2,1","THISTLE WEED,THISTLE WEED,THISTLE WEED,THISTLE WEED,THISTLE WEED,THISTLE WEED,THISTLE WEED,THISTLE WEED","20,20,20,20,20,20,20,20","20,20,20,20,20,20,20,20","10,10,10,10,10,10,10,10","20,20,20,20,20,20,20,20","0,0,0,0,0,0,0,0","20,20,20,20,20,20,20,20","20,20,20,20,20,20,20,20","20,20,20,20,20,20,20,20","10,10,10,10,10,10,10,10","20,20,20,20,20,20,20,20","0,0,0,0,0,0,0,0","20,20,20,20,20,20,20,20","0,0,0,0,0,0,0,0","6142,624,854,687,9525,126,1194,755","31.77969094985429,36.23258825893777,65.21017360633721,25.1875414324141,32.67642386043328,5.2825457962969296,26.936006175728647,-0.5773977868063938","-9.072906849326735,30.63280507954289,25.905014012941628,24.332953966269038,20.95148976536107,-22.103256199582198,43.64862943419177,14.076353547946734","0","0"
"1488","86","text","0","133","2864694","0-0","","","","","","","","","","","","","","","","","","","","","","","","","","","","","","","","","","","","",""
"","","plant-game","0","134","2903804","0-0","","200","120","1","WHEAT CROP","Right","200","190","4","THISTLE WEED","experimental","54","1,2,3,4","190,234.89860380228924,247.80638845665422,275.4918103716923","4,3,2,1","THISTLE WEED,THISTLE WEED,THISTLE WEED,THISTLE WEED","120,170,208.5772809679467,226.92572516255657","1,3,2,1","WHEAT CROP,CORN CROP,CORN CROP,CORN CROP","0,0,0,0","20,20,20,20","10,10,10,10","20,20,20,20","20,20,20,20","20,20,20,20","0,0,0,0","20,20,20,20","10,10,10,10","20,20,20,20","20,20,20,20","20,20,20,20","1,1,1,1","20813,9141,1125,1414","44.89860380228925,12.907784654364965,27.685421915038077,25.846645493863477","-21.768954863865282,38.57728096794672,18.34844419460988,8.275872876210741","0","0"
"515","86","text","0","135","2904449","0-0","","","","","","","","","","","","","","","","","","","","","","","","","","","","","","","","","","","","",""
"","","plant-game","0","136","2962200","0-0","","200","120","2","CORN CROP","Right","200","190","4","NETTLE WEED","experimental","55","1,2,3,4","190,221.04440276946835,239.971118286107,272.1925596583753","4,3,2,1","NETTLE WEED,NETTLE WEED,NETTLE WEED,NETTLE WEED","120,158.01113191884943,180,217.91198889959622","2,1,2,1","CORN CROP,CORN CROP,WHEAT CROP,WHEAT CROP","0,0,0,0","20,20,20,20","10,10,10,10","20,20,20,20","20,20,20,20","20,20,20,20","0,0,0,0","20,20,20,20","10,10,10,10","20,20,20,20","20,20,20,20","20,20,20,20","1,1,1,1","39196,600,5148,1613","31.04440276946836,18.92671551663864,32.22144137226827,-30.978568217099294","38.011131918849436,10.31351603569686,37.91198889959621,25.280031254516317","2","0"
"584","86","text","0","137","2962884","0-0","","","","","","","","","","","","","","","","","","","","","","","","","","","","","","","","","","","","",""
"","","plant-game","0","138","3006584","0-0","","200","160","8","WHEAT CROP","Left","200","120","1","THISTLE WEED","experimental","56","1,2,3,4,5,6,7,8","160,164.53377124623518,174.57017679876782,204.74891432631972,225.53789881397623,208.38555958954925,212.19750831896727,198.024842788542","8,7,6,5,4,3,2,1","WHEAT CROP,WHEAT CROP,WHEAT CROP,WHEAT CROP,WHEAT CROP,WHEAT CROP,WHEAT CROP,WHEAT CROP","120,130,151.95560303900032,130.99708933835686,137.83871607024722,138.4000955739767,119.02754296661774,119.89138202137343","1,7,6,5,4,3,2,1","THISTLE WEED,NETTLE WEED,NETTLE WEED,NETTLE WEED,NETTLE WEED,NETTLE WEED,NETTLE WEED,NETTLE WEED","20,20,20,20,20,20,20,20","20,20,20,20,20,20,20,20","10,10,10,10,10,10,10,10","20,20,20,20,20,20,20,20","0,0,0,0,0,0,0,0","20,20,20,20,20,20,20,20","20,20,20,20,20,20,20,20","20,20,20,20,20,20,20,20","10,10,10,10,10,10,10,10","20,20,20,20,20,20,20,20","0,0,0,0,0,0,0,0","20,20,20,20,20,20,20,20","1,1,1,1,1,1,1,1","8197,24859,180,1330,776,482,749,426","4.533771246235184,10.036405552532635,30.178737527551895,20.78898448765651,-17.152339224426996,3.8119487294180217,-14.17266553042527,-29.27265881529432","-6.963459257142782,21.955603039000312,-20.958513700643458,6.841626731890353,0.5613795037294882,-19.372552607358948,0.8638390547556845,-8.990275831930173","0","0"
"290","86","text","0","139","3006944","0-0","","","","","","","","","","","","","","","","","","","","","","","","","","","","","","","","","","","","",""
"","","plant-game","0","140","3025483","0-0","","200","160","1","CORN CROP","Left","200","120","8","THISTLE WEED","experimental","57","1,2,3,4,5,6,7,8","160,130,115.65022810092233,97.91782766155883,97.22779308817547,111.4376061024314,99.85094565354021,86.77352269814703","1,7,6,5,4,3,2,1","CORN CROP,WHEAT CROP,WHEAT CROP,WHEAT CROP,WHEAT CROP,WHEAT CROP,WHEAT CROP,WHEAT CROP","120,171.013358971456,200.76762979534786,167.3546089848992,205.38242158163374,227.6784846822955,204.44193464630757,215.50792355871496","8,7,6,5,4,3,2,1","THISTLE WEED,THISTLE WEED,THISTLE WEED,THISTLE WEED,THISTLE WEED,THISTLE WEED,THISTLE WEED,THISTLE WEED","20,20,20,20,20,20,20,20","20,20,20,20,20,20,20,20","10,10,10,10,10,10,10,10","20,20,20,20,20,20,20,20","0,0,0,0,0,0,0,0","20,20,20,20,20,20,20,20","20,20,20,20,20,20,20,20","20,20,20,20,20,20,20,20","10,10,10,10,10,10,10,10","20,20,20,20,20,20,20,20","0,0,0,0,0,0,0,0","20,20,20,20,20,20,20,20","0,1,1,1,1,1,1,1","3937,4907,606,565,595,592,574,600","33.11818632977251,-14.349771899077673,-17.732400439363502,-0.6900345733833592,14.209813014255936,-11.586660448891202,-13.077422955393178,1.6502736424966047","51.013358971456015,29.754270823891854,-33.413020810448685,38.02781259673455,22.296063100661772,-23.236550035987943,11.065988912407397,-21.600314843005492","0","0"
"833","86","text","0","141","3026406","0-0","","","","","","","","","","","","","","","","","","","","","","","","","","","","","","","","","","","","",""
"","","plant-game","0","142","3042374","0-0","","200","120","2","CORN CROP","Right","200","190","2","NETTLE WEED","experimental","58","1,2","190,180.10079924172672","2,1","NETTLE WEED,NETTLE WEED","120,116.91896305926352","2,1","CORN CROP,CORN CROP","0,0","20,20","10,10","20,20","20,20","20,20","0,0","20,20","10,10","20,20","20,20","20,20","0,0","9098,973","-9.899200758273278,-7.369908185843768","-3.081036940736486,37.34027376427737","0","0"
"1366","86","text","0","143","3043818","0-0","","","","","","","","","","","","","","","","","","","","","","","","","","","","","","","","","","","","",""
"","","plant-game","0","144","3056702","0-0","","200","160","1","WHEAT CROP","Right","200","180","1","THISTLE WEED","experimental","59","1","180","1","THISTLE WEED","160","1","WHEAT CROP","0","20","10","20","20","20","0","20","10","20","20","20","1","8551","30.751094259817222","42.66805820121458","0","0"
"219","86","text","0","145","3057101","0-0","","","","","","","","","","","","","","","","","","","","","","","","","","","","","","","","","","","","",""
"","","plant-game","0","146","3067196","0-0","","200","180","1","WHEAT CROP","Left","200","120","1","THISTLE WEED","experimental","60","1","180","1","WHEAT CROP","120","1","THISTLE WEED","20","20","10","20","0","20","20","20","10","20","0","20","0","6012","38.307284713469556","35.22164831250551","0","0"
"1254","86","text","0","147","3068600","0-0","","","","","","","","","","","","","","","","","","","","","","","","","","","","","","","","","","","","",""
"","","plant-game","0","148","3100939","0-0","","200","120","8","CORN CROP","Right","200","180","2","THISTLE WEED","experimental","61","1,2,3,4,5,6,7,8","180,197.38779300838502,140,111.8808888336392,86.54494521841626,102.27817217589359,125.69484634720956,146.1405500375588","2,1,6,5,4,3,2,1","THISTLE WEED,THISTLE WEED,NETTLE WEED,NETTLE WEED,NETTLE WEED,NETTLE WEED,NETTLE WEED,NETTLE WEED","120,114.04087763603923,150.56968517823938,157.92115474184305,134.90186458962722,134.18162644762094,177.42854040682676,196.14524667327564","8,7,6,5,4,3,2,1","CORN CROP,CORN CROP,CORN CROP,CORN CROP,CORN CROP,CORN CROP,CORN CROP,CORN CROP","0,0,0,0,0,0,0,0","20,20,20,20,20,20,20,20","10,10,10,10,10,10,10,10","20,20,20,20,20,20,20,20","20,20,20,20,20,20,20,20","20,20,20,20,20,20,20,20","0,0,0,0,0,0,0,0","20,20,20,20,20,20,20,20","10,10,10,10,10,10,10,10","20,20,20,20,20,20,20,20","20,20,20,20,20,20,20,20","20,20,20,20,20,20,20,20","0,0,0,0,0,1,1,1","5810,0,14236,583,1158,2416,453,445","17.387793008385025,-17.088928554346086,-28.119111166360796,-25.33594361522294,15.733226957477324,23.416674171315968,20.445703690349223,28.97348678176829","-5.959122363960772,36.528807542200155,7.351469563603659,-23.01929015221583,-0.7202381420062813,43.24691395920581,18.716706266448877,28.383789660501144","0","0"
"535","86","text","0","149","3101574","0-0","","","","","","","","","","","","","","","","","","","","","","","","","","","","","","","","","","","","",""
"","","plant-game","0","150","3117284","0-0","","200","190","1","CORN CROP","Left","200","190","1","NETTLE WEED","experimental","62","1","190","1","CORN CROP","190","1","NETTLE WEED","20","20","10","20","0","20","20","20","10","20","0","20","1","3500","-20.83603633690229","11.86689470125537","0","0"
"619","86","text","0","151","3118003","0-0","","","","","","","","","","","","","","","","","","","","","","","","","","","","","","","","","","","","",""
"","","plant-game","0","152","3139795","0-0","","200","180","2","CORN CROP","Right","200","190","4","NETTLE WEED","experimental","63","1,2,3,4","190,206.70363349455764,239.93966551616617,254.87750661498043","4,3,2,1","NETTLE WEED,NETTLE WEED,NETTLE WEED,NETTLE WEED","180,212.12604335393684,180,172.06742393902334","2,1,2,1","CORN CROP,CORN CROP,WHEAT CROP,WHEAT CROP","0,0,0,0","20,20,20,20","10,10,10,10","20,20,20,20","20,20,20,20","20,20,20,20","0,0,0,0","20,20,20,20","10,10,10,10","20,20,20,20","20,20,20,20","20,20,20,20","1,1,0,0","4756,835,7939,1494","16.703633494557636,33.236032021608544,14.937841098814268,-23.923330362893658","32.12604335393685,32.57980304194324,-7.93257606097665,10.73264653089242","0","0"
"189","86","text","0","153","3140144","0-0","","","","","","","","","","","","","","","","","","","","","","","","","","","","","","","","","","","","",""
"","","plant-game","0","154","3175216","0-0","","200","120","2","CORN CROP","Left","200","160","4","THISTLE WEED","experimental","64","1,2,3,4","120,145.597457270463,180,203.1982991827885","2,1,2,1","CORN CROP,CORN CROP,WHEAT CROP,WHEAT CROP","160,152.43059832914918,189.01815797607418,181.10392819804076","4,3,2,1","THISTLE WEED,THISTLE WEED,THISTLE WEED,THISTLE WEED","20,20,20,20","20,20,20,20","10,10,10,10","20,20,20,20","0,0,0,0","20,20,20,20","20,20,20,20","20,20,20,20","10,10,10,10","20,20,20,20","0,0,0,0","20,20,20,20","0,0,0,0","17453,625,7806,839","25.59745727046299,16.112229594472566,23.19829918278851,7.456179597409822","-7.569401670850809,36.58755964692499,-7.914229778033402,5.516913423156183","0","0"
"600","86","text","0","155","3175926","0-0","","","","","","","","","","","","","","","","","","","","","","","","","","","","","","","","","","","","",""
"","","plant-game","0","156","3206653","0-0","","200","120","1","CORN CROP","Left","200","160","8","THISTLE WEED","experimental","65","1,2,3,4,5,6,7,8","120,130,135.41595999380368,115.36542570490765,115.41629119679851,116.23240650688189,59.58761966975675,64.8837942111388","1,7,6,5,4,3,2,1","CORN CROP,WHEAT CROP,WHEAT CROP,WHEAT CROP,WHEAT CROP,WHEAT CROP,WHEAT CROP,WHEAT CROP","160,210.10447852606976,205.77625319362846,174.4574111083201,189.82101809936816,173.3974763814657,218.48606669149046,204.5562748999396","8,7,6,5,4,3,2,1","THISTLE WEED,THISTLE WEED,THISTLE WEED,THISTLE WEED,THISTLE WEED,THISTLE WEED,THISTLE WEED,THISTLE WEED","20,20,20,20,20,20,20,20","20,20,20,20,20,20,20,20","10,10,10,10,10,10,10,10","20,20,20,20,20,20,20,20","0,0,0,0,0,0,0,0","20,20,20,20,20,20,20,20","20,20,20,20,20,20,20,20","20,20,20,20,20,20,20,20","10,10,10,10,10,10,10,10","20,20,20,20,20,20,20,20","0,0,0,0,0,0,0,0","20,20,20,20,20,20,20,20","0,1,1,1,1,1,1,1","10469,6203,467,799,719,797,565,587","37.308253561189744,5.415959993803689,-20.050534288896035,0.05086549189085954,0.8161153100833789,-56.64478683712514,5.296174541382058,5.933849991793876","50.10447852606976,-4.328225332441305,-31.31884208530838,15.36360699104808,-16.423541717902456,45.08859031002476,-13.92979179155085,-7.340497291795167","0","0"
"1316","86","text","0","157","3208049","0-0","","","","","","","","","","","","","","","","","","","","","","","","","","","","","","","","","","","","",""
"","","plant-game","0","158","3271747","0-0","","200","160","4","CORN CROP","Left","200","160","2","NETTLE WEED","experimental","66","1,2,3,4","160,152.49428567766023,169.82297468343427,162.98578328655756","4,3,2,1","CORN CROP,CORN CROP,CORN CROP,CORN CROP","160,154.34063720187078,180,194.22112397887506","2,1,2,1","NETTLE WEED,NETTLE WEED,THISTLE WEED,THISTLE WEED","20,20,20,20","20,20,20,20","10,10,10,10","20,20,20,20","0,0,0,0","20,20,20,20","20,20,20,20","20,20,20,20","10,10,10,10","20,20,20,20","0,0,0,0","20,20,20,20","1,1,1,1","17892,435,37639,100","-7.50571432233976,17.328689005774027,-6.837191396876717,21.267739318482853","-5.659362798129219,-48.185279198769344,14.221123978875067,6.3639689229044","0","0"
"1198","86","text","0","159","3273078","0-0","","","","","","","","","","","","","","","","","","","","","","","","","","","","","","","","","","","","",""
"","","plant-game","0","160","3294001","0-0","","200","120","8","WHEAT CROP","Left","200","160","1","NETTLE WEED","experimental","67","1,2,3,4,5,6,7,8","120,141.45413158193787,178.95979319284226,183.95651490990008,232.50567423533948,295.2791016648538,310.31763363208796,309.29313749942287","8,7,6,5,4,3,2,1","WHEAT CROP,WHEAT CROP,WHEAT CROP,WHEAT CROP,WHEAT CROP,WHEAT CROP,WHEAT CROP,WHEAT CROP","160,130,160.8740854179114,181.59814645878828,210.12074609472148,238.25852849228534,248.02698674165035,312.4496082629289","1,7,6,5,4,3,2,1","NETTLE WEED,THISTLE WEED,THISTLE WEED,THISTLE WEED,THISTLE WEED,THISTLE WEED,THISTLE WEED,THISTLE WEED","20,20,20,20,20,20,20,20","20,20,20,20,20,20,20,20","10,10,10,10,10,10,10,10","20,20,20,20,20,20,20,20","0,0,0,0,0,0,0,0","20,20,20,20,20,20,20,20","20,20,20,20,20,20,20,20","20,20,20,20,20,20,20,20","10,10,10,10,10,10,10,10","20,20,20,20,20,20,20,20","0,0,0,0,0,0,0,0","20,20,20,20,20,20,20,20","1,0,0,0,0,0,0,0","8394,4593,265,370,562,534,388,208","21.454131581937872,37.50566161090438,4.996721717057824,48.54915932543942,62.7734274295143,15.038531967234192,-1.0244961326650994,23.135669154897073","18.632596925873596,30.874085417911395,20.72406104087689,28.52259963593321,28.137782397563868,9.768458249365018,64.42262152127859,-19.984655331373908","0","0"
"481","86","text","0","161","3294612","0-0","","","","","","","","","","","","","","","","","","","","","","","","","","","","","","","","","","","","",""
"","","plant-game","0","162","3349993","0-0","","200","190","1","CORN CROP","Left","200","180","8","NETTLE WEED","experimental","68","1,2,3,4,5,6,7,8","190,130,140.5588481723671,157.93700283885136,153.71855913605174,154.52897641069546,160.13230467437558,187.17773911779153","1,7,6,5,4,3,2,1","CORN CROP,WHEAT CROP,WHEAT CROP,WHEAT CROP,WHEAT CROP,WHEAT CROP,WHEAT CROP,WHEAT CROP","180,208.56273484504766,228.5910215400911,237.18283018333284,253.77583051507304,282.969598589528,284.65777534872916,265.6846059451209","8,7,6,5,4,3,2,1","NETTLE WEED,NETTLE WEED,NETTLE WEED,NETTLE WEED,NETTLE WEED,NETTLE WEED,NETTLE WEED,NETTLE WEED","20,20,20,20,20,20,20,20","20,20,20,20,20,20,20,20","10,10,10,10,10,10,10,10","20,20,20,20,20,20,20,20","0,0,0,0,0,0,0,0","20,20,20,20,20,20,20,20","20,20,20,20,20,20,20,20","20,20,20,20,20,20,20,20","10,10,10,10,10,10,10,10","20,20,20,20,20,20,20,20","0,0,0,0,0,0,0,0","20,20,20,20,20,20,20,20","0,1,1,0,0,1,1,1","10006,34785,388,1298,375,806,301,141","40.96412098508503,10.55884817236712,17.378154666484253,-4.218443702799632,0.8104172746437115,5.603328263680105,27.045434443415957,-7.969828237652563","28.562734845047643,20.028286695043445,8.591808643241723,16.59300033174021,29.19376807445496,1.68817675920114,-18.97316940360824,-12.32396992081718","0","0"
"707","86","text","0","163","3350825","0-0","","","","","","","","","","","","","","","","","","","","","","","","","","","","","","","","","","","","",""
"","","plant-game","0","164","3386383","0-0","","200","190","8","CORN CROP","Left","200","120","2","NETTLE WEED","experimental","69","1,2,3,4,5,6,7,8","190,196.7359205051227,201.1552627492464,256.70433898406054,273.0720685235577,255.87890028888964,264.88587545976173,259.2244867665749","8,7,6,5,4,3,2,1","CORN CROP,CORN CROP,CORN CROP,CORN CROP,CORN CROP,CORN CROP,CORN CROP,CORN CROP","120,75.74946461632626,140,164.12322161447878,196.1997723667422,173.10730077746192,160.0404709755944,127.80352238801379","2,1,6,5,4,3,2,1","NETTLE WEED,NETTLE WEED,THISTLE WEED,THISTLE WEED,THISTLE WEED,THISTLE WEED,THISTLE WEED,THISTLE WEED","20,20,20,20,20,20,20,20","20,20,20,20,20,20,20,20","10,10,10,10,10,10,10,10","20,20,20,20,20,20,20,20","0,0,0,0,0,0,0,0","20,20,20,20,20,20,20,20","20,20,20,20,20,20,20,20","20,20,20,20,20,20,20,20","10,10,10,10,10,10,10,10","20,20,20,20,20,20,20,20","0,0,0,0,0,0,0,0","20,20,20,20,20,20,20,20","1,1,0,0,1,1,1,1","12702,571,7588,133,2794,758,1098,1335","6.735920505122703,4.41934224412369,55.549076234814166,16.367729539497127,-17.193168234668043,9.006975170872108,-5.6613886931868524,1.5586059790967872","-44.25053538367373,13.929352676076283,24.123221614478794,32.07655075226341,-23.092471589280276,-13.066829801867527,-32.236948587580606,-24.681998409445743","0","0"
"1089","86","text","0","165","3387612","0-0","","","","","","","","","","","","","","","","","","","","","","","","","","","","","","","","","","","","",""
"","","plant-game","0","166","3425240","0-0","","200","120","4","WHEAT CROP","Right","200","160","2","THISTLE WEED","experimental","70","1,2,3,4","160,159.1993933800842,180,189.90912772748013","2,1,2,1","THISTLE WEED,THISTLE WEED,NETTLE WEED,NETTLE WEED","120,128.20381077362197,134.5483964143725,138.04636029471777","4,3,2,1","WHEAT CROP,WHEAT CROP,WHEAT CROP,WHEAT CROP","0,0,0,0","20,20,20,20","10,10,10,10","20,20,20,20","20,20,20,20","20,20,20,20","0,0,0,0","20,20,20,20","10,10,10,10","20,20,20,20","20,20,20,20","20,20,20,20","0,0,0,0","15511,900,14353,508","-0.8006066199158037,-22.90257996962977,9.909127727480136,-16.964568071996123","8.203810773621958,6.34458564075051,3.497963880345274,-21.59955709211129","0","0"
"581","86","text","0","167","3425961","0-0","","","","","","","","","","","","","","","","","","","","","","","","","","","","","","","","","","","","",""
"","","plant-game","0","168","3441438","0-0","","200","180","8","WHEAT CROP","Left","200","190","8","NETTLE WEED","experimental","71","1,2,3,4,5,6,7,8","180,193.35216224744684,232.24915690464744,200.9610497431965,189.44949544169663,183.0879580335388,201.57601477064995,201.85878021402715","8,7,6,5,4,3,2,1","WHEAT CROP,WHEAT CROP,WHEAT CROP,WHEAT CROP,WHEAT CROP,WHEAT CROP,WHEAT CROP,WHEAT CROP","190,181.50287543810686,215.38018647140035,228.16128491289555,221.7842239053698,227.8674895296411,243.19130147467683,234.66372997246657","8,7,6,5,4,3,2,1","NETTLE WEED,NETTLE WEED,NETTLE WEED,NETTLE WEED,NETTLE WEED,NETTLE WEED,NETTLE WEED,NETTLE WEED","20,20,20,20,20,20,20,20","20,20,20,20,20,20,20,20","10,10,10,10,10,10,10,10","20,20,20,20,20,20,20,20","0,0,0,0,0,0,0,0","20,20,20,20,20,20,20,20","20,20,20,20,20,20,20,20","20,20,20,20,20,20,20,20","10,10,10,10,10,10,10,10","20,20,20,20,20,20,20,20","0,0,0,0,0,0,0,0","20,20,20,20,20,20,20,20","1,1,1,1,1,1,1,1","6351,495,582,599,614,495,1069,672","13.352162247446834,38.8969946572006,-31.28810716145095,-11.511554301499876,-6.361537408157838,18.48805673711114,0.28276544337718945,6.012576178387866","-8.497124561893134,33.87731103329348,12.781098441495198,-6.377061007525747,6.083265624271296,15.323811945035743,-8.527571502210261,-0.6901332902779044","0","0"
"689","86","text","0","169","3442207","0-0","","","","","","","","","","","","","","","","","","","","","","","","","","","","","","","","","","","","",""
"","","plant-game","0","170","3455186","0-0","","200","180","8","WHEAT CROP","Right","200","180","8","THISTLE WEED","experimental","72","1,2,3,4,5,6,7,8","180,179.25523420224619,191.3212066394937,188.63770068331868,213.0534033445407,207.17678948828117,220.82536871638956,178.82734883644986","8,7,6,5,4,3,2,1","THISTLE WEED,THISTLE WEED,THISTLE WEED,THISTLE WEED,THISTLE WEED,THISTLE WEED,THISTLE WEED,THISTLE WEED","180,155.011901496102,126.61350029226972,122.37441248705146,157.5762341564536,177.77623763270057,199.11039990185617,200.0042325014862","8,7,6,5,4,3,2,1","WHEAT CROP,WHEAT CROP,WHEAT CROP,WHEAT CROP,WHEAT CROP,WHEAT CROP,WHEAT CROP,WHEAT CROP","0,0,0,0,0,0,0,0","20,20,20,20,20,20,20,20","10,10,10,10,10,10,10,10","20,20,20,20,20,20,20,20","20,20,20,20,20,20,20,20","20,20,20,20,20,20,20,20","0,0,0,0,0,0,0,0","20,20,20,20,20,20,20,20","10,10,10,10,10,10,10,10","20,20,20,20,20,20,20,20","20,20,20,20,20,20,20,20","20,20,20,20,20,20,20,20","0,0,0,0,0,0,0,0","2589,1615,567,368,914,423,417,490","-0.7447657977538141,12.065972437247536,-2.683505956175036,24.41570266122202,-5.876613856259516,13.6485792281084,-41.998019879939704,14.025907275885842","-24.988098503897994,-28.3984012038323,-4.239087805218265,35.20182166940216,20.200003476246962,21.3341622691556,0.8938325996300183,-3.0077669102437143","0","0"
"287","86","text","0","171","3455633","0-0","","","","","","","","","","","","","","","","","","","","","","","","","","","","","","","","","","","","",""
"","","plant-game","0","172","3473406","0-0","","200","160","8","CORN CROP","Right","200","180","8","NETTLE WEED","experimental","73","1,2,3,4,5,6,7,8","180,183.9751788453342,185.78597497673243,222.8637795548299,237.48663742717497,227.30032037557575,258.7662546533995,237.54797282743831","8,7,6,5,4,3,2,1","NETTLE WEED,NETTLE WEED,NETTLE WEED,NETTLE WEED,NETTLE WEED,NETTLE WEED,NETTLE WEED,NETTLE WEED","160,178.7833499316425,155.9190759607339,179.13944306274945,181.22193427902656,158.9478310545225,168.17361525629667,167.60964484464563","8,7,6,5,4,3,2,1","CORN CROP,CORN CROP,CORN CROP,CORN CROP,CORN CROP,CORN CROP,CORN CROP,CORN CROP","0,0,0,0,0,0,0,0","20,20,20,20,20,20,20,20","10,10,10,10,10,10,10,10","20,20,20,20,20,20,20,20","20,20,20,20,20,20,20,20","20,20,20,20,20,20,20,20","0,0,0,0,0,0,0,0","20,20,20,20,20,20,20,20","10,10,10,10,10,10,10,10","20,20,20,20,20,20,20,20","20,20,20,20,20,20,20,20","20,20,20,20,20,20,20,20","1,1,1,1,0,0,0,0","7676,362,391,594,2260,153,137,857","3.9751788453342094,1.8107961313982344,37.077804578097464,14.622857872345062,-10.186317051599227,31.46593427782375,-21.218281825961206,18.162162009605215","18.7833499316425,-22.864273970908627,23.22036710201555,2.0824912162770985,-22.27410322450406,9.225784201774154,-0.563970411651039,-26.98821887541237","0","0"
"587","86","text","0","173","3474123","0-0","","","","","","","","","","","","","","","","","","","","","","","","","","","","","","","","","","","","",""
"","","plant-game","0","174","3500059","0-0","","200","180","8","WHEAT CROP","Left","200","160","2","THISTLE WEED","experimental","74","1,2,3,4,5,6,7,8","180,188.77263564318002,223.2711778474454,279.41776754064284,291.05740784241755,297.59825757831237,323.49969715139844,338.0862507188507","8,7,6,5,4,3,2,1","WHEAT CROP,WHEAT CROP,WHEAT CROP,WHEAT CROP,WHEAT CROP,WHEAT CROP,WHEAT CROP,WHEAT CROP","160,161.02130601294948,140,175.62707196294463,167.65698489489432,197.63922743672092,228.15215869625544,264.6289920801084","2,1,6,5,4,3,2,1","THISTLE WEED,THISTLE WEED,NETTLE WEED,NETTLE WEED,NETTLE WEED,NETTLE WEED,NETTLE WEED,NETTLE WEED","20,20,20,20,20,20,20,20","20,20,20,20,20,20,20,20","10,10,10,10,10,10,10,10","20,20,20,20,20,20,20,20","0,0,0,0,0,0,0,0","20,20,20,20,20,20,20,20","20,20,20,20,20,20,20,20","20,20,20,20,20,20,20,20","10,10,10,10,10,10,10,10","20,20,20,20,20,20,20,20","0,0,0,0,0,0,0,0","20,20,20,20,20,20,20,20","1,1,0,0,0,0,0,0","7584,191,5934,968,495,757,464,285","8.772635643180028,34.49854220426537,56.146589693197456,11.639640301774685,6.540849735894838,25.901439573086083,14.586553567452281,21.268404753716013","1.0213060129494893,-17.319284015428895,35.62707196294462,-7.970087068050301,29.982242541826594,30.512931259534525,36.47683338385295,31.71358932269183","0","0"
"519","86","text","0","175","3500723","0-0","","","","","","","","","","","","","","","","","","","","","","","","","","","","","","","","","","","","",""
"","","plant-game","0","176","3528371","0-0","","200","190","2","WHEAT CROP","Left","200","190","4","THISTLE WEED","experimental","75","1,2,3,4","190,217.19413472800798,180,185.5992684980788","2,1,2,1","WHEAT CROP,WHEAT CROP,CORN CROP,CORN CROP","190,209.1447667056326,251.09974538105703,230.60216068766175","4,3,2,1","THISTLE WEED,THISTLE WEED,THISTLE WEED,THISTLE WEED","20,20,20,20","20,20,20,20","10,10,10,10","20,20,20,20","0,0,0,0","20,20,20,20","20,20,20,20","20,20,20,20","10,10,10,10","20,20,20,20","0,0,0,0","20,20,20,20","0,0,1,1","12637,1586,7023,465","27.19413472800797,9.494029507980182,5.599268498078798,16.255468180628014","19.144766705632613,41.954978675424435,-20.49758469339528,18.145877009435537","0","0"
"433","86","text","0","177","3528919","0-0","","","","","","","","","","","","","","","","","","","","","","","","","","","","","","","","","","","","",""
"","","plant-game","0","178","3539945","0-0","","200","190","4","CORN CROP","Right","200","120","4","NETTLE WEED","experimental","76","1,2,3,4","120,136.82097699833992,105.22301338448555,172.80499785158426","4,3,2,1","NETTLE WEED,NETTLE WEED,NETTLE WEED,NETTLE WEED","190,206.5396398917983,238.9859003739371,252.1228094404626","4,3,2,1","CORN CROP,CORN CROP,CORN CROP,CORN CROP","0,0,0,0","20,20,20,20","10,10,10,10","20,20,20,20","20,20,20,20","20,20,20,20","0,0,0,0","20,20,20,20","10,10,10,10","20,20,20,20","20,20,20,20","20,20,20,20","1,1,1,1","5262,833,563,827","16.82097699833992,-31.59796361385436,67.5819844670987,18.438456406696638","16.539639891798277,32.44626048213881,13.136909066525481,40.597091875095444","0","0"
"644","86","text","0","179","3540659","0-0","","","","","","","","","","","","","","","","","","","","","","","","","","","","","","","","","","","","",""
"","","plant-game","0","180","3659497","0-0","","200","190","2","WHEAT CROP","Right","200","190","1","THISTLE WEED","experimental","77","1,2","190,190","1,1","THISTLE WEED,NETTLE WEED","190,169.62875480096363","2,1","WHEAT CROP,WHEAT CROP","0,0","20,20","10,10","20,20","20,20","20,20","0,0","20,20","10,10","20,20","20,20","20,20","0,0","5645,107145","-6.6026359034491175,12.894868241890302","-20.37124519903636,27.318275042757413","0","0"
"231","86","text","0","181","3659886","0-0","","","","","","","","","","","","","","","","","","","","","","","","","","","","","","","","","","","","",""
"","","plant-game","0","182","3679598","0-0","","200","120","4","CORN CROP","Right","200","190","8","NETTLE WEED","experimental","78","1,2,3,4,5,6,7,8","190,206.35624346501353,255.77424777090252,269.10189868970514,255.67073226499974,256.8046905500254,225.42884366274205,224.10384739645545","8,7,6,5,4,3,2,1","NETTLE WEED,NETTLE WEED,NETTLE WEED,NETTLE WEED,NETTLE WEED,NETTLE WEED,NETTLE WEED,NETTLE WEED","120,114.95945861992719,109.97370566670918,90.97690750850313,160,139.6195315793198,147.13832476019252,117.68593823788923","4,3,2,1,4,3,2,1","CORN CROP,CORN CROP,CORN CROP,CORN CROP,WHEAT CROP,WHEAT CROP,WHEAT CROP,WHEAT CROP","0,0,0,0,0,0,0,0","20,20,20,20,20,20,20,20","10,10,10,10,10,10,10,10","20,20,20,20,20,20,20,20","20,20,20,20,20,20,20,20","20,20,20,20,20,20,20,20","0,0,0,0,0,0,0,0","20,20,20,20,20,20,20,20","10,10,10,10,10,10,10,10","20,20,20,20,20,20,20,20","20,20,20,20,20,20,20,20","20,20,20,20,20,20,20,20","1,1,1,1,0,0,0,0","4711,96,184,1543,5992,407,360,353","16.356243465013538,49.418004305888985,13.327650918802641,-13.431166424705395,1.1339582850256391,-31.375846887283338,-1.324996266286618,28.489448106408698","-5.04054138007281,-4.985752953218011,-18.996798158206055,52.15839373714574,-20.3804684206802,7.518793180872704,-29.452386522303282,-45.71764293966971","0","0"
"403","86","text","0","183","3680091","0-0","","","","","","","","","","","","","","","","","","","","","","","","","","","","","","","","","","","","",""
"","","plant-game","0","184","3707885","0-0","","200","190","1","CORN CROP","Right","200","160","2","THISTLE WEED","experimental","79","1,2","160,184.36700771998946","2,1","THISTLE WEED,THISTLE WEED","190,190","1,1","CORN CROP,WHEAT CROP","0,0","20,20","10,10","20,20","20,20","20,20","0,0","20,20","10,10","20,20","20,20","20,20","1,1","8237,13048","24.36700771998945,-3.787488157882578","2.436224823526981,56.63213191579047","0","0"
"1080","86","text","0","185","3709115","0-0","","","","","","","","","","","","","","","","","","","","","","","","","","","","","","","","","","","","",""
"","","plant-game","0","186","3740717","0-0","","200","120","8","WHEAT CROP","Left","200","120","4","NETTLE WEED","experimental","80","1,2,3,4,5,6,7,8","120,136.14619447895595,125.54657834813757,139.65190578051698,113.73141922729138,133.1253466614862,134.20869424403352,138.39498643627246","8,7,6,5,4,3,2,1","WHEAT CROP,WHEAT CROP,WHEAT CROP,WHEAT CROP,WHEAT CROP,WHEAT CROP,WHEAT CROP,WHEAT CROP","120,97.03201283665618,123.3875273433473,118.40786868588103,160,197.1922393651892,215.05019177772252,223.05423034356207","4,3,2,1,4,3,2,1","NETTLE WEED,NETTLE WEED,NETTLE WEED,NETTLE WEED,THISTLE WEED,THISTLE WEED,THISTLE WEED,THISTLE WEED","20,20,20,20,20,20,20,20","20,20,20,20,20,20,20,20","10,10,10,10,10,10,10,10","20,20,20,20,20,20,20,20","0,0,0,0,0,0,0,0","20,20,20,20,20,20,20,20","20,20,20,20,20,20,20,20","20,20,20,20,20,20,20,20","10,10,10,10,10,10,10,10","20,20,20,20,20,20,20,20","0,0,0,0,0,0,0,0","20,20,20,20,20,20,20,20","1,1,1,1,0,0,0,0","14694,406,422,400,9078,315,403,95","16.146194478955945,-10.599616130818381,14.105327432379424,-25.9204865532256,19.3939274341948,1.0833475825473293,4.18629219223895,33.889571805873274","-22.967987163343825,26.355514506691126,-4.97965865746628,2.208807198517197,37.1922393651892,17.85795241253332,8.004038565839547,19.16620346231408","0","0"
"4741","86","text","0","187","3745598","0-0","","","","","","","","","","","","","","","","","","","","","","","","","","","","","","","","","","","","",""
"","","plant-game","0","188","3764309","0-0","","200","180","2","WHEAT CROP","Right","200","160","2","THISTLE WEED","experimental","81","1,2","160,143.86860905394457","2,1","THISTLE WEED,THISTLE WEED","180,202.22606948335584","2,1","WHEAT CROP,WHEAT CROP","0,0","20,20","10,10","20,20","20,20","20,20","0,0","20,20","10,10","20,20","20,20","20,20","1,1","14055,876","-16.13139094605542,7.720699871231822","22.22606948335583,52.46314014774388","0","0"
"586","86","text","0","189","3764966","0-0","","","","","","","","","","","","","","","","","","","","","","","","","","","","","","","","","","","","",""
