"rt","key_press","trial_type","trial_index","trial_index_global","time_elapsed","internal_chunk_id","responses","experimental_goal_height","experimental_start_height","experimental_weeks_total","experimental_crop_type","experimental_crop_side","fixed_goal_height","fixed_start_height","fixed_weeks_total","fixed_crop_type","trial_kind","trial_number","stage","left_current_height","left_weeks_remaining","left_crop_type","right_current_height","right_weeks_remaining","right_crop_type","mean_left_growth_given_left","sd_left_growth_given_left","mean_left_growth_given_middle","sd_left_growth_given_middle","mean_left_growth_given_right","sd_left_growth_given_right","mean_right_growth_given_left","sd_right_growth_given_left","mean_right_growth_given_middle","sd_right_growth_given_middle","mean_right_growth_given_right","sd_right_growth_given_right","response","response_time","left_growth","right_growth","other_key_pressed","mouse_clicked"
"4948759","87","text","0","0","4948839","0-0","","","","","","","","","","","","","","","","","","","","","","","","","","","","","","","","","","","","",""
"5728","","survey-text","0","1","4955583","0-0","{""Q0"":""19""}","","","","","","","","","","","","","","","","","","","","","","","","","","","","","","","","","","","",""
"3890","86","text","0","2","3999","0-0","","","","","","","","","","","","","","","","","","","","","","","","","","","","","","","","","","","","",""
"","","plant-game","0","3","117038","0-0","","200","120","8","CORN CROP","Right","200","120","8","THISTLE WEED","practice","1","1,2,3,4,5,6,7,8","120,145.41323547665317,118.16025571951249,148.17867868781133,180.9641013225601,166.5335065711113,148.5010268398967,153.4460437061452","8,7,6,5,4,3,2,1","THISTLE WEED,THISTLE WEED,THISTLE WEED,THISTLE WEED,THISTLE WEED,THISTLE WEED,THISTLE WEED,THISTLE WEED","120,127.77170314374465,85.4379191118912,120.31668789453762,151.5252097955557,185.4748744851119,208.04827384623204,221.02334563381555","8,7,6,5,4,3,2,1","CORN CROP,CORN CROP,CORN CROP,CORN CROP,CORN CROP,CORN CROP,CORN CROP,CORN CROP","0,0,0,0,0,0,0,0","20,20,20,20,20,20,20,20","10,10,10,10,10,10,10,10","20,20,20,20,20,20,20,20","20,20,20,20,20,20,20,20","20,20,20,20,20,20,20,20","0,0,0,0,0,0,0,0","20,20,20,20,20,20,20,20","10,10,10,10,10,10,10,10","20,20,20,20,20,20,20,20","20,20,20,20,20,20,20,20","20,20,20,20,20,20,20,20","1,0,1,1,0,0,0,0","13387,24886,7811,7401,4567,11299,3365,3163","25.413235476653163,-27.25297975714068,30.01842296829882,32.78542263474877,-14.430594751448812,-18.03247973121461,4.945016866248504,-20.650824582078343","7.771703143744645,-42.33378403185344,34.87876878264642,31.208521901018084,33.949664689556215,22.573399361120128,12.975071787583513,9.786057718559908","0","0"
"967","86","text","0","4","118083","0-0","","","","","","","","","","","","","","","","","","","","","","","","","","","","","","","","","","","","",""
"","","plant-game","0","5","148571","0-0","","200","160","4","WHEAT CROP","Right","200","160","4","THISTLE WEED","practice","2","1,2,3,4","160,146.10630559101995,162.41622717259096,149.10040589608553","4,3,2,1","THISTLE WEED,THISTLE WEED,THISTLE WEED,THISTLE WEED","160,180.6165670471637,168.00082115411874,166.17452197830727","4,3,2,1","WHEAT CROP,WHEAT CROP,WHEAT CROP,WHEAT CROP","0,0,0,0","20,20,20,20","10,10,10,10","20,20,20,20","20,20,20,20","20,20,20,20","0,0,0,0","20,20,20,20","10,10,10,10","20,20,20,20","20,20,20,20","20,20,20,20","0,0,0,1","1397,2832,1130,4435","-13.89369440898006,16.30992158157101,-13.315821276505446,42.0733824704464","20.616567047163713,-12.615745893044952,-1.8262991758114657,53.20752130872446","0","0"
"633","86","text","0","6","149314","0-0","","","","","","","","","","","","","","","","","","","","","","","","","","","","","","","","","","","","",""
"","","plant-game","0","7","185531","0-0","","200","180","2","CORN CROP","Left","200","180","2","NETTLE WEED","practice","3","1,2","180,171.45644579817662","2,1","CORN CROP,CORN CROP","180,183.9222523390366","2,1","NETTLE WEED,NETTLE WEED","20,20","20,20","10,10","20,20","0,0","20,20","20,20","20,20","10,10","20,20","0,0","20,20","1,0","1786,4661","-8.543554201823373,4.498655576084431","3.9222523390365795,15.24052828289967","0","0"
"895","86","text","0","8","186520","0-0","","","","","","","","","","","","","","","","","","","","","","","","","","","","","","","","","","","","",""
"","","plant-game","0","9","209331","0-0","","200","190","1","CORN CROP","Left","200","190","1","NETTLE WEED","practice","4","1","190","1","CORN CROP","190","1","NETTLE WEED","20","20","10","20","0","20","20","20","10","20","0","20","1","11566","-22.0098416095152","-24.013158632058666","0","0"
"503","86","text","0","10","209975","0-0","","","","","","","","","","","","","","","","","","","","","","","","","","","","","","","","","","","","",""
"","","plant-game","0","11","262806","0-0","","200","120","8","CORN CROP","Left","200","160","8","NETTLE WEED","practice","5","1,2,3,4,5,6,7,8","120,122.82797257871327,84.44125257273859,140.78277540606277,203.3533988963247,259.7741402506145,272.7678812446597,275.3951962291861","8,7,6,5,4,3,2,1","CORN CROP,CORN CROP,CORN CROP,CORN CROP,CORN CROP,CORN CROP,CORN CROP,CORN CROP","160,150.0637329538924,145.19089376394479,196.03144666712586,212.76763635947248,251.3160883985825,232.52449421701579,230.72867351399137","8,7,6,5,4,3,2,1","NETTLE WEED,NETTLE WEED,NETTLE WEED,NETTLE WEED,NETTLE WEED,NETTLE WEED,NETTLE WEED,NETTLE WEED","20,20,20,20,20,20,20,20","20,20,20,20,20,20,20,20","10,10,10,10,10,10,10,10","20,20,20,20,20,20,20,20","0,0,0,0,0,0,0,0","20,20,20,20,20,20,20,20","20,20,20,20,20,20,20,20","20,20,20,20,20,20,20,20","10,10,10,10,10,10,10,10","20,20,20,20,20,20,20,20","0,0,0,0,0,0,0,0","20,20,20,20,20,20,20,20","1,1,0,1,1,1,1,1","22135,4252,2679,1318,2101,3503,1446,781","2.8279725787132746,-38.38672000597469,56.341522833324184,62.57062349026194,56.42074135428977,12.993740994045183,2.6273149845264623,-12.328798694210148","-9.936267046107588,-4.872839189947621,50.84055290318106,16.736189692346613,38.54845203911004,-18.791594181566712,-1.7958207030244113,-26.624474067039124","0","0"
"770","86","text","0","12","263716","0-0","","","","","","","","","","","","","","","","","","","","","","","","","","","","","","","","","","","","",""
"","","plant-game","0","13","310329","0-0","","200","180","4","CORN CROP","Left","200","160","4","THISTLE WEED","practice","6","1,2,3,4","180,168.91929320119482,165.13492289110516,201.86259254266298","4,3,2,1","CORN CROP,CORN CROP,CORN CROP,CORN CROP","160,127.39893222241489,151.23024159022694,220.51195762291442","4,3,2,1","THISTLE WEED,THISTLE WEED,THISTLE WEED,THISTLE WEED","20,20,20,20","20,20,20,20","10,10,10,10","20,20,20,20","0,0,0,0","20,20,20,20","20,20,20,20","20,20,20,20","10,10,10,10","20,20,20,20","0,0,0,0","20,20,20,20","1,1,0,1","27157,2979,2859,4734","-11.080706798805178,-3.7843703100896637,36.727669651557804,16.04101007788139","-32.60106777758511,23.831309367812047,69.28171603268748,-2.803228830380875","0","0"
"620","86","text","0","14","311149","0-0","","","","","","","","","","","","","","","","","","","","","","","","","","","","","","","","","","","","",""
"","","plant-game","0","15","340359","0-0","","200","180","2","CORN CROP","Left","200","190","2","THISTLE WEED","practice","7","1,2","180,231.84321063948047","2,1","CORN CROP,CORN CROP","190,176.8527159407067","2,1","THISTLE WEED,THISTLE WEED","20,20","20,20","10,10","20,20","0,0","20,20","20,20","20,20","10,10","20,20","0,0","20,20","0,1","12800,7331","51.84321063948047,18.39338690425993","-13.147284059293298,-16.725101893577396","0","0"
"1183","86","text","0","16","341652","0-0","","","","","","","","","","","","","","","","","","","","","","","","","","","","","","","","","","","","",""
"","","plant-game","0","17","403243","0-0","","200","120","4","WHEAT CROP","Left","200","120","8","THISTLE WEED","practice","8","1,2,3,4,5,6,7,8","120,121.44261973238801,151.45402915755056,164.76941280811752,160,128.20641980575863,116.02623913842991,122.76378413678776","4,3,2,1,4,3,2,1","WHEAT CROP,WHEAT CROP,WHEAT CROP,WHEAT CROP,CORN CROP,CORN CROP,CORN CROP,CORN CROP","120,134.74575785183032,147.98686557812513,173.46153739639465,184.00973915715136,205.57553045521902,162.64347778946046,170.45811670691484","8,7,6,5,4,3,2,1","THISTLE WEED,THISTLE WEED,THISTLE WEED,THISTLE WEED,THISTLE WEED,THISTLE WEED,THISTLE WEED,THISTLE WEED","20,20,20,20,20,20,20,20","20,20,20,20,20,20,20,20","10,10,10,10,10,10,10,10","20,20,20,20,20,20,20,20","0,0,0,0,0,0,0,0","20,20,20,20,20,20,20,20","20,20,20,20,20,20,20,20","20,20,20,20,20,20,20,20","10,10,10,10,10,10,10,10","20,20,20,20,20,20,20,20","0,0,0,0,0,0,0,0","20,20,20,20,20,20,20,20","1,1,0,0,1,1,0,0","16068,1223,2071,1669,11097,2492,2744,770","1.4426197323880086,30.011409425162544,13.315383650566947,1.7037670754066738,-31.79358019424138,-12.180180667328713,6.7375449983578495,23.143037094102176","14.745757851830314,13.241107726294812,25.474671818269506,10.548201760756706,21.565791298067666,-42.93205266575857,7.814638917454367,56.063761637576434","0","0"
"512","86","text","0","18","403869","0-0","","","","","","","","","","","","","","","","","","","","","","","","","","","","","","","","","","","","",""
"","","plant-game","0","19","445361","0-0","","200","160","4","WHEAT CROP","Left","200","160","2","NETTLE WEED","practice","9","1,2,3,4","160,118.30338959554345,142.77693203189202,146.2918010835186","4,3,2,1","WHEAT CROP,WHEAT CROP,WHEAT CROP,WHEAT CROP","160,151.53655680359645,180,186.13941555653759","2,1,2,1","NETTLE WEED,NETTLE WEED,THISTLE WEED,THISTLE WEED","20,20,20,20","20,20,20,20","10,10,10,10","20,20,20,20","0,0,0,0","20,20,20,20","20,20,20,20","20,20,20,20","10,10,10,10","20,20,20,20","0,0,0,0","20,20,20,20","1,1,1,0","16248,2081,2960,2406","-41.69661040445655,24.473542436348573,3.514869051626599,-3.61058406410136","-8.463443196403531,6.131418331971794,6.139415556537596,16.07248327976556","0","0"
"483","86","text","0","20","445944","0-0","","","","","","","","","","","","","","","","","","","","","","","","","","","","","","","","","","","","",""
"","","plant-game","0","21","483027","0-0","","200","180","2","WHEAT CROP","Right","200","180","1","NETTLE WEED","practice","10","1,2","180,190","1,1","NETTLE WEED,THISTLE WEED","180,173.00597602010205","2,1","WHEAT CROP,WHEAT CROP","0,0","20,20","10,10","20,20","20,20","20,20","0,0","20,20","10,10","20,20","20,20","20,20","0,0","7565,4146","25.650414754404814,5.907762585975239","-6.994023979897945,9.640060438302747","0","0"
"516","86","text","0","22","483673","0-0","","","","","","","","","","","","","","","","","","","","","","","","","","","","","","","","","","","","",""
"","","plant-game","0","23","537512","0-0","","200","120","8","CORN CROP","Left","200","160","4","THISTLE WEED","practice","11","1,2,3,4,5,6,7,8","120,130.15573804831206,150.94646220349404,186.99309738526398,180.23350583234762,216.15544250686858,248.7649587710897,210.9374020201625","8,7,6,5,4,3,2,1","CORN CROP,CORN CROP,CORN CROP,CORN CROP,CORN CROP,CORN CROP,CORN CROP,CORN CROP","160,170.2491494913589,209.55836785215823,184.65590017672622,160,173.90159559071645,157.8278714115099,166.75808777266352","4,3,2,1,4,3,2,1","THISTLE WEED,THISTLE WEED,THISTLE WEED,THISTLE WEED,NETTLE WEED,NETTLE WEED,NETTLE WEED,NETTLE WEED","20,20,20,20,20,20,20,20","20,20,20,20,20,20,20,20","10,10,10,10,10,10,10,10","20,20,20,20,20,20,20,20","0,0,0,0,0,0,0,0","20,20,20,20,20,20,20,20","20,20,20,20,20,20,20,20","20,20,20,20,20,20,20,20","10,10,10,10,10,10,10,10","20,20,20,20,20,20,20,20","0,0,0,0,0,0,0,0","20,20,20,20,20,20,20,20","0,0,1,1,0,1,1,0","17238,1016,1065,1140,4794,3344,4140,1827","10.155738048312045,20.790724155181973,36.04663518176993,-6.759591552916352,35.921936674520964,32.60951626422114,-37.82755675092723,-9.359653080702405","10.249149491358903,39.30921836079932,-24.902467675432007,8.624713566921768,13.901595590716468,-16.073724179206547,8.930216361153603,11.069612775119824","0","0"
"900","86","text","0","24","538552","0-0","","","","","","","","","","","","","","","","","","","","","","","","","","","","","","","","","","","","",""
"","","plant-game","0","25","581127","0-0","","200","180","2","CORN CROP","Left","200","160","4","NETTLE WEED","practice","12","1,2,3,4","180,232.96652105737823,180,198.15125124498368","2,1,2,1","CORN CROP,CORN CROP,WHEAT CROP,WHEAT CROP","160,177.16132819770766,217.74237038108615,252.24420415340717","4,3,2,1","NETTLE WEED,NETTLE WEED,NETTLE WEED,NETTLE WEED","20,20,20,20","20,20,20,20","10,10,10,10","20,20,20,20","0,0,0,0","20,20,20,20","20,20,20,20","20,20,20,20","10,10,10,10","20,20,20,20","0,0,0,0","20,20,20,20","0,0,1,1","2514,5847,4559,2757","52.96652105737823,-0.3249235443481808,18.151251244983676,-9.756244684712199","17.16132819770766,40.581042183378486,34.50183377232102,-1.4614155667322848","0","0"
"474","86","text","0","26","581694","0-0","","","","","","","","","","","","","","","","","","","","","","","","","","","","","","","","","","","","",""
"10414","86","text","0","27","593284","0-0","","","","","","","","","","","","","","","","","","","","","","","","","","","","","","","","","","","","",""
"","","plant-game","0","28","626523","0-0","","200","120","8","WHEAT CROP","Left","200","190","2","THISTLE WEED","experimental","1","1,2,3,4,5,6,7,8","120,117.0773046490642,116.64756703266214,150.97171630230488,204.97154812467093,210.63651884675687,236.56196567543898,227.5081542401377","8,7,6,5,4,3,2,1","WHEAT CROP,WHEAT CROP,WHEAT CROP,WHEAT CROP,WHEAT CROP,WHEAT CROP,WHEAT CROP,WHEAT CROP","190,203.63940388595378,140,145.20729596590746,158.5730001890036,140.28773047544277,151.87320041161885,152.24954493191606","2,1,6,5,4,3,2,1","THISTLE WEED,THISTLE WEED,NETTLE WEED,NETTLE WEED,NETTLE WEED,NETTLE WEED,NETTLE WEED,NETTLE WEED","20,20,20,20,20,20,20,20","20,20,20,20,20,20,20,20","10,10,10,10,10,10,10,10","20,20,20,20,20,20,20,20","0,0,0,0,0,0,0,0","20,20,20,20,20,20,20,20","20,20,20,20,20,20,20,20","20,20,20,20,20,20,20,20","10,10,10,10,10,10,10,10","20,20,20,20,20,20,20,20","0,0,0,0,0,0,0,0","20,20,20,20,20,20,20,20","1,1,0,0,1,0,1,0","6631,1791,3366,1757,2910,2773,1388,1444","-2.922695350935797,-0.42973761640206876,34.32414926964275,53.999831822366055,5.664970722085938,25.92544682868212,-9.053811435301267,1.148811173911806","13.639403885953785,-6.577156623030574,5.207295965907477,13.365704223096134,-18.28526971356083,11.58546993617607,0.3763445202971988,34.196076778802826","0","0"
"787","86","text","0","29","627460","0-0","","","","","","","","","","","","","","","","","","","","","","","","","","","","","","","","","","","","",""
"","","plant-game","0","30","638786","0-0","","200","180","2","WHEAT CROP","Left","200","120","2","NETTLE WEED","experimental","2","1,2","180,188.13603979556842","2,1","WHEAT CROP,WHEAT CROP","120,129.34615029712037","2,1","NETTLE WEED,NETTLE WEED","20,20","20,20","10,10","20,20","0,0","20,20","20,20","20,20","10,10","20,20","0,0","20,20","0,0","5492,894","8.136039795568433,60.62871795920312","9.346150297120383,16.801382720277616","0","0"
"687","86","text","0","31","639643","0-0","","","","","","","","","","","","","","","","","","","","","","","","","","","","","","","","","","","","",""
"","","plant-game","0","32","670376","0-0","","200","160","8","CORN CROP","Left","200","160","4","NETTLE WEED","experimental","3","1,2,3,4,5,6,7,8","160,167.20566490968096,144.81944558283362,173.5390219261929,187.5797096667609,197.43308717186952,227.16171184620543,221.81261629568857","8,7,6,5,4,3,2,1","CORN CROP,CORN CROP,CORN CROP,CORN CROP,CORN CROP,CORN CROP,CORN CROP,CORN CROP","160,181.3231166653533,217.58252937964198,220.08733314767125,160,158.2555860184571,186.58486505787948,193.03281015469472","4,3,2,1,4,3,2,1","NETTLE WEED,NETTLE WEED,NETTLE WEED,NETTLE WEED,THISTLE WEED,THISTLE WEED,THISTLE WEED,THISTLE WEED","20,20,20,20,20,20,20,20","20,20,20,20,20,20,20,20","10,10,10,10,10,10,10,10","20,20,20,20,20,20,20,20","0,0,0,0,0,0,0,0","20,20,20,20,20,20,20,20","20,20,20,20,20,20,20,20","20,20,20,20,20,20,20,20","10,10,10,10,10,10,10,10","20,20,20,20,20,20,20,20","0,0,0,0,0,0,0,0","20,20,20,20,20,20,20,20","1,1,1,1,0,0,1,1","6926,1029,3048,2073,2544,1049,1277,1380","7.205664909680972,-22.38621932684733,28.719576343359282,14.040687740567996,9.853377505108632,29.728624674335933,-5.349095550516864,-19.714530525416155","21.323116665353293,36.259412714288686,2.504803768029265,-3.7688326828459884,-1.7444139815428912,28.32927903942237,6.4479450968152445,2.5059288060451252","0","0"
"613","86","text","0","33","671129","0-0","","","","","","","","","","","","","","","","","","","","","","","","","","","","","","","","","","","","",""
"","","plant-game","0","34","708329","0-0","","200","190","8","WHEAT CROP","Right","200","180","2","NETTLE WEED","experimental","4","1,2,3,4,5,6,7,8","180,173.7064107768095,140,169.96575358630068,175.6424275980748,162.02280073605712,147.46030998056852,162.1328930263052","2,1,6,5,4,3,2,1","NETTLE WEED,NETTLE WEED,THISTLE WEED,THISTLE WEED,THISTLE WEED,THISTLE WEED,THISTLE WEED,THISTLE WEED","190,229.10659108466336,281.59284357079054,313.5434066558024,310.947744517481,301.9499332737877,366.72243938753047,371.4525693133928","8,7,6,5,4,3,2,1","WHEAT CROP,WHEAT CROP,WHEAT CROP,WHEAT CROP,WHEAT CROP,WHEAT CROP,WHEAT CROP,WHEAT CROP","0,0,0,0,0,0,0,0","20,20,20,20,20,20,20,20","10,10,10,10,10,10,10,10","20,20,20,20,20,20,20,20","20,20,20,20,20,20,20,20","20,20,20,20,20,20,20,20","0,0,0,0,0,0,0,0","20,20,20,20,20,20,20,20","10,10,10,10,10,10,10,10","20,20,20,20,20,20,20,20","20,20,20,20,20,20,20,20","20,20,20,20,20,20,20,20","1,0,1,0,0,0,0,0","8519,1865,3293,4132,2105,1359,1406,990","-6.293589223190494,3.2652443400793207,29.965753586300686,5.6766740117740975,-13.619626862017677,-14.562490755488584,14.672583045736683,-21.242340568914795","39.10659108466338,52.48625248612717,31.95056308501185,-2.5956621383214045,-8.997811243693318,64.77250611374279,4.730129925862325,-20.704376073286358","0","0"
"553","86","text","0","35","709006","0-0","","","","","","","","","","","","","","","","","","","","","","","","","","","","","","","","","","","","",""
"","","plant-game","0","36","735991","0-0","","200","160","8","WHEAT CROP","Left","200","190","8","NETTLE WEED","experimental","5","1,2,3,4,5,6,7,8","160,146.7772350226344,159.61740595289896,153.10939597172455,124.92621176734602,138.95033362156303,177.5258543454732,151.3399066579396","8,7,6,5,4,3,2,1","WHEAT CROP,WHEAT CROP,WHEAT CROP,WHEAT CROP,WHEAT CROP,WHEAT CROP,WHEAT CROP,WHEAT CROP","190,199.5196259902751,208.2366061033378,209.99888504879377,222.83160911640215,282.5523596722049,285.33973057430285,264.9886354506808","8,7,6,5,4,3,2,1","NETTLE WEED,NETTLE WEED,NETTLE WEED,NETTLE WEED,NETTLE WEED,NETTLE WEED,NETTLE WEED,NETTLE WEED","20,20,20,20,20,20,20,20","20,20,20,20,20,20,20,20","10,10,10,10,10,10,10,10","20,20,20,20,20,20,20,20","0,0,0,0,0,0,0,0","20,20,20,20,20,20,20,20","20,20,20,20,20,20,20,20","20,20,20,20,20,20,20,20","10,10,10,10,10,10,10,10","20,20,20,20,20,20,20,20","0,0,0,0,0,0,0,0","20,20,20,20,20,20,20,20","1,1,1,1,0,1,1,1","11406,1468,3621,1267,1320,1193,390,584","-13.2227649773656,12.840170930264573,-6.508009981174405,-28.183184204378534,14.024121854217011,38.57552072391016,-26.18594768753361,-18.116347722584532","9.5196259902751,8.716980113062709,1.7622789454559622,12.83272406760837,59.72075055580273,2.7873709020979494,-20.35109512362203,17.893844238123762","0","0"
"540","86","text","0","37","736631","0-0","","","","","","","","","","","","","","","","","","","","","","","","","","","","","","","","","","","","",""
"","","plant-game","0","38","762212","0-0","","200","160","1","WHEAT CROP","Left","200","190","2","THISTLE WEED","experimental","6","1,2","160,190","1,1","WHEAT CROP,CORN CROP","190,193.04771484485494","2,1","THISTLE WEED,THISTLE WEED","20,20","20,20","10,10","20,20","0,0","20,20","20,20","20,20","10,10","20,20","0,0","20,20","1,1","11624,3752","-4.566871213227722,10.475360851525156","3.0477148448549256,31.169842412254695","0","0"
"569","86","text","0","39","762931","0-0","","","","","","","","","","","","","","","","","","","","","","","","","","","","","","","","","","","","",""
"","","plant-game","0","40","789729","0-0","","200","120","1","WHEAT CROP","Right","200","120","2","NETTLE WEED","experimental","7","1,2","120,143.97359710909507","2,1","NETTLE WEED,NETTLE WEED","120,190","1,1","WHEAT CROP,CORN CROP","0,0","20,20","10,10","20,20","20,20","20,20","0,0","20,20","10,10","20,20","20,20","20,20","1,1","12414,4570","23.973597109095067,32.36546029760478","25.719760730759653,6.314297491985588","0","0"
"555","86","text","0","41","790425","0-0","","","","","","","","","","","","","","","","","","","","","","","","","","","","","","","","","","","","",""
"","","plant-game","0","42","817472","0-0","","200","190","8","CORN CROP","Right","200","160","2","THISTLE WEED","experimental","8","1,2,3,4,5,6,7,8","160,176.11130234113227,140,140.24877992052026,147.14019008652946,157.87324817800462,169.6625628619743,136.1619488767696","2,1,6,5,4,3,2,1","THISTLE WEED,THISTLE WEED,NETTLE WEED,NETTLE WEED,NETTLE WEED,NETTLE WEED,NETTLE WEED,NETTLE WEED","190,176.22919884734029,171.70734735617066,167.56323902334609,171.7396792679893,190.22249619537436,156.79956359403374,132.26830403969774","8,7,6,5,4,3,2,1","CORN CROP,CORN CROP,CORN CROP,CORN CROP,CORN CROP,CORN CROP,CORN CROP,CORN CROP","0,0,0,0,0,0,0,0","20,20,20,20,20,20,20,20","10,10,10,10,10,10,10,10","20,20,20,20,20,20,20,20","20,20,20,20,20,20,20,20","20,20,20,20,20,20,20,20","0,0,0,0,0,0,0,0","20,20,20,20,20,20,20,20","10,10,10,10,10,10,10,10","20,20,20,20,20,20,20,20","20,20,20,20,20,20,20,20","20,20,20,20,20,20,20,20","0,0,0,0,0,0,0,0","7460,1340,6314,739,1553,935,600,594","16.11130234113227,-41.15930218950777,0.2487799205202666,6.891410166009209,10.733058091475165,11.789314683969677,-33.50061398520468,44.31593180178524","-13.770801152659708,-4.521851491169633,-4.144108332824561,4.176440244643198,18.482816927385084,-33.42293260134063,-24.531259554335996,20.833782508328305","0","0"
"554","86","text","0","43","818104","0-0","","","","","","","","","","","","","","","","","","","","","","","","","","","","","","","","","","","","",""
"","","plant-game","0","44","844863","0-0","","200","120","8","WHEAT CROP","Right","200","160","1","THISTLE WEED","experimental","9","1,2,3,4,5,6,7,8","160,130,161.6058437960378,188.17568730109755,167.12383330383545,197.9605250230565,217.56368973618333,185.63988322756472","1,7,6,5,4,3,2,1","THISTLE WEED,NETTLE WEED,NETTLE WEED,NETTLE WEED,NETTLE WEED,NETTLE WEED,NETTLE WEED,NETTLE WEED","120,110.11884318835351,145.06399046910602,185.76029183853856,171.09387251800956,166.8189513063955,195.79481685037774,226.96548629644312","8,7,6,5,4,3,2,1","WHEAT CROP,WHEAT CROP,WHEAT CROP,WHEAT CROP,WHEAT CROP,WHEAT CROP,WHEAT CROP,WHEAT CROP","0,0,0,0,0,0,0,0","20,20,20,20,20,20,20,20","10,10,10,10,10,10,10,10","20,20,20,20,20,20,20,20","20,20,20,20,20,20,20,20","20,20,20,20,20,20,20,20","0,0,0,0,0,0,0,0","20,20,20,20,20,20,20,20","10,10,10,10,10,10,10,10","20,20,20,20,20,20,20,20","20,20,20,20,20,20,20,20","20,20,20,20,20,20,20,20","0,1,1,0,0,0,0,0","7211,3439,1446,1221,1335,1345,1510,1569","3.3480916385363306,31.605843796037778,26.56984350505976,-21.051853997262086,30.836691719221058,19.603164713126827,-31.923806508618608,-12.66570819067045","-9.881156811646495,34.9451472807525,40.69630136943255,-14.666419320529005,-4.274921211614057,28.975865543982238,31.17066944606538,-17.12133218367382","0","0"
"500","86","text","0","45","845473","0-0","","","","","","","","","","","","","","","","","","","","","","","","","","","","","","","","","","","","",""
"","","plant-game","0","46","877799","0-0","","200","190","1","CORN CROP","Right","200","190","8","THISTLE WEED","experimental","10","1,2,3,4,5,6,7,8","190,207.7087318648576,230.56637585620325,255.32363309433708,272.735073459226,221.7043752104628,216.85908129890146,188.25331860277333","8,7,6,5,4,3,2,1","THISTLE WEED,THISTLE WEED,THISTLE WEED,THISTLE WEED,THISTLE WEED,THISTLE WEED,THISTLE WEED,THISTLE WEED","190,130,123.78431715011314,155.84974833897715,172.03140107865957,173.51636687294666,150.20812142066606,105.63090525604579","1,7,6,5,4,3,2,1","CORN CROP,WHEAT CROP,WHEAT CROP,WHEAT CROP,WHEAT CROP,WHEAT CROP,WHEAT CROP,WHEAT CROP","0,0,0,0,0,0,0,0","20,20,20,20,20,20,20,20","10,10,10,10,10,10,10,10","20,20,20,20,20,20,20,20","20,20,20,20,20,20,20,20","20,20,20,20,20,20,20,20","0,0,0,0,0,0,0,0","20,20,20,20,20,20,20,20","10,10,10,10,10,10,10,10","20,20,20,20,20,20,20,20","20,20,20,20,20,20,20,20","20,20,20,20,20,20,20,20","1,1,1,1,0,0,0,1","9678,7801,678,1350,1644,687,592,1078","17.708731864857608,22.857643991345636,24.757257238133825,17.411440364888882,-51.03069824876317,-4.845293911561344,-28.60576269612811,7.826309828194528","30.820623504231634,-6.215682849886868,32.06543118886401,16.181652739682427,1.4849657942870969,-23.308245452280612,-44.57721616462027,45.126729306272125","0","0"
"562","86","text","0","47","878439","0-0","","","","","","","","","","","","","","","","","","","","","","","","","","","","","","","","","","","","",""
"","","plant-game","0","48","903352","0-0","","200","190","1","CORN CROP","Left","200","160","4","NETTLE WEED","experimental","11","1,2,3,4","190,170,201.8688188290598,205.65080133136027","1,3,2,1","CORN CROP,WHEAT CROP,WHEAT CROP,WHEAT CROP","160,179.0772914787232,132.77278362715037,127.64700836860517","4,3,2,1","NETTLE WEED,NETTLE WEED,NETTLE WEED,NETTLE WEED","20,20,20,20","20,20,20,20","10,10,10,10","20,20,20,20","0,0,0,0","20,20,20,20","20,20,20,20","20,20,20,20","10,10,10,10","20,20,20,20","0,0,0,0","20,20,20,20","0,1,1,1","6603,8576,1496,860","1.529312614317881,31.868818829059784,3.7819825023004876,-14.491510631519095","19.077291478723208,-46.304507851572836,-5.125775258545207,-6.902148755393903","0","0"
"467","86","text","0","49","903909","0-0","","","","","","","","","","","","","","","","","","","","","","","","","","","","","","","","","","","","",""
"","","plant-game","0","50","930488","0-0","","200","160","1","CORN CROP","Right","200","180","8","THISTLE WEED","experimental","12","1,2,3,4,5,6,7,8","180,207.0903271587332,169.31105838561686,176.8452578639929,168.83898388482768,146.43288666914734,183.12671839925417,190.72926310538008","8,7,6,5,4,3,2,1","THISTLE WEED,THISTLE WEED,THISTLE WEED,THISTLE WEED,THISTLE WEED,THISTLE WEED,THISTLE WEED,THISTLE WEED","160,130,134.32261178452177,118.33975812000332,119.48344132656223,136.95946844470217,164.70155302903777,183.17778500815623","1,7,6,5,4,3,2,1","CORN CROP,WHEAT CROP,WHEAT CROP,WHEAT CROP,WHEAT CROP,WHEAT CROP,WHEAT CROP,WHEAT CROP","0,0,0,0,0,0,0,0","20,20,20,20,20,20,20,20","10,10,10,10,10,10,10,10","20,20,20,20,20,20,20,20","20,20,20,20,20,20,20,20","20,20,20,20,20,20,20,20","0,0,0,0,0,0,0,0","20,20,20,20,20,20,20,20","10,10,10,10,10,10,10,10","20,20,20,20,20,20,20,20","20,20,20,20,20,20,20,20","20,20,20,20,20,20,20,20","1,0,0,0,0,1,0,0","10280,3602,881,536,701,2002,1111,886","27.090327158733203,-37.77926877311635,7.534199478376049,-8.006273979165236,-22.406097215680354,36.693831730106844,7.602544706125919,-20.77884364501625","-0.9303213808752666,4.322611784521782,-15.982853664518448,1.143683206558902,17.47602711813994,27.742084584335586,18.476231979118477,-13.114718031249017","0","0"
"460","86","text","0","51","931038","0-0","","","","","","","","","","","","","","","","","","","","","","","","","","","","","","","","","","","","",""
"","","plant-game","0","52","952097","0-0","","200","190","2","CORN CROP","Right","200","180","1","NETTLE WEED","experimental","13","1,2","180,190","1,1","NETTLE WEED,THISTLE WEED","190,218.8249110588646","2,1","CORN CROP,CORN CROP","0,0","20,20","10,10","20,20","20,20","20,20","0,0","20,20","10,10","20,20","20,20","20,20","0,0","7450,4590","-50.368138196033094,22.652512039465055","28.82491105886458,-5.183096765600547","0","0"
"553","86","text","0","53","952730","0-0","","","","","","","","","","","","","","","","","","","","","","","","","","","","","","","","","","","","",""
"","","plant-game","0","54","967453","0-0","","200","190","1","WHEAT CROP","Right","200","160","2","NETTLE WEED","experimental","14","1,2","160,186.69177989831266","2,1","NETTLE WEED,NETTLE WEED","190,190","1,1","WHEAT CROP,CORN CROP","0,0","20,20","10,10","20,20","20,20","20,20","0,0","20,20","10,10","20,20","20,20","20,20","1,0","5530,2874","26.691779898312653,20.581064485146836","1.937654769563629,14.376401021576125","0","0"
"507","86","text","0","55","968062","0-0","","","","","","","","","","","","","","","","","","","","","","","","","","","","","","","","","","","","",""
"","","plant-game","0","56","1023445","0-0","","200","120","1","WHEAT CROP","Left","200","180","8","THISTLE WEED","experimental","15","1,2,3,4,5,6,7,8","120,130,134.13534883490917,134.88874693175936,108.93578797299408,108.57258105720314,126.18770042974481,120.14486019916919","1,7,6,5,4,3,2,1","WHEAT CROP,CORN CROP,CORN CROP,CORN CROP,CORN CROP,CORN CROP,CORN CROP,CORN CROP","180,178.96246753835192,207.78363963871166,199.21349610236334,236.11105404276893,228.92858316041406,219.67856081935759,241.75382748022776","8,7,6,5,4,3,2,1","THISTLE WEED,THISTLE WEED,THISTLE WEED,THISTLE WEED,THISTLE WEED,THISTLE WEED,THISTLE WEED,THISTLE WEED","20,20,20,20,20,20,20,20","20,20,20,20,20,20,20,20","10,10,10,10,10,10,10,10","20,20,20,20,20,20,20,20","0,0,0,0,0,0,0,0","20,20,20,20,20,20,20,20","20,20,20,20,20,20,20,20","20,20,20,20,20,20,20,20","10,10,10,10,10,10,10,10","20,20,20,20,20,20,20,20","0,0,0,0,0,0,0,0","20,20,20,20,20,20,20,20","1,1,1,1,1,1,1,1","28206,11810,555,756,700,710,504,2270","2.4902457755332206,4.135348834909163,0.7533980968501974,-25.952958958765283,-0.3632069157909374,17.615119372541667,-6.042840230575621,-6.192609475077862","-1.0375324616480746,28.82117210035975,-8.570143536348336,36.89755794040559,-7.182470882354865,-9.250022341056468,22.075266660870184,-4.130135733366258","0","0"
"417","86","text","0","57","1023942","0-0","","","","","","","","","","","","","","","","","","","","","","","","","","","","","","","","","","","","",""
"","","plant-game","0","58","1121144","0-0","","200","120","4","WHEAT CROP","Left","200","180","8","THISTLE WEED","experimental","16","1,2,3,4,5,6,7,8","120,158.84267198316152,182.0155888100878,238.23185526472875,160,197.8472315874061,234.583130774062,220.39229706074923","4,3,2,1,4,3,2,1","WHEAT CROP,WHEAT CROP,WHEAT CROP,WHEAT CROP,CORN CROP,CORN CROP,CORN CROP,CORN CROP","180,214.4594551076561,223.93866531343275,257.6175159848514,267.8630549073439,272.20338785331415,263.85853359691805,281.3954064954698","8,7,6,5,4,3,2,1","THISTLE WEED,THISTLE WEED,THISTLE WEED,THISTLE WEED,THISTLE WEED,THISTLE WEED,THISTLE WEED,THISTLE WEED","20,20,20,20,20,20,20,20","20,20,20,20,20,20,20,20","10,10,10,10,10,10,10,10","20,20,20,20,20,20,20,20","0,0,0,0,0,0,0,0","20,20,20,20,20,20,20,20","20,20,20,20,20,20,20,20","20,20,20,20,20,20,20,20","10,10,10,10,10,10,10,10","20,20,20,20,20,20,20,20","0,0,0,0,0,0,0,0","20,20,20,20,20,20,20,20","0,0,0,0,1,1,1,1","79681,645,740,1032,2661,2835,737,519","38.84267198316152,23.17291682692626,56.21626645464096,22.536445284053066,37.847231587406085,36.73589918665591,-14.190833713312784,-7.856580855960277","34.45945510765611,9.47921020577664,33.67885067141868,10.245538922492447,4.340332945970274,-8.344854256396093,17.536872898551728,-41.10777530458864","0","0"
"6197","86","text","0","59","1127491","0-0","","","","","","","","","","","","","","","","","","","","","","","","","","","","","","","","","","","","",""
"","","plant-game","0","60","1174079","0-0","","200","180","8","CORN CROP","Left","200","190","8","NETTLE WEED","experimental","17","1,2,3,4,5,6,7,8","180,237.50313785415668,241.9156762070516,236.1485788151866,244.17235684177146,249.0029814443459,243.56322627316513,252.22278427484827","8,7,6,5,4,3,2,1","CORN CROP,CORN CROP,CORN CROP,CORN CROP,CORN CROP,CORN CROP,CORN CROP,CORN CROP","190,207.0525903825151,195.66372215698954,199.0080618159992,199.63699701071835,205.07976674058554,224.50923811686226,243.45384385184065","8,7,6,5,4,3,2,1","NETTLE WEED,NETTLE WEED,NETTLE WEED,NETTLE WEED,NETTLE WEED,NETTLE WEED,NETTLE WEED,NETTLE WEED","20,20,20,20,20,20,20,20","20,20,20,20,20,20,20,20","10,10,10,10,10,10,10,10","20,20,20,20,20,20,20,20","0,0,0,0,0,0,0,0","20,20,20,20,20,20,20,20","20,20,20,20,20,20,20,20","20,20,20,20,20,20,20,20","10,10,10,10,10,10,10,10","20,20,20,20,20,20,20,20","0,0,0,0,0,0,0,0","20,20,20,20,20,20,20,20","1,1,1,1,1,1,1,1","37259,1360,729,503,380,473,1023,504","57.50313785415668,4.412538352894938,-5.767097391865007,8.023778026584871,4.830624602574439,-5.43975517118075,8.65955800168314,8.50678257611533","17.05259038251508,-11.38886822552557,3.344339659009665,0.6289351947191236,5.4427697298672015,19.429471376276716,18.94460573497837,-11.192481058374737","0","0"
"581","86","text","0","61","1174740","0-0","","","","","","","","","","","","","","","","","","","","","","","","","","","","","","","","","","","","",""
"","","plant-game","0","62","1209089","0-0","","200","180","8","CORN CROP","Right","200","160","1","NETTLE WEED","experimental","18","1,2,3,4,5,6,7,8","160,130,132.4338644449013,112.13453506012102,86.84654648020378,104.17535115588136,95.83124515074965,105.51310551381258","1,7,6,5,4,3,2,1","NETTLE WEED,THISTLE WEED,THISTLE WEED,THISTLE WEED,THISTLE WEED,THISTLE WEED,THISTLE WEED,THISTLE WEED","180,198.02420511738993,212.44134692801416,196.88701686096186,193.17162901085007,222.64093451245665,221.32550084008977,198.75866169822348","8,7,6,5,4,3,2,1","CORN CROP,CORN CROP,CORN CROP,CORN CROP,CORN CROP,CORN CROP,CORN CROP,CORN CROP","0,0,0,0,0,0,0,0","20,20,20,20,20,20,20,20","10,10,10,10,10,10,10,10","20,20,20,20,20,20,20,20","20,20,20,20,20,20,20,20","20,20,20,20,20,20,20,20","0,0,0,0,0,0,0,0","20,20,20,20,20,20,20,20","10,10,10,10,10,10,10,10","20,20,20,20,20,20,20,20","20,20,20,20,20,20,20,20","20,20,20,20,20,20,20,20","0,0,0,0,0,0,0,0","14236,7069,718,620,1014,696,600,756","37.389773127470384,2.4338644449013067,-20.29932938478028,-25.28798857991724,17.328804675677574,-8.344106005131707,9.681860363062922,-16.915811459533614","18.02420511738992,14.417141810624239,-15.554330067052284,-3.715387850111788,29.469305501606584,-1.3154336723668747,-22.566839141866303,-2.921875513714938","0","0"
"1223","86","text","0","63","1210392","0-0","","","","","","","","","","","","","","","","","","","","","","","","","","","","","","","","","","","","",""
"","","plant-game","0","64","1232211","0-0","","200","190","8","CORN CROP","Left","200","120","8","THISTLE WEED","experimental","19","1,2,3,4,5,6,7,8","190,192.8144434529923,180.2786474283896,180.0133869840026,174.9698037175784,203.27896149738078,231.2022093656573,205.6814102744999","8,7,6,5,4,3,2,1","CORN CROP,CORN CROP,CORN CROP,CORN CROP,CORN CROP,CORN CROP,CORN CROP,CORN CROP","120,152.28028733843198,141.44675750493644,132.3268234606972,139.8681369055589,167.7923175305676,190.68998786278053,189.6813407824427","8,7,6,5,4,3,2,1","THISTLE WEED,THISTLE WEED,THISTLE WEED,THISTLE WEED,THISTLE WEED,THISTLE WEED,THISTLE WEED,THISTLE WEED","20,20,20,20,20,20,20,20","20,20,20,20,20,20,20,20","10,10,10,10,10,10,10,10","20,20,20,20,20,20,20,20","0,0,0,0,0,0,0,0","20,20,20,20,20,20,20,20","20,20,20,20,20,20,20,20","20,20,20,20,20,20,20,20","10,10,10,10,10,10,10,10","20,20,20,20,20,20,20,20","0,0,0,0,0,0,0,0","20,20,20,20,20,20,20,20","1,1,1,1,0,1,1,0","7196,780,560,1378,1986,1830,1762,2057","2.8144434529922875,-12.535796024602696,-0.2652604443869834,-5.043583266424198,28.309157779802373,27.92324786827653,-25.520799091157397,15.016311177252813","32.28028733843197,-10.833529833495534,-9.119934044239246,7.54131344486172,27.924180625008677,22.897670332212922,-1.0086470803378114,16.44838448109943","0","0"
"466","86","text","0","65","1232777","0-0","","","","","","","","","","","","","","","","","","","","","","","","","","","","","","","","","","","","",""
"","","plant-game","0","66","1247664","0-0","","200","160","2","WHEAT CROP","Left","200","190","2","NETTLE WEED","experimental","20","1,2","160,145.9499008897205","2,1","WHEAT CROP,WHEAT CROP","190,180.6127575591373","2,1","NETTLE WEED,NETTLE WEED","20,20","20,20","10,10","20,20","0,0","20,20","20,20","20,20","10,10","20,20","0,0","20,20","0,0","8923,2356","-14.050099110279497,19.45618545406725","-9.387242440862696,7.277092574571109","0","0"
"466","86","text","0","67","1248208","0-0","","","","","","","","","","","","","","","","","","","","","","","","","","","","","","","","","","","","",""
"","","plant-game","0","68","1280644","0-0","","200","120","1","CORN CROP","Right","200","180","4","THISTLE WEED","experimental","21","1,2,3,4","180,155.07706786418822,165.19408538656464,177.1113802525497","4,3,2,1","THISTLE WEED,THISTLE WEED,THISTLE WEED,THISTLE WEED","120,170,195.09395489191286,214.1110396793196","1,3,2,1","CORN CROP,WHEAT CROP,WHEAT CROP,WHEAT CROP","0,0,0,0","20,20,20,20","10,10,10,10","20,20,20,20","20,20,20,20","20,20,20,20","0,0,0,0","20,20,20,20","10,10,10,10","20,20,20,20","20,20,20,20","20,20,20,20","0,1,1,1","19988,4384,973,1363","-24.922932135811777,10.117017522376415,11.917294865985081,44.231613314763216","-10.221986011075819,25.093954891912873,19.017084787406734,70.78054623124221","0","0"
"497","86","text","0","69","1281221","0-0","","","","","","","","","","","","","","","","","","","","","","","","","","","","","","","","","","","","",""
"","","plant-game","0","70","1313938","0-0","","200","120","8","WHEAT CROP","Right","200","120","4","THISTLE WEED","experimental","22","1,2,3,4,5,6,7,8","120,126.13064477701195,118.4904486205672,142.19382418118926,160,192.60001250731162,218.5655360161142,236.01214508165424","4,3,2,1,4,3,2,1","THISTLE WEED,THISTLE WEED,THISTLE WEED,THISTLE WEED,NETTLE WEED,NETTLE WEED,NETTLE WEED,NETTLE WEED","120,130.55760080119643,110.78983591777384,106.74186672408571,125.28802207805902,132.20930013023664,130.63371387224973,114.54282718986809","8,7,6,5,4,3,2,1","WHEAT CROP,WHEAT CROP,WHEAT CROP,WHEAT CROP,WHEAT CROP,WHEAT CROP,WHEAT CROP,WHEAT CROP","0,0,0,0,0,0,0,0","20,20,20,20,20,20,20,20","10,10,10,10,10,10,10,10","20,20,20,20,20,20,20,20","20,20,20,20,20,20,20,20","20,20,20,20,20,20,20,20","0,0,0,0,0,0,0,0","20,20,20,20,20,20,20,20","10,10,10,10,10,10,10,10","20,20,20,20,20,20,20,20","20,20,20,20,20,20,20,20","20,20,20,20,20,20,20,20","0,0,1,1,1,0,0,0","7939,473,3266,1610,8405,1433,565,1944","6.130644777011955,-7.6401961564447625,23.703375560622074,18.37820314210326,32.600012507311625,25.965523508802598,17.44660906554004,-25.87846516983935","10.55760080119642,-19.767764883422586,-4.047969193688132,18.546155353973298,6.921278052177637,-1.5755862579868996,-16.090886682381633,5.138617575237259","0","0"
"493","86","text","0","71","1314501","0-0","","","","","","","","","","","","","","","","","","","","","","","","","","","","","","","","","","","","",""
"","","plant-game","0","72","1336006","0-0","","200","120","1","CORN CROP","Left","200","190","2","NETTLE WEED","experimental","23","1,2","120,190","1,1","CORN CROP,WHEAT CROP","190,177.6240751170195","2,1","NETTLE WEED,NETTLE WEED","20,20","20,20","10,10","20,20","0,0","20,20","20,20","20,20","10,10","20,20","0,0","20,20","1,1","8133,7775","10.16190223357539,-11.48826640084025","-12.37592488298052,11.765205611128518","0","0"
"237","86","text","0","73","1336337","0-0","","","","","","","","","","","","","","","","","","","","","","","","","","","","","","","","","","","","",""
"","","plant-game","0","74","1362228","0-0","","200","180","8","WHEAT CROP","Left","200","190","4","NETTLE WEED","experimental","24","1,2,3,4,5,6,7,8","180,158.49691014678413,171.7084350214742,166.67419624897244,136.48605462047485,195.49654305610736,211.31056022451534,226.5573914655808","8,7,6,5,4,3,2,1","WHEAT CROP,WHEAT CROP,WHEAT CROP,WHEAT CROP,WHEAT CROP,WHEAT CROP,WHEAT CROP,WHEAT CROP","190,194.49172461447898,157.13015633402736,175.17676044736112,160,194.81426017470088,210.4933552624448,182.452236655326","4,3,2,1,4,3,2,1","NETTLE WEED,NETTLE WEED,NETTLE WEED,NETTLE WEED,THISTLE WEED,THISTLE WEED,THISTLE WEED,THISTLE WEED","20,20,20,20,20,20,20,20","20,20,20,20,20,20,20,20","10,10,10,10,10,10,10,10","20,20,20,20,20,20,20,20","0,0,0,0,0,0,0,0","20,20,20,20,20,20,20,20","20,20,20,20,20,20,20,20","20,20,20,20,20,20,20,20","10,10,10,10,10,10,10,10","20,20,20,20,20,20,20,20","0,0,0,0,0,0,0,0","20,20,20,20,20,20,20,20","1,1,1,1,0,1,1,1","8678,529,587,438,3202,1465,2772,1224","-21.50308985321587,13.211524874690062,-5.034238772501768,-30.188141628497593,59.01048843563251,15.81401716840798,15.246831241065449,-11.124657837680328","4.491724614478993,-37.361568280451614,18.04660411333376,-37.317721530584215,34.81426017470088,15.679095087743917,-28.04111860711878,57.571524814309534","0","0"
"520","86","text","0","75","1362888","0-0","","","","","","","","","","","","","","","","","","","","","","","","","","","","","","","","","","","","",""
"","","plant-game","0","76","1402378","0-0","","200","160","4","CORN CROP","Left","200","160","8","NETTLE WEED","experimental","25","1,2,3,4,5,6,7,8","160,158.19621080714117,205.92062542850712,238.30460435425988,160,196.1001620119831,203.57012546196387,186.65273988136994","4,3,2,1,4,3,2,1","CORN CROP,CORN CROP,CORN CROP,CORN CROP,WHEAT CROP,WHEAT CROP,WHEAT CROP,WHEAT CROP","160,185.96192561057526,197.26535111110414,213.77777981275483,174.76436820143334,180.96444284798184,190.79123340880037,172.89910298271172","8,7,6,5,4,3,2,1","NETTLE WEED,NETTLE WEED,NETTLE WEED,NETTLE WEED,NETTLE WEED,NETTLE WEED,NETTLE WEED,NETTLE WEED","20,20,20,20,20,20,20,20","20,20,20,20,20,20,20,20","10,10,10,10,10,10,10,10","20,20,20,20,20,20,20,20","0,0,0,0,0,0,0,0","20,20,20,20,20,20,20,20","20,20,20,20,20,20,20,20","20,20,20,20,20,20,20,20","10,10,10,10,10,10,10,10","20,20,20,20,20,20,20,20","0,0,0,0,0,0,0,0","20,20,20,20,20,20,20,20","0,0,0,0,1,1,1,0","13182,1700,1285,603,7544,2556,1507,2314","-1.8037891928588365,47.72441462136596,32.38397892575274,26.29599276334784,36.100162011983095,7.4699634499807885,-16.917385580593937,-1.8128669972219384","25.961925610575257,11.303425500528885,16.512428701650677,-39.01341161132149,6.200074646548509,9.826790560818527,-17.892130426088645,16.030029641388563","0","0"
"553","86","text","0","77","1403051","0-0","","","","","","","","","","","","","","","","","","","","","","","","","","","","","","","","","","","","",""
"","","plant-game","0","78","1432710","0-0","","200","190","8","WHEAT CROP","Right","200","120","2","THISTLE WEED","experimental","26","1,2,3,4,5,6,7,8","120,160.09910317973274,140,96.58170447259246,105.48757608563395,132.01542325790868,149.9216315518189,159.33572791283672","2,1,6,5,4,3,2,1","THISTLE WEED,THISTLE WEED,NETTLE WEED,NETTLE WEED,NETTLE WEED,NETTLE WEED,NETTLE WEED,NETTLE WEED","190,206.689650379149,179.93470609554475,152.01327248317008,144.60850232539912,142.52688110721186,140.17973600705884,152.68175793384023","8,7,6,5,4,3,2,1","WHEAT CROP,WHEAT CROP,WHEAT CROP,WHEAT CROP,WHEAT CROP,WHEAT CROP,WHEAT CROP,WHEAT CROP","0,0,0,0,0,0,0,0","20,20,20,20,20,20,20,20","10,10,10,10,10,10,10,10","20,20,20,20,20,20,20,20","20,20,20,20,20,20,20,20","20,20,20,20,20,20,20,20","0,0,0,0,0,0,0,0","20,20,20,20,20,20,20,20","10,10,10,10,10,10,10,10","20,20,20,20,20,20,20,20","20,20,20,20,20,20,20,20","20,20,20,20,20,20,20,20","1,1,0,0,1,1,1,1","8617,3015,4107,417,1253,1287,557,633","40.09910317973274,3.5680669476752627,-43.418295527407544,8.905871613041487,26.527847172274736,17.90620829391023,9.414096361017798,14.035428324578664","16.689650379148997,-26.75494428360423,-27.92143361237467,-7.404770157770965,-2.0816212181872444,-2.347145100153032,12.502021926781389,16.85998962288043","0","0"
"625","86","text","0","79","1433413","0-0","","","","","","","","","","","","","","","","","","","","","","","","","","","","","","","","","","","","",""
"","","plant-game","0","80","1464159","0-0","","200","160","2","CORN CROP","Right","200","190","4","NETTLE WEED","experimental","27","1,2,3,4","190,182.3990624733039,171.67194493260587,175.4215495897831","4,3,2,1","NETTLE WEED,NETTLE WEED,NETTLE WEED,NETTLE WEED","160,132.46682396037215,180,246.7391460724404","2,1,2,1","CORN CROP,CORN CROP,WHEAT CROP,WHEAT CROP","0,0,0,0","20,20,20,20","10,10,10,10","20,20,20,20","20,20,20,20","20,20,20,20","0,0,0,0","20,20,20,20","10,10,10,10","20,20,20,20","20,20,20,20","20,20,20,20","1,0,1,0","8161,3181,7072,4295","-7.600937526696107,-10.727117540698028,3.7496046571772403,-18.30391968631644","-27.53317603962784,16.994516212064003,66.7391460724404,-9.502086568025735","0","0"
"1030","86","text","0","81","1465279","0-0","","","","","","","","","","","","","","","","","","","","","","","","","","","","","","","","","","","","",""
"","","plant-game","0","82","1502096","0-0","","200","180","8","WHEAT CROP","Left","200","160","4","THISTLE WEED","experimental","28","1,2,3,4,5,6,7,8","180,196.95742200784304,201.82987577735162,213.6757593293134,222.9148143656315,243.91469457639616,252.36190291833577,268.11297505205505","8,7,6,5,4,3,2,1","WHEAT CROP,WHEAT CROP,WHEAT CROP,WHEAT CROP,WHEAT CROP,WHEAT CROP,WHEAT CROP,WHEAT CROP","160,172.38086291329367,170.7504655552891,144.41711000799964,160,145.1742867625437,153.2533054148862,157.27421567975182","4,3,2,1,4,3,2,1","THISTLE WEED,THISTLE WEED,THISTLE WEED,THISTLE WEED,NETTLE WEED,NETTLE WEED,NETTLE WEED,NETTLE WEED","20,20,20,20,20,20,20,20","20,20,20,20,20,20,20,20","10,10,10,10,10,10,10,10","20,20,20,20,20,20,20,20","0,0,0,0,0,0,0,0","20,20,20,20,20,20,20,20","20,20,20,20,20,20,20,20","20,20,20,20,20,20,20,20","10,10,10,10,10,10,10,10","20,20,20,20,20,20,20,20","0,0,0,0,0,0,0,0","20,20,20,20,20,20,20,20","1,1,1,1,1,1,1,1","9902,3092,2154,2389,2922,2083,2837,2779","16.957422007843032,4.872453769508568,11.845883551961778,9.239055036318106,20.999880210764648,8.447208341939618,15.751072133719259,-18.279910164360842","12.380862913293665,-1.6303973580045705,-26.33335554728947,-0.26276002257458037,-14.825713237456306,8.07901865234251,4.020910264865615,-9.603723379245753","0","0"
"572","86","text","0","83","1502793","0-0","","","","","","","","","","","","","","","","","","","","","","","","","","","","","","","","","","","","",""
"","","plant-game","0","84","1530700","0-0","","200","160","2","WHEAT CROP","Left","200","120","4","NETTLE WEED","experimental","29","1,2,3,4","160,202.04308414386668,180,204.8342670956853","2,1,2,1","WHEAT CROP,WHEAT CROP,CORN CROP,CORN CROP","120,133.4985266614756,159.01849206154122,148.3490724956063","4,3,2,1","NETTLE WEED,NETTLE WEED,NETTLE WEED,NETTLE WEED","20,20,20,20","20,20,20,20","10,10,10,10","20,20,20,20","0,0,0,0","20,20,20,20","20,20,20,20","20,20,20,20","10,10,10,10","20,20,20,20","0,0,0,0","20,20,20,20","0,0,0,0","7335,2354,6929,1776","42.043084143866665,11.276339133155604,24.83426709568531,13.941547041020092","13.498526661475612,25.519965400065605,-10.669419565934927,9.939390664014763","0","0"
"514","86","text","0","85","1531374","0-0","","","","","","","","","","","","","","","","","","","","","","","","","","","","","","","","","","","","",""
"","","plant-game","0","86","1563816","0-0","","200","180","8","WHEAT CROP","Left","200","160","2","THISTLE WEED","experimental","30","1,2,3,4,5,6,7,8","180,179.5386490991462,201.72151311332223,236.31137838041707,233.66136563597917,255.09982543664324,261.3231355313537,257.9438009920887","8,7,6,5,4,3,2,1","WHEAT CROP,WHEAT CROP,WHEAT CROP,WHEAT CROP,WHEAT CROP,WHEAT CROP,WHEAT CROP,WHEAT CROP","160,185.2020071388592,140,134.42723927272664,167.31344391664288,208.03789899489303,181.36895304881872,187.25087142464596","2,1,6,5,4,3,2,1","THISTLE WEED,THISTLE WEED,NETTLE WEED,NETTLE WEED,NETTLE WEED,NETTLE WEED,NETTLE WEED,NETTLE WEED","20,20,20,20,20,20,20,20","20,20,20,20,20,20,20,20","10,10,10,10,10,10,10,10","20,20,20,20,20,20,20,20","0,0,0,0,0,0,0,0","20,20,20,20,20,20,20,20","20,20,20,20,20,20,20,20","20,20,20,20,20,20,20,20","10,10,10,10,10,10,10,10","20,20,20,20,20,20,20,20","0,0,0,0,0,0,0,0","20,20,20,20,20,20,20,20","1,1,0,0,0,1,1,1","6918,3433,4844,1231,1276,3310,1253,1098","-0.46135090085381325,22.182864014176026,34.58986526709484,-2.650012744437909,21.438459800664074,6.223310094710466,-3.3793345392650345,-15.832561171627207","25.202007138859198,7.713525541545822,-5.572760727273369,32.88620464391624,40.72445507825014,-26.66894594607431,5.881918375827253,10.674144632259011","0","0"
"590","86","text","0","87","1564506","0-0","","","","","","","","","","","","","","","","","","","","","","","","","","","","","","","","","","","","",""
"","","plant-game","0","88","1589032","0-0","","200","160","4","CORN CROP","Right","200","120","2","NETTLE WEED","experimental","31","1,2,3,4","120,133.69975485214053,180,194.80954611123377","2,1,2,1","NETTLE WEED,NETTLE WEED,THISTLE WEED,THISTLE WEED","160,185.3609221954859,211.8583924837404,247.92364718420998","4,3,2,1","CORN CROP,CORN CROP,CORN CROP,CORN CROP","0,0,0,0","20,20,20,20","10,10,10,10","20,20,20,20","20,20,20,20","20,20,20,20","0,0,0,0","20,20,20,20","10,10,10,10","20,20,20,20","20,20,20,20","20,20,20,20","0,0,0,0","10496,1323,4761,1405","13.699754852140515,0.8210456982260821,14.809546111233786,-26.58778782508156","25.360922195485895,26.4974702882545,36.06525470046957,-9.556501401310616","0","0"
"550","86","text","0","89","1589772","0-0","","","","","","","","","","","","","","","","","","","","","","","","","","","","","","","","","","","","",""
"","","plant-game","0","90","1606841","0-0","","200","160","1","CORN CROP","Right","200","120","2","THISTLE WEED","experimental","32","1,2","120,144.74157644693486","2,1","THISTLE WEED,THISTLE WEED","160,190","1,1","CORN CROP,WHEAT CROP","0,0","20,20","10,10","20,20","20,20","20,20","0,0","20,20","10,10","20,20","20,20","20,20","1,1","6429,2964","24.74157644693485,24.8584608139058","-1.025643980624345,15.60591660794087","0","0"
"4193","86","text","0","91","1611114","0-0","","","","","","","","","","","","","","","","","","","","","","","","","","","","","","","","","","","","",""
"","","plant-game","0","92","1646598","0-0","","200","180","4","WHEAT CROP","Left","200","160","2","NETTLE WEED","experimental","33","1,2,3,4","180,162.84914487572738,132.04547889147497,156.1631554490215","4,3,2,1","WHEAT CROP,WHEAT CROP,WHEAT CROP,WHEAT CROP","160,145.65011742630458,180,173.82956267455702","2,1,2,1","NETTLE WEED,NETTLE WEED,THISTLE WEED,THISTLE WEED","20,20,20,20","20,20,20,20","10,10,10,10","20,20,20,20","0,0,0,0","20,20,20,20","20,20,20,20","20,20,20,20","10,10,10,10","20,20,20,20","0,0,0,0","20,20,20,20","1,1,0,0","11574,1142,15546,473","-17.150855124272635,-30.803665984252397,24.11767655754654,30.20090323085353","-14.349882573695425,9.007289824312748,-6.170437325442968,22.14181392235709","0","0"
"978","86","text","0","93","1647638","0-0","","","","","","","","","","","","","","","","","","","","","","","","","","","","","","","","","","","","",""
"","","plant-game","0","94","1668593","0-0","","200","160","4","WHEAT CROP","Right","200","190","2","NETTLE WEED","experimental","34","1,2,3,4","190,146.27972580141943,180,216.85908987156176","2,1,2,1","NETTLE WEED,NETTLE WEED,THISTLE WEED,THISTLE WEED","160,163.15522529779327,137.06467411095161,130.91359946396625","4,3,2,1","WHEAT CROP,WHEAT CROP,WHEAT CROP,WHEAT CROP","0,0,0,0","20,20,20,20","10,10,10,10","20,20,20,20","20,20,20,20","20,20,20,20","0,0,0,0","20,20,20,20","10,10,10,10","20,20,20,20","20,20,20,20","20,20,20,20","0,0,1,1","8681,690,3957,503","-43.720274198580576,-15.38157240057757,36.85908987156178,31.259072765638457","3.155225297793254,-26.09055118684164,-6.151074646985364,6.077655287006202","0","0"
"535","86","text","0","95","1669209","0-0","","","","","","","","","","","","","","","","","","","","","","","","","","","","","","","","","","","","",""
"","","plant-game","0","96","1680013","0-0","","200","160","2","CORN CROP","Right","200","180","2","NETTLE WEED","experimental","35","1,2","180,208.34743306290505","2,1","NETTLE WEED,NETTLE WEED","160,177.8180042996131","2,1","CORN CROP,CORN CROP","0,0","20,20","10,10","20,20","20,20","20,20","0,0","20,20","10,10","20,20","20,20","20,20","1,0","5069,1796","28.34743306290506,-3.427416585684993","17.818004299613108,-22.811176141198356","0","0"
"426","86","text","0","97","1680511","0-0","","","","","","","","","","","","","","","","","","","","","","","","","","","","","","","","","","","","",""
"","","plant-game","0","98","1700473","0-0","","200","180","4","WHEAT CROP","Left","200","190","1","NETTLE WEED","experimental","36","1,2,3,4","180,191.6655137638409,214.5309035250256,261.4218913692606","4,3,2,1","WHEAT CROP,WHEAT CROP,WHEAT CROP,WHEAT CROP","190,170,186.61371369268429,180.24499229294457","1,3,2,1","NETTLE WEED,THISTLE WEED,THISTLE WEED,THISTLE WEED","20,20,20,20","20,20,20,20","10,10,10,10","20,20,20,20","0,0,0,0","20,20,20,20","20,20,20,20","20,20,20,20","10,10,10,10","20,20,20,20","0,0,0,0","20,20,20,20","1,0,1,1","7823,3286,1892,918","11.6655137638409,22.86538976118471,46.890987844235006,-12.631924585989454","-8.851627142993944,16.613713692684286,-6.368721399739704,1.0648872706080421","0","0"
"528","86","text","0","99","1701131","0-0","","","","","","","","","","","","","","","","","","","","","","","","","","","","","","","","","","","","",""
"","","plant-game","0","100","1726109","0-0","","200","120","2","WHEAT CROP","Right","200","180","8","THISTLE WEED","experimental","37","1,2,3,4,5,6,7,8","180,209.15007114518798,205.63483295726414,190.36430500355806,178.25159198588736,187.15918435751792,227.14502306063417,237.014251125109","8,7,6,5,4,3,2,1","THISTLE WEED,THISTLE WEED,THISTLE WEED,THISTLE WEED,THISTLE WEED,THISTLE WEED,THISTLE WEED,THISTLE WEED","120,165.67992745070345,140,139.39738015855826,135.78590339821238,116.9994732670194,127.3351967229988,147.36627075009693","2,1,6,5,4,3,2,1","WHEAT CROP,WHEAT CROP,CORN CROP,CORN CROP,CORN CROP,CORN CROP,CORN CROP,CORN CROP","0,0,0,0,0,0,0,0","20,20,20,20,20,20,20,20","10,10,10,10,10,10,10,10","20,20,20,20,20,20,20,20","20,20,20,20,20,20,20,20","20,20,20,20,20,20,20,20","0,0,0,0,0,0,0,0","20,20,20,20,20,20,20,20","10,10,10,10,10,10,10,10","20,20,20,20,20,20,20,20","20,20,20,20,20,20,20,20","20,20,20,20,20,20,20,20","1,1,0,0,1,1,0,0","9706,894,3277,707,1353,663,1400,407","29.15007114518799,-3.515238187923842,-15.270527953706083,-12.112713017670693,8.907592371630571,39.985838703116244,9.869228064474848,12.583927975953586","45.679927450703445,21.764528437170654,-0.6026198414417384,-3.6114767603458815,-18.786430131192986,10.33572345597941,20.03107402709814,13.109215855769401","0","0"
"497","86","text","0","101","1726716","0-0","","","","","","","","","","","","","","","","","","","","","","","","","","","","","","","","","","","","",""
"","","plant-game","0","102","1821228","0-0","","200","160","8","WHEAT CROP","Right","200","190","2","NETTLE WEED","experimental","38","1,2,3,4,5,6,7,8","190,150.47039689000889,140,171.69730977702108,178.2651596406764,168.89199105749753,188.04048221216217,200.79180658581396","2,1,6,5,4,3,2,1","NETTLE WEED,NETTLE WEED,THISTLE WEED,THISTLE WEED,THISTLE WEED,THISTLE WEED,THISTLE WEED,THISTLE WEED","160,157.25040566302877,180.49735556695984,214.30880218333073,230.75765669251837,269.5970569977125,290.0324750515046,335.9669507420379","8,7,6,5,4,3,2,1","WHEAT CROP,WHEAT CROP,WHEAT CROP,WHEAT CROP,WHEAT CROP,WHEAT CROP,WHEAT CROP,WHEAT CROP","0,0,0,0,0,0,0,0","20,20,20,20,20,20,20,20","10,10,10,10,10,10,10,10","20,20,20,20,20,20,20,20","20,20,20,20,20,20,20,20","20,20,20,20,20,20,20,20","0,0,0,0,0,0,0,0","20,20,20,20,20,20,20,20","10,10,10,10,10,10,10,10","20,20,20,20,20,20,20,20","20,20,20,20,20,20,20,20","20,20,20,20,20,20,20,20","0,1,1,1,1,1,1,0","73451,3626,3225,1360,838,696,1195,1921","-39.52960310999112,0.8164510598100279,31.69730977702106,6.567849863655317,-9.373168583178852,19.148491154664633,12.751324373651777,-13.932203596479207","-2.7495943369712412,23.246949903931064,33.81144661637087,16.44885450918764,38.83940030519415,20.435418053792084,45.93447569053332,-8.695053641279747","0","0"
"571","86","text","0","103","1821879","0-0","","","","","","","","","","","","","","","","","","","","","","","","","","","","","","","","","","","","",""
"","","plant-game","0","104","1847234","0-0","","200","160","2","WHEAT CROP","Right","200","180","8","NETTLE WEED","experimental","39","1,2,3,4,5,6,7,8","180,189.1342149133862,218.6871675950761,234.94782555935603,242.76841843328398,270.26042730900866,328.0352144476201,362.61730634193736","8,7,6,5,4,3,2,1","NETTLE WEED,NETTLE WEED,NETTLE WEED,NETTLE WEED,NETTLE WEED,NETTLE WEED,NETTLE WEED,NETTLE WEED","160,163.66906479224826,140,154.1792135022026,171.12864612114873,165.71666406185642,182.81326096191293,218.11215546450083","2,1,6,5,4,3,2,1","WHEAT CROP,WHEAT CROP,CORN CROP,CORN CROP,CORN CROP,CORN CROP,CORN CROP,CORN CROP","0,0,0,0,0,0,0,0","20,20,20,20,20,20,20,20","10,10,10,10,10,10,10,10","20,20,20,20,20,20,20,20","20,20,20,20,20,20,20,20","20,20,20,20,20,20,20,20","0,0,0,0,0,0,0,0","20,20,20,20,20,20,20,20","10,10,10,10,10,10,10,10","20,20,20,20,20,20,20,20","20,20,20,20,20,20,20,20","20,20,20,20,20,20,20,20","0,0,0,0,0,1,1,1","11359,651,3225,346,484,1027,509,479","9.134214913386176,29.55295268168991,16.260657964279943,7.8205928739279535,27.492008875724657,57.77478713861144,34.58209189431726,53.437683785145865","3.6690647922482524,-16.46224586850232,14.179213502202607,16.94943261894614,-5.411982059292306,17.09659690005652,35.29889450258789,36.44727757067585","0","0"
"765","86","text","0","105","1848108","0-0","","","","","","","","","","","","","","","","","","","","","","","","","","","","","","","","","","","","",""
"","","plant-game","0","106","1894090","0-0","","200","190","8","CORN CROP","Left","200","160","4","THISTLE WEED","experimental","40","1,2,3,4,5,6,7,8","190,237.860037923926,216.39945116856046,272.11976332929856,313.6450457493737,344.75094378797655,344.79533725475335,365.6897718557015","8,7,6,5,4,3,2,1","CORN CROP,CORN CROP,CORN CROP,CORN CROP,CORN CROP,CORN CROP,CORN CROP,CORN CROP","160,192.5292940093775,221.49898723425383,228.08633680817414,160,137.90582314136452,137.14006252280927,146.13251615609317","4,3,2,1,4,3,2,1","THISTLE WEED,THISTLE WEED,THISTLE WEED,THISTLE WEED,NETTLE WEED,NETTLE WEED,NETTLE WEED,NETTLE WEED","20,20,20,20,20,20,20,20","20,20,20,20,20,20,20,20","10,10,10,10,10,10,10,10","20,20,20,20,20,20,20,20","0,0,0,0,0,0,0,0","20,20,20,20,20,20,20,20","20,20,20,20,20,20,20,20","20,20,20,20,20,20,20,20","10,10,10,10,10,10,10,10","20,20,20,20,20,20,20,20","0,0,0,0,0,0,0,0","20,20,20,20,20,20,20,20","0,1,0,0,1,1,1,1","23440,2895,3116,2320,4035,1297,976,1005","47.860037923926,-21.460586755365547,55.72031216073808,41.52528242007514,31.105898038602845,0.04439346677680301,20.894434600948173,-6.442522461678875","32.5292940093775,28.96969322487632,6.5873495739203065,36.66024528753702,-22.09417685863547,-0.7657606185552472,8.992453633283894,-1.5632325109708898","0","0"
"528","86","text","0","107","1894758","0-0","","","","","","","","","","","","","","","","","","","","","","","","","","","","","","","","","","","","",""
"","","plant-game","0","108","1926495","0-0","","200","160","1","WHEAT CROP","Left","200","120","8","NETTLE WEED","experimental","41","1,2,3,4,5,6,7,8","160,130,110.9812152085225,126.67565859072035,145.41718275878873,154.1642620155031,201.02235798217657,283.34699929535043","1,7,6,5,4,3,2,1","WHEAT CROP,CORN CROP,CORN CROP,CORN CROP,CORN CROP,CORN CROP,CORN CROP,CORN CROP","120,135.28127043112522,139.38870903209573,149.4762873882411,154.8034480732611,160.34535384515158,158.97138406902062,186.09379760746808","8,7,6,5,4,3,2,1","NETTLE WEED,NETTLE WEED,NETTLE WEED,NETTLE WEED,NETTLE WEED,NETTLE WEED,NETTLE WEED,NETTLE WEED","20,20,20,20,20,20,20,20","20,20,20,20,20,20,20,20","10,10,10,10,10,10,10,10","20,20,20,20,20,20,20,20","0,0,0,0,0,0,0,0","20,20,20,20,20,20,20,20","20,20,20,20,20,20,20,20","20,20,20,20,20,20,20,20","10,10,10,10,10,10,10,10","20,20,20,20,20,20,20,20","0,0,0,0,0,0,0,0","20,20,20,20,20,20,20,20","1,0,0,0,0,0,0,1","8272,3762,2828,2498,1973,1356,2159,1955","-15.513294778587355,-19.0187847914775,15.694443382197846,18.74152416806837,8.74707925671439,46.858095966673446,82.32464131317383,3.408739825047416","15.281270431125211,4.1074386009705215,10.087578356145379,5.3271606850199955,5.5419057718904785,-1.37396977613097,27.122413538447454,36.74885225542792","0","0"
"548","86","text","0","109","1927133","0-0","","","","","","","","","","","","","","","","","","","","","","","","","","","","","","","","","","","","",""
"","","plant-game","0","110","1943917","0-0","","200","180","1","WHEAT CROP","Left","200","180","2","NETTLE WEED","experimental","42","1,2","180,190","1,1","WHEAT CROP,CORN CROP","180,186.6885090431405","2,1","NETTLE WEED,NETTLE WEED","20,20","20,20","10,10","20,20","0,0","20,20","20,20","20,20","10,10","20,20","0,0","20,20","1,1","7242,2481","18.22997537888598,-11.078022757170576","6.68850904314049,8.279678320476494","0","0"
"539","86","text","0","111","1944550","0-0","","","","","","","","","","","","","","","","","","","","","","","","","","","","","","","","","","","","",""
"","","plant-game","0","112","1953630","0-0","","200","180","1","WHEAT CROP","Right","200","120","1","NETTLE WEED","experimental","43","1","120","1","NETTLE WEED","180","1","WHEAT CROP","0","20","10","20","20","20","0","20","10","20","20","20","1","5416","59.71905871752619","17.022920639594208","0","0"
"964","86","text","0","113","1954703","0-0","","","","","","","","","","","","","","","","","","","","","","","","","","","","","","","","","","","","",""
"","","plant-game","0","114","1984914","0-0","","200","190","1","WHEAT CROP","Left","200","190","4","NETTLE WEED","experimental","44","1,2,3,4","190,170,210.88862866860387,240.05978237640352","1,3,2,1","WHEAT CROP,CORN CROP,CORN CROP,CORN CROP","190,201.53500534644593,168.21443343774473,181.3104361293531","4,3,2,1","NETTLE WEED,NETTLE WEED,NETTLE WEED,NETTLE WEED","20,20,20,20","20,20,20,20","10,10,10,10","20,20,20,20","0,0,0,0","20,20,20,20","20,20,20,20","20,20,20,20","10,10,10,10","20,20,20,20","0,0,0,0","20,20,20,20","0,1,1,1","16945,3406,2311,1465","11.179455543166922,40.88862866860387,29.171153707799636,9.315071412566539","11.535005346445942,-33.32057190870121,13.096002691608348,-6.931142021748002","0","0"
"520","86","text","0","115","1985514","0-0","","","","","","","","","","","","","","","","","","","","","","","","","","","","","","","","","","","","",""
"","","plant-game","0","116","2012563","0-0","","200","160","4","CORN CROP","Right","200","190","8","NETTLE WEED","experimental","45","1,2,3,4,5,6,7,8","190,169.84242098875606,141.7033033863225,222.29543362387355,232.8557827124929,225.01553207206797,250.64835995179277,254.6192577573775","8,7,6,5,4,3,2,1","NETTLE WEED,NETTLE WEED,NETTLE WEED,NETTLE WEED,NETTLE WEED,NETTLE WEED,NETTLE WEED,NETTLE WEED","160,155.98111818456982,122.462487759263,169.82700384492796,160,160.0521745806347,209.64724857005666,178.94414506451125","4,3,2,1,4,3,2,1","CORN CROP,CORN CROP,CORN CROP,CORN CROP,WHEAT CROP,WHEAT CROP,WHEAT CROP,WHEAT CROP","0,0,0,0,0,0,0,0","20,20,20,20,20,20,20,20","10,10,10,10,10,10,10,10","20,20,20,20,20,20,20,20","20,20,20,20,20,20,20,20","20,20,20,20,20,20,20,20","0,0,0,0,0,0,0,0","20,20,20,20,20,20,20,20","10,10,10,10,10,10,10,10","20,20,20,20,20,20,20,20","20,20,20,20,20,20,20,20","20,20,20,20,20,20,20,20","0,0,1,0,0,0,0,1","8930,2218,1878,1738,1384,1073,1025,1472","-20.15757901124394,-28.13911760243357,80.59213023755106,10.560349088619333,-7.840250640424933,25.6328278797248,3.9708978055847464,6.429579976691613","-4.018881815430168,-33.518630425306824,47.364516085664945,-22.264867106195897,0.05217458063469983,49.59507398942196,-30.703103505545425,14.620710677505441","0","0"
"450","86","text","0","117","2013113","0-0","","","","","","","","","","","","","","","","","","","","","","","","","","","","","","","","","","","","",""
"","","plant-game","0","118","2070121","0-0","","200","120","2","CORN CROP","Right","200","190","8","THISTLE WEED","experimental","46","1,2,3,4,5,6,7,8","190,226.70564638608707,237.57313738876383,193.04382277422036,220.91919019471553,220.08138443314985,225.00520365880513,253.23088049210511","8,7,6,5,4,3,2,1","THISTLE WEED,THISTLE WEED,THISTLE WEED,THISTLE WEED,THISTLE WEED,THISTLE WEED,THISTLE WEED,THISTLE WEED","120,102.07417259626375,140,109.92978729140859,153.87292725113667,178.99702239434924,178.2955549759817,206.57689859266034","2,1,6,5,4,3,2,1","CORN CROP,CORN CROP,WHEAT CROP,WHEAT CROP,WHEAT CROP,WHEAT CROP,WHEAT CROP,WHEAT CROP","0,0,0,0,0,0,0,0","20,20,20,20,20,20,20,20","10,10,10,10,10,10,10,10","20,20,20,20,20,20,20,20","20,20,20,20,20,20,20,20","20,20,20,20,20,20,20,20","0,0,0,0,0,0,0,0","20,20,20,20,20,20,20,20","10,10,10,10,10,10,10,10","20,20,20,20,20,20,20,20","20,20,20,20,20,20,20,20","20,20,20,20,20,20,20,20","0,0,0,1,1,1,1,1","42516,1871,2077,1470,820,613,470,633","36.70564638608707,10.867491002676745,-44.52931461454348,27.875367420495163,-0.8378057615656829,4.923819225655279,28.225676833299985,-21.71120146167471","-17.925827403736253,25.7260522684315,-30.07021270859142,43.94313995972807,25.12409514321258,-0.7014674183675496,28.281343616678647,21.630479790239434","0","0"
"577","86","text","0","119","2070754","0-0","","","","","","","","","","","","","","","","","","","","","","","","","","","","","","","","","","","","",""
"","","plant-game","0","120","2087401","0-0","","200","190","1","WHEAT CROP","Left","200","120","2","THISTLE WEED","experimental","47","1,2","190,190","1,1","WHEAT CROP,CORN CROP","120,133.97229776855266","2,1","THISTLE WEED,THISTLE WEED","20,20","20,20","10,10","20,20","0,0","20,20","20,20","20,20","10,10","20,20","0,0","20,20","0,0","8077,3407","26.001743094692493,4.920115939693083","13.972297768552652,27.06598439439903","0","0"
"540","86","text","0","121","2088031","0-0","","","","","","","","","","","","","","","","","","","","","","","","","","","","","","","","","","","","",""
"","","plant-game","0","122","2147211","0-0","","200","180","2","CORN CROP","Right","200","190","8","NETTLE WEED","experimental","48","1,2,3,4,5,6,7,8","190,156.27227574862448,178.639115848045,159.10011842372492,153.39000963143846,178.31285599638818,155.43942363625663,167.32027610915628","8,7,6,5,4,3,2,1","NETTLE WEED,NETTLE WEED,NETTLE WEED,NETTLE WEED,NETTLE WEED,NETTLE WEED,NETTLE WEED,NETTLE WEED","180,232.83642336874505,140,149.17025750340395,151.65156681532326,130.39164387337684,157.4350000067868,182.3110984505166","2,1,6,5,4,3,2,1","CORN CROP,CORN CROP,WHEAT CROP,WHEAT CROP,WHEAT CROP,WHEAT CROP,WHEAT CROP,WHEAT CROP","0,0,0,0,0,0,0,0","20,20,20,20,20,20,20,20","10,10,10,10,10,10,10,10","20,20,20,20,20,20,20,20","20,20,20,20,20,20,20,20","20,20,20,20,20,20,20,20","0,0,0,0,0,0,0,0","20,20,20,20,20,20,20,20","10,10,10,10,10,10,10,10","20,20,20,20,20,20,20,20","20,20,20,20,20,20,20,20","20,20,20,20,20,20,20,20","1,1,0,0,0,1,1,1","39037,1640,3349,1787,1684,1798,1474,1133","-33.72772425137552,22.366840099420518,-19.538997424320087,-5.710108792286475,24.922846364949727,-22.873432360131538,11.880852472899658,6.209811427306583","52.83642336874503,28.234673816168893,9.170257503403956,2.481309311919314,-21.259922941946435,27.043356133409947,24.8760984437298,14.633664151727535","0","0"
"1850","86","text","0","123","2149217","0-0","","","","","","","","","","","","","","","","","","","","","","","","","","","","","","","","","","","","",""
"","","plant-game","0","124","2163338","0-0","","200","180","1","WHEAT CROP","Left","200","120","4","THISTLE WEED","experimental","49","1,2,3,4","180,170,194.89119385383486,213.4507088625144","1,3,2,1","WHEAT CROP,CORN CROP,CORN CROP,CORN CROP","120,126.5078394812617,111.23141283276097,110.87689626555675","4,3,2,1","THISTLE WEED,THISTLE WEED,THISTLE WEED,THISTLE WEED","20,20,20,20","20,20,20,20","10,10,10,10","20,20,20,20","0,0,0,0","20,20,20,20","20,20,20,20","20,20,20,20","10,10,10,10","20,20,20,20","0,0,0,0","20,20,20,20","0,0,0,0","3287,3453,941,967","45.25595085311953,24.891193853834878,18.559515008679533,2.4169187419279616","6.5078394812616995,-15.276426648500731,-0.3545165672042181,16.281955323981613","0","0"
"470","86","text","0","125","2163933","0-0","","","","","","","","","","","","","","","","","","","","","","","","","","","","","","","","","","","","",""
"","","plant-game","0","126","2188752","0-0","","200","120","1","WHEAT CROP","Left","200","120","8","NETTLE WEED","experimental","50","1,2,3,4,5,6,7,8","120,130,148.00423029304224,155.77983167883644,150.5981082403111,188.7205944754639,242.45115547069776,246.99920531122407","1,7,6,5,4,3,2,1","WHEAT CROP,CORN CROP,CORN CROP,CORN CROP,CORN CROP,CORN CROP,CORN CROP,CORN CROP","120,135.39932693598067,122.10872421071383,77.20783567034852,74.95205257429649,81.18034754264525,124.65663223507514,146.3450657691285","8,7,6,5,4,3,2,1","NETTLE WEED,NETTLE WEED,NETTLE WEED,NETTLE WEED,NETTLE WEED,NETTLE WEED,NETTLE WEED,NETTLE WEED","20,20,20,20,20,20,20,20","20,20,20,20,20,20,20,20","10,10,10,10,10,10,10,10","20,20,20,20,20,20,20,20","0,0,0,0,0,0,0,0","20,20,20,20,20,20,20,20","20,20,20,20,20,20,20,20","20,20,20,20,20,20,20,20","10,10,10,10,10,10,10,10","20,20,20,20,20,20,20,20","0,0,0,0,0,0,0,0","20,20,20,20,20,20,20,20","1,1,1,1,0,0,0,0","5335,4276,1246,1850,1553,1593,1256,871","7.989004955941736,18.004230293042234,7.7756013857942055,-5.18172343852536,38.12248623515282,53.730560995233844,4.548049840526316,15.732168565371463","15.39932693598068,-13.290602725266844,-44.90088854036532,-2.255783096052032,6.228294968348765,43.47628469242989,21.688433534053367,17.908702599144444","0","0"
"524","86","text","0","127","2189376","0-0","","","","","","","","","","","","","","","","","","","","","","","","","","","","","","","","","","","","",""
"","","plant-game","0","128","2201686","0-0","","200","160","1","CORN CROP","Right","200","120","1","NETTLE WEED","experimental","51","1","120","1","NETTLE WEED","160","1","CORN CROP","0","20","10","20","20","20","0","20","10","20","20","20","1","5694","2.970091900263327","19.350460801135508","0","0"
"840","86","text","0","129","2202651","0-0","","","","","","","","","","","","","","","","","","","","","","","","","","","","","","","","","","","","",""
"","","plant-game","0","130","2217704","0-0","","200","120","4","WHEAT CROP","Left","200","160","4","NETTLE WEED","experimental","52","1,2,3,4","120,144.56980111009065,130.0111865906183,180.00071838946","4,3,2,1","WHEAT CROP,WHEAT CROP,WHEAT CROP,WHEAT CROP","160,144.98815856505618,137.78706775345285,146.1900223128903","4,3,2,1","NETTLE WEED,NETTLE WEED,NETTLE WEED,NETTLE WEED","20,20,20,20","20,20,20,20","10,10,10,10","20,20,20,20","0,0,0,0","20,20,20,20","20,20,20,20","20,20,20,20","10,10,10,10","20,20,20,20","0,0,0,0","20,20,20,20","1,1,0,0","6553,1179,1615,1142","24.56980111009065,-14.55861451947235,49.98953179884169,10.704170894412009","-15.01184143494383,-7.20109081160334,8.402954559437472,9.774353775231443","0","0"
"459","86","text","0","131","2218272","0-0","","","","","","","","","","","","","","","","","","","","","","","","","","","","","","","","","","","","",""
"","","plant-game","0","132","2244594","0-0","","200","160","1","CORN CROP","Right","200","190","8","THISTLE WEED","experimental","53","1,2,3,4,5,6,7,8","190,216.6399849332643,219.02781242304926,220.2357004073248,231.13337459309707,246.82352701097886,238.78831092619484,234.40562878061712","8,7,6,5,4,3,2,1","THISTLE WEED,THISTLE WEED,THISTLE WEED,THISTLE WEED,THISTLE WEED,THISTLE WEED,THISTLE WEED,THISTLE WEED","160,130,133.35330489134455,127.56623975162833,139.06115616583807,132.83761073425174,125.02874262670288,116.4720914238564","1,7,6,5,4,3,2,1","CORN CROP,WHEAT CROP,WHEAT CROP,WHEAT CROP,WHEAT CROP,WHEAT CROP,WHEAT CROP,WHEAT CROP","0,0,0,0,0,0,0,0","20,20,20,20,20,20,20,20","10,10,10,10,10,10,10,10","20,20,20,20,20,20,20,20","20,20,20,20,20,20,20,20","20,20,20,20,20,20,20,20","0,0,0,0,0,0,0,0","20,20,20,20,20,20,20,20","10,10,10,10,10,10,10,10","20,20,20,20,20,20,20,20","20,20,20,20,20,20,20,20","20,20,20,20,20,20,20,20","1,0,0,0,0,0,0,0","10415,5175,442,457,470,2103,562,502","26.639984933264298,2.387827489784967,1.2078879842755483,10.897674185772274,15.690152417881793,-8.035216084784027,-4.3826821455777045,14.323140578862217","2.2852238618494276,3.3533048913445618,-5.787065139716212,11.494916414209735,-6.223545431586323,-7.808868107548857,-8.556651202846478,27.4776719138568","0","0"
"566","86","text","0","133","2245270","0-0","","","","","","","","","","","","","","","","","","","","","","","","","","","","","","","","","","","","",""
"","","plant-game","0","134","2257909","0-0","","200","190","4","WHEAT CROP","Right","200","190","4","THISTLE WEED","experimental","54","1,2,3,4","190,227.6915629567714,239.057055878199,235.9815030953142","4,3,2,1","THISTLE WEED,THISTLE WEED,THISTLE WEED,THISTLE WEED","190,217.28362787683147,278.9036248146422,223.62851561393265","4,3,2,1","WHEAT CROP,WHEAT CROP,WHEAT CROP,WHEAT CROP","0,0,0,0","20,20,20,20","10,10,10,10","20,20,20,20","20,20,20,20","20,20,20,20","0,0,0,0","20,20,20,20","10,10,10,10","20,20,20,20","20,20,20,20","20,20,20,20","1,1,0,0","5034,1005,2127,1050","37.69156295677141,11.36549292142759,-3.075552782884818,-4.952263959658233","27.283627876831467,61.61999693781076,-55.27510920070958,1.7107150453143238","0","0"
"709","86","text","0","135","2258738","0-0","","","","","","","","","","","","","","","","","","","","","","","","","","","","","","","","","","","","",""
"","","plant-game","0","136","2288609","0-0","","200","180","1","WHEAT CROP","Left","200","180","8","NETTLE WEED","experimental","55","1,2,3,4,5,6,7,8","180,130,149.43882660229858,218.2645379985331,228.91837625136395,263.2222395118188,252.28936226577184,259.4876586429317","1,7,6,5,4,3,2,1","WHEAT CROP,CORN CROP,CORN CROP,CORN CROP,CORN CROP,CORN CROP,CORN CROP,CORN CROP","180,167.38796660479957,125.11511076136043,122.24862365271613,129.19115257249925,196.62968904029708,185.76244156157478,219.68599847708202","8,7,6,5,4,3,2,1","NETTLE WEED,NETTLE WEED,NETTLE WEED,NETTLE WEED,NETTLE WEED,NETTLE WEED,NETTLE WEED,NETTLE WEED","20,20,20,20,20,20,20,20","20,20,20,20,20,20,20,20","10,10,10,10,10,10,10,10","20,20,20,20,20,20,20,20","0,0,0,0,0,0,0,0","20,20,20,20,20,20,20,20","20,20,20,20,20,20,20,20","20,20,20,20,20,20,20,20","10,10,10,10,10,10,10,10","20,20,20,20,20,20,20,20","0,0,0,0,0,0,0,0","20,20,20,20,20,20,20,20","0,1,0,0,0,1,1,1","8236,3259,2454,1774,2249,2357,1703,1413","37.049230517307166,19.438826602298576,68.82571139623451,10.653838252830857,34.303863260454854,-10.932877246046985,7.19829637715984,10.305328066940948","-12.61203339520042,-42.272855843439146,-2.8664871086442965,6.942528919783124,67.43853646779783,-10.867247478722295,33.92355691550725,-14.282604359273297","0","0"
"379","86","text","0","137","2289109","0-0","","","","","","","","","","","","","","","","","","","","","","","","","","","","","","","","","","","","",""
"","","plant-game","0","138","2329290","0-0","","200","120","8","CORN CROP","Right","200","190","8","THISTLE WEED","experimental","56","1,2,3,4,5,6,7,8","190,245.04641583525265,232.18107967309254,232.23449351687793,239.8924748907777,251.16827817178856,274.04114802437937,292.7918817447033","8,7,6,5,4,3,2,1","THISTLE WEED,THISTLE WEED,THISTLE WEED,THISTLE WEED,THISTLE WEED,THISTLE WEED,THISTLE WEED,THISTLE WEED","120,136.36297634375651,139.81966575185092,146.09997278202002,188.81530559201622,229.33243646659355,276.2209456596641,307.00396328392515","8,7,6,5,4,3,2,1","CORN CROP,CORN CROP,CORN CROP,CORN CROP,CORN CROP,CORN CROP,CORN CROP,CORN CROP","0,0,0,0,0,0,0,0","20,20,20,20,20,20,20,20","10,10,10,10,10,10,10,10","20,20,20,20,20,20,20,20","20,20,20,20,20,20,20,20","20,20,20,20,20,20,20,20","0,0,0,0,0,0,0,0","20,20,20,20,20,20,20,20","10,10,10,10,10,10,10,10","20,20,20,20,20,20,20,20","20,20,20,20,20,20,20,20","20,20,20,20,20,20,20,20","1,1,1,1,1,1,0,0","26287,873,1836,1229,1683,1495,1323,847","55.04641583525264,-12.865336162160098,0.05341384378537839,7.657981373899744,11.275803281010853,22.872869852590803,18.750733720323932,17.775560308941788","16.36297634375651,3.4566894080944053,6.280307030169094,42.71533280999619,40.51713087457732,46.888509193070526,30.783017624261046,-18.128535835767416","0","0"
"443","86","text","0","139","2329913","0-0","","","","","","","","","","","","","","","","","","","","","","","","","","","","","","","","","","","","",""
"","","plant-game","0","140","2340089","0-0","","200","160","1","CORN CROP","Right","200","180","1","THISTLE WEED","experimental","57","1","180","1","THISTLE WEED","160","1","CORN CROP","0","20","10","20","20","20","0","20","10","20","20","20","0","7081","25.97125335022193","-19.15580552780937","0","0"
"640","86","text","0","141","2340889","0-0","","","","","","","","","","","","","","","","","","","","","","","","","","","","","","","","","","","","",""
"","","plant-game","0","142","2353617","0-0","","200","120","2","CORN CROP","Right","200","190","2","THISTLE WEED","experimental","58","1,2","190,197.57471198944475","2,1","THISTLE WEED,THISTLE WEED","120,146.34449311995664","2,1","CORN CROP,CORN CROP","0,0","20,20","10,10","20,20","20,20","20,20","0,0","20,20","10,10","20,20","20,20","20,20","1,0","8107,1427","7.574711989444751,-2.9480318815472324","26.34449311995663,15.938574820583414","0","0"
"469","86","text","0","143","2354256","0-0","","","","","","","","","","","","","","","","","","","","","","","","","","","","","","","","","","","","",""
"","","plant-game","0","144","2388597","0-0","","200","160","8","WHEAT CROP","Right","200","180","2","NETTLE WEED","experimental","59","1,2,3,4,5,6,7,8","180,200.2450142888255,140,179.91604820382267,185.63729884987737,203.82388315824656,243.88777061024683,211.56437979175703","2,1,6,5,4,3,2,1","NETTLE WEED,NETTLE WEED,THISTLE WEED,THISTLE WEED,THISTLE WEED,THISTLE WEED,THISTLE WEED,THISTLE WEED","160,172.00684908188353,138.48025594793887,187.70780250844234,196.77784542329306,206.22698095993292,231.9858883908954,236.42708737413295","8,7,6,5,4,3,2,1","WHEAT CROP,WHEAT CROP,WHEAT CROP,WHEAT CROP,WHEAT CROP,WHEAT CROP,WHEAT CROP,WHEAT CROP","0,0,0,0,0,0,0,0","20,20,20,20,20,20,20,20","10,10,10,10,10,10,10,10","20,20,20,20,20,20,20,20","20,20,20,20,20,20,20,20","20,20,20,20,20,20,20,20","0,0,0,0,0,0,0,0","20,20,20,20,20,20,20,20","10,10,10,10,10,10,10,10","20,20,20,20,20,20,20,20","20,20,20,20,20,20,20,20","20,20,20,20,20,20,20,20","1,1,1,1,1,1,0,0","10972,650,7753,1497,1631,1691,1669,1295","20.245014288825498,-0.7203288105220516,39.91604820382267,5.72125064605469,18.186584308369188,40.063887452000266,-32.323390818489806,-18.70427548797832","12.006849081883518,-33.52659313394467,49.22754656050348,9.070042914850703,9.449135536639869,25.758907430962502,4.441198983237534,-1.807244369894677","0","0"
"477","86","text","0","145","2389194","0-0","","","","","","","","","","","","","","","","","","","","","","","","","","","","","","","","","","","","",""
"","","plant-game","0","146","2404984","0-0","","200","160","4","CORN CROP","Right","200","120","4","THISTLE WEED","experimental","60","1,2,3,4","120,173.12577235984696,199.69373405781215,179.30857116957233","4,3,2,1","THISTLE WEED,THISTLE WEED,THISTLE WEED,THISTLE WEED","160,184.98562179847335,217.69226625439126,206.06142134599088","4,3,2,1","CORN CROP,CORN CROP,CORN CROP,CORN CROP","0,0,0,0","20,20,20,20","10,10,10,10","20,20,20,20","20,20,20,20","20,20,20,20","0,0,0,0","20,20,20,20","10,10,10,10","20,20,20,20","20,20,20,20","20,20,20,20","1,1,0,1","7585,1213,2096,1075","53.12577235984698,26.567961697965202,-20.385162888239826,11.215753888951884","24.985621798473332,32.706644455917896,-11.630844908400391,-22.43665507101234","2","0"
"313","86","text","0","147","2405417","0-0","","","","","","","","","","","","","","","","","","","","","","","","","","","","","","","","","","","","",""
"","","plant-game","0","148","2415117","0-0","","200","180","2","WHEAT CROP","Right","200","180","2","NETTLE WEED","experimental","61","1,2","180,235.8149315611359","2,1","NETTLE WEED,NETTLE WEED","180,180.2359178389627","2,1","WHEAT CROP,WHEAT CROP","0,0","20,20","10,10","20,20","20,20","20,20","0,0","20,20","10,10","20,20","20,20","20,20","1,1","3110,2716","55.814931561135886,-7.765563485478491","0.23591783896269902,6.832164298572902","0","0"
"463","86","text","0","149","2415720","0-0","","","","","","","","","","","","","","","","","","","","","","","","","","","","","","","","","","","","",""
"","","plant-game","0","150","2432325","0-0","","200","190","4","WHEAT CROP","Left","200","180","4","NETTLE WEED","experimental","62","1,2,3,4","190,139.65489229014673,178.4944210696404,228.34975255246394","4,3,2,1","WHEAT CROP,WHEAT CROP,WHEAT CROP,WHEAT CROP","180,175.60524845730754,203.46495755633998,238.1841571606347","4,3,2,1","NETTLE WEED,NETTLE WEED,NETTLE WEED,NETTLE WEED","20,20,20,20","20,20,20,20","10,10,10,10","20,20,20,20","0,0,0,0","20,20,20,20","20,20,20,20","20,20,20,20","10,10,10,10","20,20,20,20","0,0,0,0","20,20,20,20","1,0,0,1","4420,4653,2059,1603","-50.34510770985325,38.83952877949365,49.855331482823544,-18.189959732891385","-4.394751542692453,27.85970909903245,34.71919960429473,16.420867298356377","0","0"
"527","86","text","0","151","2432983","0-0","","","","","","","","","","","","","","","","","","","","","","","","","","","","","","","","","","","","",""
"","","plant-game","0","152","2447767","0-0","","200","160","4","CORN CROP","Left","200","190","4","THISTLE WEED","experimental","63","1,2,3,4","160,151.21239664103928,153.06850154112095,164.2857538252085","4,3,2,1","CORN CROP,CORN CROP,CORN CROP,CORN CROP","190,177.70637118521077,203.00997435360145,193.35737717116166","4,3,2,1","THISTLE WEED,THISTLE WEED,THISTLE WEED,THISTLE WEED","20,20,20,20","20,20,20,20","10,10,10,10","20,20,20,20","0,0,0,0","20,20,20,20","20,20,20,20","20,20,20,20","10,10,10,10","20,20,20,20","0,0,0,0","20,20,20,20","1,1,1,1","6944,1660,1300,1231","-8.787603358960718,1.856104900081679,11.21725228408756,-13.15274948719116","-12.293628814789223,25.30360316839068,-9.652597182439806,-7.138507799249841","0","0"
"401","86","text","0","153","2448329","0-0","","","","","","","","","","","","","","","","","","","","","","","","","","","","","","","","","","","","",""
"","","plant-game","0","154","2474900","0-0","","200","180","8","WHEAT CROP","Right","200","180","2","NETTLE WEED","experimental","64","1,2,3,4,5,6,7,8","180,212.4939102602803,140,189.37127063291567,215.49756536119602,241.49714890911775,276.66371327197993,290.7520640083746","2,1,6,5,4,3,2,1","NETTLE WEED,NETTLE WEED,THISTLE WEED,THISTLE WEED,THISTLE WEED,THISTLE WEED,THISTLE WEED,THISTLE WEED","180,195.67043357423182,229.60523838468328,215.4765477276761,232.38630638900406,260.27680395714196,302.4905811582877,312.02139314003745","8,7,6,5,4,3,2,1","WHEAT CROP,WHEAT CROP,WHEAT CROP,WHEAT CROP,WHEAT CROP,WHEAT CROP,WHEAT CROP,WHEAT CROP","0,0,0,0,0,0,0,0","20,20,20,20,20,20,20,20","10,10,10,10,10,10,10,10","20,20,20,20,20,20,20,20","20,20,20,20,20,20,20,20","20,20,20,20,20,20,20,20","0,0,0,0,0,0,0,0","20,20,20,20,20,20,20,20","10,10,10,10,10,10,10,10","20,20,20,20,20,20,20,20","20,20,20,20,20,20,20,20","20,20,20,20,20,20,20,20","0,0,1,0,0,1,0,0","7740,1312,3740,1743,1469,1297,1023,545","32.49391026028029,-17.839639142775624,49.37127063291566,26.126294728280367,25.999583547921745,35.16656436286218,14.088350736394661,5.575987066294054","15.670433574231827,33.93480481045147,-14.12869065700719,16.90975866132797,27.890497568137892,42.213777201145746,9.530811981749771,-1.962457321827821","2","0"
"447","86","text","0","155","2475427","0-0","","","","","","","","","","","","","","","","","","","","","","","","","","","","","","","","","","","","",""
"","","plant-game","0","156","2496650","0-0","","200","190","4","CORN CROP","Right","200","160","2","NETTLE WEED","experimental","65","1,2,3,4","160,173.21040372878477,180,216.3478922594281","2,1,2,1","NETTLE WEED,NETTLE WEED,THISTLE WEED,THISTLE WEED","190,216.086777906879,232.4126828968426,291.6890795227019","4,3,2,1","CORN CROP,CORN CROP,CORN CROP,CORN CROP","0,0,0,0","20,20,20,20","10,10,10,10","20,20,20,20","20,20,20,20","20,20,20,20","0,0,0,0","20,20,20,20","10,10,10,10","20,20,20,20","20,20,20,20","20,20,20,20","1,1,1,0","9506,942,2806,1541","13.210403728784776,45.04253380018929,36.3478922594281,17.540899598892683","26.086777906879014,16.3259049899636,59.276396625859306,14.295159474068608","0","0"
"431","86","text","0","157","2497169","0-0","","","","","","","","","","","","","","","","","","","","","","","","","","","","","","","","","","","","",""
"","","plant-game","0","158","2524602","0-0","","200","190","4","CORN CROP","Right","200","160","8","THISTLE WEED","experimental","66","1,2,3,4,5,6,7,8","160,153.67235140433436,171.19903232948172,161.4263151706528,176.22290300974464,201.32856738306089,205.25458907180357,232.82483773513724","8,7,6,5,4,3,2,1","THISTLE WEED,THISTLE WEED,THISTLE WEED,THISTLE WEED,THISTLE WEED,THISTLE WEED,THISTLE WEED,THISTLE WEED","190,204.11156500585304,232.2048817881203,253.0300542482518,160,180.91149369903818,202.84995741485136,206.43162151237095","4,3,2,1,4,3,2,1","CORN CROP,CORN CROP,CORN CROP,CORN CROP,WHEAT CROP,WHEAT CROP,WHEAT CROP,WHEAT CROP","0,0,0,0,0,0,0,0","20,20,20,20,20,20,20,20","10,10,10,10,10,10,10,10","20,20,20,20,20,20,20,20","20,20,20,20,20,20,20,20","20,20,20,20,20,20,20,20","0,0,0,0,0,0,0,0","20,20,20,20,20,20,20,20","10,10,10,10,10,10,10,10","20,20,20,20,20,20,20,20","20,20,20,20,20,20,20,20","20,20,20,20,20,20,20,20","1,1,0,0,0,1,1,1","3419,1617,1516,1886,5515,2751,1414,1180","-6.327648595665629,17.526680925147375,-9.77271715882894,14.796587839091837,25.105664373316255,3.92602168874269,27.570248663333672,3.5803660411575713","14.11156500585303,28.093316782267262,20.825172460131487,45.70330266897399,20.911493699038175,21.938463715813196,3.5816640975195817,17.382375124873022","0","0"
"423","86","text","0","159","2525125","0-0","","","","","","","","","","","","","","","","","","","","","","","","","","","","","","","","","","","","",""
"","","plant-game","0","160","2542175","0-0","","200","160","4","WHEAT CROP","Right","200","160","4","THISTLE WEED","experimental","67","1,2,3,4","160,203.52872169741798,224.71863630917207,246.9343974213994","4,3,2,1","THISTLE WEED,THISTLE WEED,THISTLE WEED,THISTLE WEED","160,187.70256538028636,211.82934267322503,265.60591757547394","4,3,2,1","WHEAT CROP,WHEAT CROP,WHEAT CROP,WHEAT CROP","0,0,0,0","20,20,20,20","10,10,10,10","20,20,20,20","20,20,20,20","20,20,20,20","0,0,0,0","20,20,20,20","10,10,10,10","20,20,20,20","20,20,20,20","20,20,20,20","1,1,1,0","9339,1355,1341,1545","43.52872169741798,21.1899146117541,22.215761112227344,9.673259778147921","27.70256538028636,24.12677729293868,53.776574902248925,-20.930470817749367","0","0"
"74","86","text","0","161","2542329","0-0","","","","","","","","","","","","","","","","","","","","","","","","","","","","","","","","","","","","",""
"","","plant-game","0","162","2559884","0-0","","200","160","8","WHEAT CROP","Left","200","120","8","NETTLE WEED","experimental","68","1,2,3,4,5,6,7,8","160,134.11074428454052,153.0584376616739,194.21162480131093,202.72613009053526,223.05015754143975,258.8596769683702,278.0861929368433","8,7,6,5,4,3,2,1","WHEAT CROP,WHEAT CROP,WHEAT CROP,WHEAT CROP,WHEAT CROP,WHEAT CROP,WHEAT CROP,WHEAT CROP","120,95.33017387755766,147.6012728699094,210.02836698916315,248.60602144325833,245.90380337256752,240.20056759691272,242.47235217739308","8,7,6,5,4,3,2,1","NETTLE WEED,NETTLE WEED,NETTLE WEED,NETTLE WEED,NETTLE WEED,NETTLE WEED,NETTLE WEED,NETTLE WEED","20,20,20,20,20,20,20,20","20,20,20,20,20,20,20,20","10,10,10,10,10,10,10,10","20,20,20,20,20,20,20,20","0,0,0,0,0,0,0,0","20,20,20,20,20,20,20,20","20,20,20,20,20,20,20,20","20,20,20,20,20,20,20,20","10,10,10,10,10,10,10,10","20,20,20,20,20,20,20,20","0,0,0,0,0,0,0,0","20,20,20,20,20,20,20,20","1,0,0,0,0,0,0,0","3443,2364,1202,1228,2244,1089,1023,856","-25.88925571545949,18.947693377133405,41.153187139637026,8.514505289224337,20.324027450904474,35.80951942693045,19.226515968473084,67.1944298498348","-24.669826122442345,52.27109899235175,62.42709411925374,38.57765445409517,-2.702218070690794,-5.70323577565479,2.2717845804803645,51.566243255011365","0","0"
"408","86","text","0","163","2560412","0-0","","","","","","","","","","","","","","","","","","","","","","","","","","","","","","","","","","","","",""
"","","plant-game","0","164","2582205","0-0","","200","160","2","CORN CROP","Right","200","160","4","NETTLE WEED","experimental","69","1,2,3,4","160,151.04435551190187,150.56970600794958,163.47237188124265","4,3,2,1","NETTLE WEED,NETTLE WEED,NETTLE WEED,NETTLE WEED","160,184.96435947517116,180,195.62748066264714","2,1,2,1","CORN CROP,CORN CROP,WHEAT CROP,WHEAT CROP","0,0,0,0","20,20,20,20","10,10,10,10","20,20,20,20","20,20,20,20","20,20,20,20","0,0,0,0","20,20,20,20","10,10,10,10","20,20,20,20","20,20,20,20","20,20,20,20","1,1,1,1","7926,1459,5357,1416","-8.955644488098116,-0.4746495039522891,12.902665873293078,41.93649655684986","24.964359475171154,24.31342177350799,15.627480662647155,2.215401667385425","0","0"
"727","86","text","0","165","2583052","0-0","","","","","","","","","","","","","","","","","","","","","","","","","","","","","","","","","","","","",""
"","","plant-game","0","166","2639509","0-0","","200","120","4","WHEAT CROP","Left","200","160","8","THISTLE WEED","experimental","70","1,2,3,4,5,6,7,8","120,123.47562346665879,134.1643774663701,120.78999729936517,160,161.83978865088164,131.96828097920613,155.99662475652678","4,3,2,1,4,3,2,1","WHEAT CROP,WHEAT CROP,WHEAT CROP,WHEAT CROP,CORN CROP,CORN CROP,CORN CROP,CORN CROP","160,165.4030260904728,175.30421843838295,179.19617167672752,171.52794309308015,161.48423161346014,172.2080165456767,147.7229516624604","8,7,6,5,4,3,2,1","THISTLE WEED,THISTLE WEED,THISTLE WEED,THISTLE WEED,THISTLE WEED,THISTLE WEED,THISTLE WEED,THISTLE WEED","20,20,20,20,20,20,20,20","20,20,20,20,20,20,20,20","10,10,10,10,10,10,10,10","20,20,20,20,20,20,20,20","0,0,0,0,0,0,0,0","20,20,20,20,20,20,20,20","20,20,20,20,20,20,20,20","20,20,20,20,20,20,20,20","10,10,10,10,10,10,10,10","20,20,20,20,20,20,20,20","0,0,0,0,0,0,0,0","20,20,20,20,20,20,20,20","0,0,1,1,1,1,1,0","13977,1170,6219,1240,21462,1535,1444,1906","3.475623466658785,10.688753999711308,-13.374380167004924,8.655707040874594,1.8397886508816366,-29.871507671675516,24.028343777320657,59.827003321713406","5.40302609047278,9.901192347910142,3.8919532383445743,-7.668228583647364,-10.043711479620004,10.723784932216585,-24.48506488321632,-7.048869205088025","0","0"
"790","86","text","0","167","2640409","0-0","","","","","","","","","","","","","","","","","","","","","","","","","","","","","","","","","","","","",""
"","","plant-game","0","168","2648885","0-0","","200","180","1","CORN CROP","Left","200","160","1","THISTLE WEED","experimental","71","1","180","1","CORN CROP","160","1","THISTLE WEED","20","20","10","20","0","20","20","20","10","20","0","20","0","4013","25.31809308941518","-2.040797448578047","0","0"
"657","86","text","0","169","2649698","0-0","","","","","","","","","","","","","","","","","","","","","","","","","","","","","","","","","","","","",""
"","","plant-game","0","170","2663512","0-0","","200","190","1","WHEAT CROP","Left","200","120","4","NETTLE WEED","experimental","72","1,2,3,4","190,170,204.84057684095447,222.96636030516208","1,3,2,1","WHEAT CROP,CORN CROP,CORN CROP,CORN CROP","120,106.65869454865027,142.73932641950682,136.0741515635805","4,3,2,1","NETTLE WEED,NETTLE WEED,NETTLE WEED,NETTLE WEED","20,20,20,20","20,20,20,20","10,10,10,10","20,20,20,20","0,0,0,0","20,20,20,20","20,20,20,20","20,20,20,20","10,10,10,10","20,20,20,20","0,0,0,0","20,20,20,20","0,0,0,0","3626,3004,873,1081","24.60417938621177,34.84057684095447,18.125783464207622,21.73985184486486","-13.341305451349726,36.08063187085655,-6.665174855926331,4.881542502749696","0","0"
"453","86","text","0","171","2664055","0-0","","","","","","","","","","","","","","","","","","","","","","","","","","","","","","","","","","","","",""
"","","plant-game","0","172","2680456","0-0","","200","180","4","CORN CROP","Right","200","120","2","THISTLE WEED","experimental","73","1,2,3,4","120,136.0082887726464,180,201.00886990620893","2,1,2,1","THISTLE WEED,THISTLE WEED,NETTLE WEED,NETTLE WEED","180,211.00390399916841,240.90799672255744,219.2427679822589","4,3,2,1","CORN CROP,CORN CROP,CORN CROP,CORN CROP","0,0,0,0","20,20,20,20","10,10,10,10","20,20,20,20","20,20,20,20","20,20,20,20","0,0,0,0","20,20,20,20","10,10,10,10","20,20,20,20","20,20,20,20","20,20,20,20","1,1,0,0","4101,1796,2511,1207","16.008288772646406,16.230268152147342,21.008869906208943,-36.93651780172138","31.00390399916843,29.904092723389034,-21.665228740298534,6.824789896265329","0","0"
"607","86","text","0","173","2681215","0-0","","","","","","","","","","","","","","","","","","","","","","","","","","","","","","","","","","","","",""
"","","plant-game","0","174","2700922","0-0","","200","190","4","CORN CROP","Left","200","190","1","NETTLE WEED","experimental","74","1,2,3,4","190,219.79405685866536,201.0951586058357,192.9156707608642","4,3,2,1","CORN CROP,CORN CROP,CORN CROP,CORN CROP","190,170,155.81764895800416,189.51450778735008","1,3,2,1","NETTLE WEED,THISTLE WEED,THISTLE WEED,THISTLE WEED","20,20,20,20","20,20,20,20","10,10,10,10","20,20,20,20","0,0,0,0","20,20,20,20","20,20,20,20","20,20,20,20","10,10,10,10","20,20,20,20","0,0,0,0","20,20,20,20","1,1,0,0","3901,4712,2332,1870","29.794056858665346,-18.69889825282966,-8.179487844971511,9.933884337409133","-22.465960286392985,-14.182351041995858,33.696858829345935,60.4062064032832","0","0"
"373","86","text","0","175","2701395","0-0","","","","","","","","","","","","","","","","","","","","","","","","","","","","","","","","","","","","",""
"","","plant-game","0","176","2728904","0-0","","200","190","8","WHEAT CROP","Left","200","120","1","THISTLE WEED","experimental","75","1,2,3,4,5,6,7,8","190,198.8406207229573,214.69600122562522,234.01692017648327,256.28632858112064,299.1765837560939,288.1433482265493,267.75748107946094","8,7,6,5,4,3,2,1","WHEAT CROP,WHEAT CROP,WHEAT CROP,WHEAT CROP,WHEAT CROP,WHEAT CROP,WHEAT CROP,WHEAT CROP","120,130,134.53472271141908,103.90394085115025,140.75257854968132,145.7935449589534,136.27567468483443,138.48396174186144","1,7,6,5,4,3,2,1","THISTLE WEED,NETTLE WEED,NETTLE WEED,NETTLE WEED,NETTLE WEED,NETTLE WEED,NETTLE WEED,NETTLE WEED","20,20,20,20,20,20,20,20","20,20,20,20,20,20,20,20","10,10,10,10,10,10,10,10","20,20,20,20,20,20,20,20","0,0,0,0,0,0,0,0","20,20,20,20,20,20,20,20","20,20,20,20,20,20,20,20","20,20,20,20,20,20,20,20","10,10,10,10,10,10,10,10","20,20,20,20,20,20,20,20","0,0,0,0,0,0,0,0","20,20,20,20,20,20,20,20","0,0,0,0,0,1,1,1","10881,2084,1202,730,733,3565,970,733","8.840620722957315,15.855380502667915,19.320918950858037,22.26940840463739,42.8902551749733,-11.03323552954466,-20.385867147088305,-5.397030266415117","47.36019174632766,4.534722711419082,-30.630781860268826,36.848637698531064,5.0409664092720785,-9.517870274118959,2.2082870570270083,6.485856214595485","0","0"
"478","86","text","0","177","2729482","0-0","","","","","","","","","","","","","","","","","","","","","","","","","","","","","","","","","","","","",""
"","","plant-game","0","178","2753786","0-0","","200","160","4","WHEAT CROP","Left","200","180","2","NETTLE WEED","experimental","76","1,2,3,4","160,208.62004706526875,206.62144853344242,218.62139549201925","4,3,2,1","WHEAT CROP,WHEAT CROP,WHEAT CROP,WHEAT CROP","180,201.2013034231282,180,209.75432106661637","2,1,2,1","NETTLE WEED,NETTLE WEED,THISTLE WEED,THISTLE WEED","20,20,20,20","20,20,20,20","10,10,10,10","20,20,20,20","0,0,0,0","20,20,20,20","20,20,20,20","20,20,20,20","10,10,10,10","20,20,20,20","0,0,0,0","20,20,20,20","0,1,1,1","11583,1545,4390,1095","48.620047065268736,-1.998598531826343,11.999946958576832,-3.931188865555521","21.201303423128184,10.872198443267928,29.754321066616377,-5.1450690484892805","0","0"
"1039","86","text","0","179","2754871","0-0","","","","","","","","","","","","","","","","","","","","","","","","","","","","","","","","","","","","",""
"","","plant-game","0","180","2778873","0-0","","200","190","1","CORN CROP","Right","200","180","8","THISTLE WEED","experimental","77","1,2,3,4,5,6,7,8","180,186.14636720397615,180.0331458208043,185.66086446201825,210.42247141024788,276.60849808245854,272.05628953574626,298.52789718976885","8,7,6,5,4,3,2,1","THISTLE WEED,THISTLE WEED,THISTLE WEED,THISTLE WEED,THISTLE WEED,THISTLE WEED,THISTLE WEED,THISTLE WEED","190,130,109.36718445208376,116.5370857591706,150.43264157391224,170.15164335255153,171.01491646933562,169.12050876323553","1,7,6,5,4,3,2,1","CORN CROP,WHEAT CROP,WHEAT CROP,WHEAT CROP,WHEAT CROP,WHEAT CROP,WHEAT CROP,WHEAT CROP","0,0,0,0,0,0,0,0","20,20,20,20,20,20,20,20","10,10,10,10,10,10,10,10","20,20,20,20,20,20,20,20","20,20,20,20,20,20,20,20","20,20,20,20,20,20,20,20","0,0,0,0,0,0,0,0","20,20,20,20,20,20,20,20","10,10,10,10,10,10,10,10","20,20,20,20,20,20,20,20","20,20,20,20,20,20,20,20","20,20,20,20,20,20,20,20","1,0,1,1,1,1,1,1","4862,5091,1541,1098,1153,1192,694,2130","6.146367203976158,-6.113221383171863,5.627718641213956,24.76160694822963,66.18602667221067,-4.552208546712265,26.4716076540226,0.09447106142560813","24.4049792906207,-20.63281554791623,7.169901307086828,33.89555581474163,19.7190017786393,0.8632731167840966,-1.8944077061000968,15.270749990349948","1","0"
"58","86","text","0","181","2779001","0-0","","","","","","","","","","","","","","","","","","","","","","","","","","","","","","","","","","","","",""
"","","plant-game","0","182","2804406","0-0","","200","180","4","WHEAT CROP","Left","200","120","8","THISTLE WEED","experimental","78","1,2,3,4,5,6,7,8","180,202.37921875984995,207.27304414215706,221.41417267461298,160,156.36814982855094,152.21876754880822,137.06340404609432","4,3,2,1,4,3,2,1","WHEAT CROP,WHEAT CROP,WHEAT CROP,WHEAT CROP,CORN CROP,CORN CROP,CORN CROP,CORN CROP","120,154.74747203617758,197.9549930491399,216.56481966219533,230.46987028109726,239.62834651554473,244.6710513422631,209.94389642818123","8,7,6,5,4,3,2,1","THISTLE WEED,THISTLE WEED,THISTLE WEED,THISTLE WEED,THISTLE WEED,THISTLE WEED,THISTLE WEED,THISTLE WEED","20,20,20,20,20,20,20,20","20,20,20,20,20,20,20,20","10,10,10,10,10,10,10,10","20,20,20,20,20,20,20,20","0,0,0,0,0,0,0,0","20,20,20,20,20,20,20,20","20,20,20,20,20,20,20,20","20,20,20,20,20,20,20,20","10,10,10,10,10,10,10,10","20,20,20,20,20,20,20,20","0,0,0,0,0,0,0,0","20,20,20,20,20,20,20,20","0,0,0,0,1,1,1,1","12257,692,1028,1883,2780,433,377,60","22.37921875984996,4.893825382307126,14.141128532455935,14.751164614300718,-3.631850171449067,-4.149382279742737,-15.15536350271389,-9.739901775173083","34.74747203617758,43.2075210129623,18.609826613055446,13.905050618901917,9.15847623444747,5.0427048267183725,-34.72715491408185,18.668595963534266","0","0"
"852","86","text","0","183","2805348","0-0","","","","","","","","","","","","","","","","","","","","","","","","","","","","","","","","","","","","",""
"","","plant-game","0","184","2826011","0-0","","200","120","2","CORN CROP","Right","200","120","1","THISTLE WEED","experimental","79","1,2","120,190","1,1","THISTLE WEED,NETTLE WEED","120,113.14873987510788","2,1","CORN CROP,CORN CROP","0,0","20,20","10,10","20,20","20,20","20,20","0,0","20,20","10,10","20,20","20,20","20,20","1,0","9117,6306","10.55894247781724,11.375895311679898","-6.851260124892121,4.9575163291342115","0","0"
"66","86","text","0","185","2826137","0-0","","","","","","","","","","","","","","","","","","","","","","","","","","","","","","","","","","","","",""
